#sample_425_stacked_spectrum_rest_UV-bands_median_H-alpha_noDC.txt
#median Lum: 1.73318e+42
#Rest-frame wavelength (A) | Luminosity (erg/s/A)
#
          1110.00000	         0.00000e+00
          1110.80630	         1.67936e+59
          1111.61260	         4.13486e+58
          1112.41890	         2.30641e+59
          1113.22520	         8.47875e+57
          1114.03150	        -1.28474e+59
          1114.83780	         9.33553e+58
          1115.64410	         1.84782e+59
          1116.45040	         3.13223e+59
          1117.25670	         6.51083e+58
          1118.06300	         1.62269e+59
          1118.86930	         1.80976e+59
          1119.67560	         1.06656e+59
          1120.48190	         3.41003e+58
          1121.28820	        -1.54334e+59
          1122.09450	         3.39668e+58
          1122.90080	         5.79551e+58
          1123.70710	         1.13326e+59
          1124.51340	         7.01094e+58
          1125.31970	         2.92949e+58
          1126.12600	        -1.81768e+58
          1126.93230	        -2.96958e+58
          1127.73860	        -7.39656e+58
          1128.54490	        -2.27942e+58
          1129.35120	        -5.19089e+57
          1130.15750	        -6.41486e+58
          1130.96380	        -2.53470e+58
          1131.77010	         4.69318e+58
          1132.57640	         2.16498e+58
          1133.38270	         1.21871e+58
          1134.18900	         4.10667e+58
          1134.99530	         9.26812e+57
          1135.80160	         4.34104e+58
          1136.60790	         1.84898e+58
          1137.41420	        -1.14369e+58
          1138.22050	         2.05562e+58
          1139.02680	         3.58803e+58
          1139.83310	         2.47420e+58
          1140.63940	         2.53287e+58
          1141.44570	        -3.15816e+57
          1142.25200	         4.62876e+56
          1143.05830	         2.26332e+58
          1143.86460	         1.78270e+58
          1144.67090	         3.26430e+58
          1145.47720	         1.97321e+58
          1146.28350	         1.64710e+58
          1147.08980	         1.65556e+58
          1147.89610	         1.15623e+58
          1148.70240	         3.25058e+58
          1149.50870	         1.03927e+58
          1150.31500	         2.12076e+58
          1151.12130	         1.01998e+58
          1151.92760	         6.69127e+57
          1152.73390	         5.60847e+57
          1153.54020	         7.37579e+57
          1154.34650	         1.52691e+58
          1155.15280	         1.08564e+58
          1155.95910	         1.67925e+58
          1156.76540	         7.24096e+57
          1157.57170	         5.72434e+57
          1158.37800	         3.22261e+57
          1159.18430	        -2.84184e+57
          1159.99060	         1.07416e+58
          1160.79690	         1.38988e+58
          1161.60320	         1.91679e+58
          1162.40950	         1.69106e+58
          1163.21580	         1.01133e+58
          1164.02210	         8.97113e+57
          1164.82840	         8.50023e+57
          1165.63470	         1.59119e+58
          1166.44100	         3.27064e+58
          1167.24730	         2.01877e+58
          1168.05360	         3.67670e+57
          1168.85990	         3.07291e+57
          1169.66620	         2.90895e+57
          1170.47250	         1.19044e+58
          1171.27880	         8.71077e+57
          1172.08510	         1.12483e+58
          1172.89140	         1.57046e+58
          1173.69770	         7.95796e+57
          1174.50400	         1.32638e+58
          1175.31030	         2.14159e+58
          1176.11660	         2.22285e+58
          1176.92290	         1.57717e+58
          1177.72920	         1.18022e+58
          1178.53550	         8.34453e+57
          1179.34180	         1.07907e+57
          1180.14810	         3.33966e+57
          1180.95440	         1.07844e+58
          1181.76070	         1.13058e+58
          1182.56700	         6.50425e+57
          1183.37330	         6.16429e+57
          1184.17960	         1.13112e+58
          1184.98590	         8.66670e+57
          1185.79220	         5.69970e+57
          1186.59850	         1.06635e+58
          1187.40480	         1.34053e+58
          1188.21110	         1.88994e+58
          1189.01740	         1.36792e+58
          1189.82370	         8.79874e+57
          1190.63000	         1.43876e+58
          1191.43630	         1.35368e+58
          1192.24260	         7.10485e+57
          1193.04890	         1.37594e+58
          1193.85520	         1.39692e+58
          1194.66150	         8.56705e+57
          1195.46780	         1.11865e+58
          1196.27410	         1.47565e+58
          1197.08040	         1.20722e+58
          1197.88670	         1.04932e+58
          1198.69300	         1.13914e+58
          1199.49930	         1.50989e+58
          1200.30560	         1.19726e+58
          1201.11190	         1.49392e+58
          1201.91820	         1.58956e+58
          1202.72450	         1.00070e+58
          1203.53080	         1.32752e+58
          1204.33710	         6.52764e+57
          1205.14340	         9.45110e+57
          1205.94970	         1.18558e+58
          1206.75600	         4.59214e+57
          1207.56230	         2.74103e+57
          1208.36860	         6.61654e+57
          1209.17490	         5.44048e+57
          1209.98120	         8.85793e+57
          1210.78750	         1.12935e+58
          1211.59380	         1.57278e+58
          1212.40010	         2.20184e+58
          1213.20640	         1.79355e+58
          1214.01270	         1.75552e+58
          1214.81900	         2.34181e+58
          1215.62530	         4.11308e+58
          1216.43160	         8.92816e+58
          1217.23790	         1.52734e+59
          1218.04420	         1.18683e+59
          1218.85050	         9.30591e+58
          1219.65680	         6.61217e+58
          1220.46310	         3.91054e+58
          1221.26940	         2.21313e+58
          1222.07570	         1.58247e+58
          1222.88200	         1.45888e+58
          1223.68830	         1.36303e+58
          1224.49460	         1.17435e+58
          1225.30090	         6.55330e+57
          1226.10720	         4.61738e+57
          1226.91350	         5.84983e+57
          1227.71980	         8.11088e+57
          1228.52610	         1.20831e+58
          1229.33240	         9.01621e+57
          1230.13870	         1.00698e+58
          1230.94500	         7.85569e+57
          1231.75130	         7.61430e+57
          1232.55760	         1.03413e+58
          1233.36390	         9.34006e+57
          1234.17020	         8.82852e+57
          1234.97650	         7.23434e+57
          1235.78280	         7.39261e+57
          1236.58910	         6.50036e+57
          1237.39540	         8.38529e+57
          1238.20170	         9.72819e+57
          1239.00800	         1.26696e+58
          1239.81430	         1.76387e+58
          1240.62060	         1.31615e+58
          1241.42690	         1.14321e+58
          1242.23320	         1.13481e+58
          1243.03950	         7.41726e+57
          1243.84580	         7.12855e+57
          1244.65210	         9.23011e+57
          1245.45840	         1.08227e+58
          1246.26470	         8.87044e+57
          1247.07100	         3.39015e+57
          1247.87730	         4.52979e+57
          1248.68360	         5.52956e+57
          1249.48990	         6.95374e+57
          1250.29620	         9.96003e+57
          1251.10250	         5.96286e+57
          1251.90880	         6.52608e+57
          1252.71510	         8.20571e+57
          1253.52140	         9.26253e+57
          1254.32770	         1.12522e+58
          1255.13400	         1.33984e+58
          1255.94030	         1.34231e+58
          1256.74660	         1.04804e+58
          1257.55290	         1.06591e+58
          1258.35920	         1.01855e+58
          1259.16550	         7.24124e+57
          1259.97180	         7.70253e+57
          1260.77810	         9.56949e+57
          1261.58440	         9.60754e+57
          1262.39070	         8.94277e+57
          1263.19700	         9.05248e+57
          1264.00330	         8.85697e+57
          1264.80960	         1.22613e+58
          1265.61590	         1.39427e+58
          1266.42220	         1.21951e+58
          1267.22850	         1.33421e+58
          1268.03480	         1.51976e+58
          1268.84110	         1.57170e+58
          1269.64740	         1.42376e+58
          1270.45370	         1.39677e+58
          1271.26000	         1.22304e+58
          1272.06630	         1.18660e+58
          1272.87260	         1.19727e+58
          1273.67890	         1.22793e+58
          1274.48520	         1.40913e+58
          1275.29150	         1.51404e+58
          1276.09780	         1.29501e+58
          1276.90410	         1.49995e+58
          1277.71040	         1.45873e+58
          1278.51670	         1.27539e+58
          1279.32300	         1.54092e+58
          1280.12930	         1.48457e+58
          1280.93560	         1.22703e+58
          1281.74190	         1.45012e+58
          1282.54820	         1.56641e+58
          1283.35450	         1.22318e+58
          1284.16080	         1.10487e+58
          1284.96710	         1.20816e+58
          1285.77340	         9.83384e+57
          1286.57970	         1.03112e+58
          1287.38600	         1.55558e+58
          1288.19230	         1.77178e+58
          1288.99860	         1.73610e+58
          1289.80490	         1.23595e+58
          1290.61120	         1.36888e+58
          1291.41750	         1.53753e+58
          1292.22380	         1.31616e+58
          1293.03010	         1.28057e+58
          1293.83640	         1.21293e+58
          1294.64270	         1.09872e+58
          1295.44900	         7.59999e+57
          1296.25530	         7.05718e+57
          1297.06160	         9.04459e+57
          1297.86790	         1.08266e+58
          1298.67420	         1.10599e+58
          1299.48050	         1.32463e+58
          1300.28680	         1.23999e+58
          1301.09310	         8.97754e+57
          1301.89940	         4.88202e+57
          1302.70570	         6.87852e+57
          1303.51200	         8.99855e+57
          1304.31830	         1.09904e+58
          1305.12460	         1.15390e+58
          1305.93090	         1.12335e+58
          1306.73720	         1.22274e+58
          1307.54350	         1.41829e+58
          1308.34980	         1.48749e+58
          1309.15610	         1.48739e+58
          1309.96240	         1.43449e+58
          1310.76870	         1.15589e+58
          1311.57500	         9.57872e+57
          1312.38130	         1.17306e+58
          1313.18760	         1.51186e+58
          1313.99390	         1.41273e+58
          1314.80020	         1.55127e+58
          1315.60650	         1.75572e+58
          1316.41280	         1.46749e+58
          1317.21910	         1.04889e+58
          1318.02540	         1.28193e+58
          1318.83170	         1.46984e+58
          1319.63800	         1.29326e+58
          1320.44430	         1.23540e+58
          1321.25060	         1.31434e+58
          1322.05690	         1.44053e+58
          1322.86320	         1.33326e+58
          1323.66950	         1.08466e+58
          1324.47580	         9.23704e+57
          1325.28210	         1.02493e+58
          1326.08840	         1.24380e+58
          1326.89470	         1.43057e+58
          1327.70100	         1.29670e+58
          1328.50730	         9.54647e+57
          1329.31360	         8.78902e+57
          1330.11990	         1.07353e+58
          1330.92620	         9.41343e+57
          1331.73250	         1.12790e+58
          1332.53880	         1.12710e+58
          1333.34510	         8.99475e+57
          1334.15140	         9.18504e+57
          1334.95770	         9.48450e+57
          1335.76400	         1.02238e+58
          1336.57030	         1.02767e+58
          1337.37660	         1.08969e+58
          1338.18290	         1.16278e+58
          1338.98920	         1.13476e+58
          1339.79550	         1.05665e+58
          1340.60180	         1.09638e+58
          1341.40810	         1.36454e+58
          1342.21440	         1.23514e+58
          1343.02070	         1.24201e+58
          1343.82700	         1.41039e+58
          1344.63330	         1.37203e+58
          1345.43960	         1.62958e+58
          1346.24590	         1.13081e+58
          1347.05220	         1.13946e+58
          1347.85850	         1.07914e+58
          1348.66480	         1.16181e+58
          1349.47110	         1.31536e+58
          1350.27740	         1.09505e+58
          1351.08370	         1.20343e+58
          1351.89000	         1.39005e+58
          1352.69630	         1.34179e+58
          1353.50260	         1.33231e+58
          1354.30890	         1.29344e+58
          1355.11520	         1.22644e+58
          1355.92150	         1.05412e+58
          1356.72780	         1.00753e+58
          1357.53410	         1.13534e+58
          1358.34040	         1.19090e+58
          1359.14670	         1.09912e+58
          1359.95300	         1.16023e+58
          1360.75930	         1.30516e+58
          1361.56560	         1.23475e+58
          1362.37190	         1.21962e+58
          1363.17820	         1.23762e+58
          1363.98450	         1.27255e+58
          1364.79080	         1.18003e+58
          1365.59710	         1.26096e+58
          1366.40340	         1.25009e+58
          1367.20970	         1.01250e+58
          1368.01600	         9.58515e+57
          1368.82230	         1.03304e+58
          1369.62860	         1.18876e+58
          1370.43490	         9.40208e+57
          1371.24120	         8.04047e+57
          1372.04750	         7.35011e+57
          1372.85380	         1.03561e+58
          1373.66010	         1.19099e+58
          1374.46640	         1.19220e+58
          1375.27270	         1.04706e+58
          1376.07900	         8.72504e+57
          1376.88530	         7.64694e+57
          1377.69160	         7.76255e+57
          1378.49790	         8.50613e+57
          1379.30420	         9.20756e+57
          1380.11050	         1.05822e+58
          1380.91680	         8.99369e+57
          1381.72310	         7.95395e+57
          1382.52940	         8.37101e+57
          1383.33570	         8.49574e+57
          1384.14200	         9.49111e+57
          1384.94830	         1.05129e+58
          1385.75460	         1.05496e+58
          1386.56090	         1.18190e+58
          1387.36720	         9.93685e+57
          1388.17350	         1.16354e+58
          1388.97980	         1.21455e+58
          1389.78610	         1.06744e+58
          1390.59240	         8.02883e+57
          1391.39870	         7.36859e+57
          1392.20500	         7.66574e+57
          1393.01130	         7.18909e+57
          1393.81760	         6.49749e+57
          1394.62390	         7.42606e+57
          1395.43020	         7.65590e+57
          1396.23650	         6.18462e+57
          1397.04280	         7.60189e+57
          1397.84910	         8.33369e+57
          1398.65540	         9.11823e+57
          1399.46170	         1.02967e+58
          1400.26800	         7.46503e+57
          1401.07430	         6.01463e+57
          1401.88060	         8.58329e+57
          1402.68690	         9.09356e+57
          1403.49320	         9.34666e+57
          1404.29950	         1.03974e+58
          1405.10580	         1.18317e+58
          1405.91210	         1.33190e+58
          1406.71840	         1.14562e+58
          1407.52470	         1.08235e+58
          1408.33100	         1.05207e+58
          1409.13730	         1.11986e+58
          1409.94360	         1.18542e+58
          1410.74990	         1.17602e+58
          1411.55620	         1.02705e+58
          1412.36250	         9.65730e+57
          1413.16880	         9.72172e+57
          1413.97510	         8.65362e+57
          1414.78140	         8.22251e+57
          1415.58770	         1.20657e+58
          1416.39400	         1.37680e+58
          1417.20030	         1.19353e+58
          1418.00660	         9.52805e+57
          1418.81290	         9.44456e+57
          1419.61920	         1.08924e+58
          1420.42550	         1.26403e+58
          1421.23180	         1.36251e+58
          1422.03810	         1.35848e+58
          1422.84440	         1.38363e+58
          1423.65070	         1.35533e+58
          1424.45700	         1.21301e+58
          1425.26330	         9.16687e+57
          1426.06960	         8.98579e+57
          1426.87590	         9.93559e+57
          1427.68220	         1.05219e+58
          1428.48850	         1.16946e+58
          1429.29480	         1.13709e+58
          1430.10110	         1.06168e+58
          1430.90740	         9.33432e+57
          1431.71370	         9.57660e+57
          1432.52000	         9.82175e+57
          1433.32630	         8.56510e+57
          1434.13260	         8.15909e+57
          1434.93890	         8.60258e+57
          1435.74520	         9.01208e+57
          1436.55150	         1.00738e+58
          1437.35780	         9.96812e+57
          1438.16410	         1.03813e+58
          1438.97040	         1.02122e+58
          1439.77670	         8.69912e+57
          1440.58300	         9.59757e+57
          1441.38930	         1.05605e+58
          1442.19560	         1.05138e+58
          1443.00190	         1.01922e+58
          1443.80820	         1.10858e+58
          1444.61450	         1.12501e+58
          1445.42080	         9.14350e+57
          1446.22710	         1.04401e+58
          1447.03340	         9.68675e+57
          1447.83970	         1.13090e+58
          1448.64600	         1.21471e+58
          1449.45230	         1.01391e+58
          1450.25860	         9.84386e+57
          1451.06490	         8.94271e+57
          1451.87120	         8.46145e+57
          1452.67750	         7.92709e+57
          1453.48380	         8.35185e+57
          1454.29010	         8.66788e+57
          1455.09640	         9.11671e+57
          1455.90270	         9.58239e+57
          1456.70900	         8.67885e+57
          1457.51530	         9.43946e+57
          1458.32160	         1.30612e+58
          1459.12790	         1.41550e+58
          1459.93420	         1.09547e+58
          1460.74050	         8.45362e+57
          1461.54680	         8.03762e+57
          1462.35310	         9.09104e+57
          1463.15940	         1.10906e+58
          1463.96570	         1.25190e+58
          1464.77200	         1.23947e+58
          1465.57830	         1.12646e+58
          1466.38460	         9.85594e+57
          1467.19090	         8.97837e+57
          1467.99720	         8.25499e+57
          1468.80350	         9.03947e+57
          1469.60980	         9.97875e+57
          1470.41610	         1.12299e+58
          1471.22240	         1.03028e+58
          1472.02870	         9.84643e+57
          1472.83500	         1.04163e+58
          1473.64130	         1.02935e+58
          1474.44760	         9.40891e+57
          1475.25390	         1.02688e+58
          1476.06020	         1.04039e+58
          1476.86650	         9.29892e+57
          1477.67280	         8.47422e+57
          1478.47910	         7.32047e+57
          1479.28540	         7.22987e+57
          1480.09170	         7.85327e+57
          1480.89800	         8.29055e+57
          1481.70430	         1.00080e+58
          1482.51060	         9.02068e+57
          1483.31690	         6.97269e+57
          1484.12320	         8.24606e+57
          1484.92950	         9.04072e+57
          1485.73580	         9.09576e+57
          1486.54210	         8.70194e+57
          1487.34840	         9.58786e+57
          1488.15470	         8.74357e+57
          1488.96100	         7.92124e+57
          1489.76730	         8.81261e+57
          1490.57360	         8.50991e+57
          1491.37990	         7.16533e+57
          1492.18620	         8.07168e+57
          1492.99250	         8.36110e+57
          1493.79880	         8.82776e+57
          1494.60510	         9.12552e+57
          1495.41140	         7.44496e+57
          1496.21770	         8.72299e+57
          1497.02400	         1.14931e+58
          1497.83030	         9.10370e+57
          1498.63660	         7.23848e+57
          1499.44290	         8.11742e+57
          1500.24920	         8.18573e+57
          1501.05550	         8.16200e+57
          1501.86180	         8.82249e+57
          1502.66810	         9.14603e+57
          1503.47440	         9.24617e+57
          1504.28070	         8.94349e+57
          1505.08700	         9.43907e+57
          1505.89330	         9.09116e+57
          1506.69960	         8.31394e+57
          1507.50590	         8.82213e+57
          1508.31220	         9.75396e+57
          1509.11850	         9.18317e+57
          1509.92480	         9.66345e+57
          1510.73110	         9.34355e+57
          1511.53740	         6.96906e+57
          1512.34370	         6.57550e+57
          1513.15000	         8.58852e+57
          1513.95630	         9.78817e+57
          1514.76260	         9.63399e+57
          1515.56890	         9.30824e+57
          1516.37520	         9.15586e+57
          1517.18150	         8.57574e+57
          1517.98780	         7.73163e+57
          1518.79410	         7.69694e+57
          1519.60040	         8.96037e+57
          1520.40670	         1.03577e+58
          1521.21300	         1.06280e+58
          1522.01930	         9.06290e+57
          1522.82560	         9.75047e+57
          1523.63190	         1.05833e+58
          1524.43820	         8.74746e+57
          1525.24450	         6.47021e+57
          1526.05080	         6.14648e+57
          1526.85710	         6.95607e+57
          1527.66340	         7.23368e+57
          1528.46970	         8.72409e+57
          1529.27600	         8.59010e+57
          1530.08230	         7.90755e+57
          1530.88860	         8.49280e+57
          1531.69490	         9.66228e+57
          1532.50120	         9.38419e+57
          1533.30750	         9.49577e+57
          1534.11380	         1.00540e+58
          1534.92010	         9.80717e+57
          1535.72640	         9.36217e+57
          1536.53270	         9.58669e+57
          1537.33900	         9.26554e+57
          1538.14530	         9.17004e+57
          1538.95160	         1.02685e+58
          1539.75790	         9.76331e+57
          1540.56420	         9.10086e+57
          1541.37050	         8.43045e+57
          1542.17680	         7.79603e+57
          1542.98310	         7.97015e+57
          1543.78940	         6.95062e+57
          1544.59570	         7.09601e+57
          1545.40200	         8.83669e+57
          1546.20830	         9.31510e+57
          1547.01460	         1.07267e+58
          1547.82090	         1.20036e+58
          1548.62720	         1.16870e+58
          1549.43350	         1.22899e+58
          1550.23980	         1.18316e+58
          1551.04610	         1.18785e+58
          1551.85240	         1.36598e+58
          1552.65870	         1.14154e+58
          1553.46500	         1.11097e+58
          1554.27130	         1.04036e+58
          1555.07760	         1.00486e+58
          1555.88390	         9.01519e+57
          1556.69020	         8.94033e+57
          1557.49650	         9.78200e+57
          1558.30280	         8.62795e+57
          1559.10910	         8.17769e+57
          1559.91540	         8.65156e+57
          1560.72170	         8.27712e+57
          1561.52800	         8.25184e+57
          1562.33430	         9.12236e+57
          1563.14060	         8.66296e+57
          1563.94690	         8.34879e+57
          1564.75320	         8.21704e+57
          1565.55950	         7.49987e+57
          1566.36580	         7.47072e+57
          1567.17210	         9.76615e+57
          1567.97840	         9.68199e+57
          1568.78470	         8.85474e+57
          1569.59100	         9.52901e+57
          1570.39730	         8.91989e+57
          1571.20360	         7.26235e+57
          1572.00990	         7.51639e+57
          1572.81620	         8.85242e+57
          1573.62250	         1.10030e+58
          1574.42880	         1.03365e+58
          1575.23510	         8.52591e+57
          1576.04140	         8.64572e+57
          1576.84770	         9.34370e+57
          1577.65400	         9.28351e+57
          1578.46030	         1.08094e+58
          1579.26660	         1.19931e+58
          1580.07290	         1.06240e+58
          1580.87920	         8.79126e+57
          1581.68550	         7.54165e+57
          1582.49180	         7.67568e+57
          1583.29810	         7.56624e+57
          1584.10440	         9.13977e+57
          1584.91070	         9.09548e+57
          1585.71700	         8.41031e+57
          1586.52330	         9.02670e+57
          1587.32960	         9.60430e+57
          1588.13590	         9.86790e+57
          1588.94220	         9.59753e+57
          1589.74850	         9.54069e+57
          1590.55480	         9.66724e+57
          1591.36110	         8.37857e+57
          1592.16740	         7.95318e+57
          1592.97370	         8.65450e+57
          1593.78000	         8.45362e+57
          1594.58630	         8.57795e+57
          1595.39260	         7.86472e+57
          1596.19890	         8.96193e+57
          1597.00520	         1.02986e+58
          1597.81150	         8.82778e+57
          1598.61780	         7.25930e+57
          1599.42410	         6.91600e+57
          1600.23040	         7.55614e+57
          1601.03670	         8.14320e+57
          1601.84300	         7.34926e+57
          1602.64930	         8.88065e+57
          1603.45560	         1.00304e+58
          1604.26190	         9.43694e+57
          1605.06820	         8.64617e+57
          1605.87450	         7.52812e+57
          1606.68080	         7.48799e+57
          1607.48710	         6.94210e+57
          1608.29340	         5.99150e+57
          1609.09970	         7.06235e+57
          1609.90600	         8.22608e+57
          1610.71230	         7.97963e+57
          1611.51860	         7.40479e+57
          1612.32490	         7.23089e+57
          1613.13120	         8.11592e+57
          1613.93750	         8.60487e+57
          1614.74380	         8.98329e+57
          1615.55010	         8.95247e+57
          1616.35640	         1.05269e+58
          1617.16270	         1.08492e+58
          1617.96900	         9.98746e+57
          1618.77530	         9.56706e+57
          1619.58160	         9.93466e+57
          1620.38790	         8.51964e+57
          1621.19420	         8.89804e+57
          1622.00050	         8.31285e+57
          1622.80680	         8.84182e+57
          1623.61310	         9.74206e+57
          1624.41940	         9.04122e+57
          1625.22570	         9.24157e+57
          1626.03200	         8.85423e+57
          1626.83830	         7.80035e+57
          1627.64460	         7.79282e+57
          1628.45090	         7.59734e+57
          1629.25720	         9.26301e+57
          1630.06350	         1.04978e+58
          1630.86980	         6.41321e+57
          1631.67610	         7.26440e+57
          1632.48240	         8.55400e+57
          1633.28870	         8.04215e+57
          1634.09500	         9.91108e+57
          1634.90130	         1.14397e+58
          1635.70760	         9.96597e+57
          1636.51390	         9.32617e+57
          1637.32020	         9.37491e+57
          1638.12650	         9.61164e+57
          1638.93280	         9.35153e+57
          1639.73910	         1.01468e+58
          1640.54540	         1.06318e+58
          1641.35170	         9.20340e+57
          1642.15800	         8.85332e+57
          1642.96430	         9.09061e+57
          1643.77060	         8.92144e+57
          1644.57690	         9.07946e+57
          1645.38320	         9.51926e+57
          1646.18950	         7.75699e+57
          1646.99580	         9.04671e+57
          1647.80210	         8.53736e+57
          1648.60840	         8.64972e+57
          1649.41470	         8.85038e+57
          1650.22100	         6.75715e+57
          1651.02730	         6.45624e+57
          1651.83360	         7.40718e+57
          1652.63990	         8.95133e+57
          1653.44620	         9.16470e+57
          1654.25250	         7.99183e+57
          1655.05880	         7.54035e+57
          1655.86510	         7.94966e+57
          1656.67140	         8.81059e+57
          1657.47770	         8.89615e+57
          1658.28400	         8.43265e+57
          1659.09030	         8.97170e+57
          1659.89660	         9.48451e+57
          1660.70290	         1.02688e+58
          1661.50920	         9.77674e+57
          1662.31550	         8.43272e+57
          1663.12180	         8.21512e+57
          1663.92810	         9.66720e+57
          1664.73440	         1.06265e+58
          1665.54070	         1.12275e+58
          1666.34700	         1.21433e+58
          1667.15330	         1.14189e+58
          1667.95960	         9.72968e+57
          1668.76590	         7.77217e+57
          1669.57220	         6.91475e+57
          1670.37850	         7.74252e+57
          1671.18480	         8.36472e+57
          1671.99110	         8.30450e+57
          1672.79740	         7.91937e+57
          1673.60370	         7.58361e+57
          1674.41000	         7.60754e+57
          1675.21630	         7.05447e+57
          1676.02260	         8.00405e+57
          1676.82890	         7.92847e+57
          1677.63520	         6.70862e+57
          1678.44150	         7.08586e+57
          1679.24780	         8.86583e+57
          1680.05410	         7.60849e+57
          1680.86040	         6.73939e+57
          1681.66670	         7.68330e+57
          1682.47300	         9.26630e+57
          1683.27930	         9.07401e+57
          1684.08560	         8.93300e+57
          1684.89190	         7.52701e+57
          1685.69820	         5.76896e+57
          1686.50450	         5.88658e+57
          1687.31080	         6.70437e+57
          1688.11710	         7.72691e+57
          1688.92340	         7.53509e+57
          1689.72970	         7.02607e+57
          1690.53600	         6.96916e+57
          1691.34230	         7.20914e+57
          1692.14860	         8.30627e+57
          1692.95490	         8.49697e+57
          1693.76120	         8.33802e+57
          1694.56750	         7.94152e+57
          1695.37380	         9.03476e+57
          1696.18010	         9.24668e+57
          1696.98640	         9.29634e+57
          1697.79270	         9.20843e+57
          1698.59900	         8.91641e+57
          1699.40530	         8.48760e+57
          1700.21160	         8.31704e+57
          1701.01790	         8.82858e+57
          1701.82420	         8.30861e+57
          1702.63050	         9.30839e+57
          1703.43680	         1.04045e+58
          1704.24310	         8.89522e+57
          1705.04940	         8.17618e+57
          1705.85570	         8.33447e+57
          1706.66200	         8.57595e+57
          1707.46830	         9.57236e+57
          1708.27460	         9.80188e+57
          1709.08090	         7.04167e+57
          1709.88720	         5.96379e+57
          1710.69350	         6.50472e+57
          1711.49980	         7.79432e+57
          1712.30610	         7.02193e+57
          1713.11240	         8.42150e+57
          1713.91870	         8.35407e+57
          1714.72500	         8.15728e+57
          1715.53130	         8.94831e+57
          1716.33760	         9.02432e+57
          1717.14390	         8.48555e+57
          1717.95020	         8.75433e+57
          1718.75650	         8.94435e+57
          1719.56280	         9.67989e+57
          1720.36910	         8.08609e+57
          1721.17540	         7.37335e+57
          1721.98170	         7.21955e+57
          1722.78800	         6.48604e+57
          1723.59430	         7.13332e+57
          1724.40060	         8.61963e+57
          1725.20690	         8.47918e+57
          1726.01320	         7.97921e+57
          1726.81950	         7.47947e+57
          1727.62580	         7.94896e+57
          1728.43210	         7.51954e+57
          1729.23840	         7.14507e+57
          1730.04470	         8.09825e+57
          1730.85100	         8.21970e+57
          1731.65730	         8.95017e+57
          1732.46360	         8.64475e+57
          1733.26990	         6.69935e+57
          1734.07620	         7.49087e+57
          1734.88250	         8.77809e+57
          1735.68880	         8.83255e+57
          1736.49510	         9.35318e+57
          1737.30140	         8.85784e+57
          1738.10770	         7.30603e+57
          1738.91400	         8.30352e+57
          1739.72030	         8.60266e+57
          1740.52660	         6.54973e+57
          1741.33290	         5.66021e+57
          1742.13920	         5.94381e+57
          1742.94550	         7.84882e+57
          1743.75180	         9.07250e+57
          1744.55810	         9.46849e+57
          1745.36440	         8.13288e+57
          1746.17070	         6.16900e+57
          1746.97700	         6.15107e+57
          1747.78330	         7.13786e+57
          1748.58960	         7.41530e+57
          1749.39590	         8.00995e+57
          1750.20220	         6.92723e+57
          1751.00850	         6.51419e+57
          1751.81480	         6.63509e+57
          1752.62110	         6.74053e+57
          1753.42740	         7.88269e+57
          1754.23370	         8.10784e+57
          1755.04000	         8.47469e+57
          1755.84630	         8.37529e+57
          1756.65260	         9.26136e+57
          1757.45890	         9.23683e+57
          1758.26520	         7.80429e+57
          1759.07150	         8.92644e+57
          1759.87780	         9.99853e+57
          1760.68410	         1.00613e+58
          1761.49040	         8.81755e+57
          1762.29670	         7.64067e+57
          1763.10300	         8.82473e+57
          1763.90930	         8.98755e+57
          1764.71560	         8.39579e+57
          1765.52190	         7.92242e+57
          1766.32820	         8.83369e+57
          1767.13450	         8.32470e+57
          1767.94080	         7.05284e+57
          1768.74710	         7.52061e+57
          1769.55340	         7.29501e+57
          1770.35970	         6.76453e+57
          1771.16600	         7.67386e+57
          1771.97230	         9.45591e+57
          1772.77860	         9.34364e+57
          1773.58490	         8.41680e+57
          1774.39120	         7.14706e+57
          1775.19750	         6.07976e+57
          1776.00380	         6.25377e+57
          1776.81010	         6.96697e+57
          1777.61640	         6.63400e+57
          1778.42270	         7.14526e+57
          1779.22900	         6.54048e+57
          1780.03530	         5.76046e+57
          1780.84160	         7.10499e+57
          1781.64790	         8.42877e+57
          1782.45420	         7.86971e+57
          1783.26050	         6.83624e+57
          1784.06680	         8.22579e+57
          1784.87310	         7.74214e+57
          1785.67940	         7.29972e+57
          1786.48570	         6.81495e+57
          1787.29200	         6.73956e+57
          1788.09830	         7.07308e+57
          1788.90460	         7.11477e+57
          1789.71090	         6.52405e+57
          1790.51720	         5.28377e+57
          1791.32350	         7.38125e+57
          1792.12980	         8.88304e+57
          1792.93610	         9.27233e+57
          1793.74240	         8.36109e+57
          1794.54870	         7.86612e+57
          1795.35500	         8.54811e+57
          1796.16130	         7.74477e+57
          1796.96760	         5.50183e+57
          1797.77390	         5.66444e+57
          1798.58020	         7.07317e+57
          1799.38650	         7.41765e+57
          1800.19280	         6.87321e+57
          1800.99910	         7.83449e+57
          1801.80540	         8.10016e+57
          1802.61170	         7.85483e+57
          1803.41800	         7.22594e+57
          1804.22430	         7.78205e+57
          1805.03060	         8.00851e+57
          1805.83690	         8.25529e+57
          1806.64320	         8.07676e+57
          1807.44950	         7.44953e+57
          1808.25580	         7.56631e+57
          1809.06210	         8.19458e+57
          1809.86840	         6.57612e+57
          1810.67470	         6.59277e+57
          1811.48100	         7.81145e+57
          1812.28730	         8.02945e+57
          1813.09360	         7.89303e+57
          1813.89990	         9.49736e+57
          1814.70620	         7.94123e+57
          1815.51250	         8.16726e+57
          1816.31880	         9.93658e+57
          1817.12510	         8.66443e+57
          1817.93140	         6.46424e+57
          1818.73770	         6.79376e+57
          1819.54400	         7.16546e+57
          1820.35030	         7.88676e+57
          1821.15660	         6.49649e+57
          1821.96290	         5.96443e+57
          1822.76920	         6.81512e+57
          1823.57550	         7.52194e+57
          1824.38180	         7.57878e+57
          1825.18810	         7.22894e+57
          1825.99440	         8.99504e+57
          1826.80070	         9.06325e+57
          1827.60700	         6.61848e+57
          1828.41330	         6.43019e+57
          1829.21960	         7.61197e+57
          1830.02590	         7.41418e+57
          1830.83220	         8.76233e+57
          1831.63850	         8.25568e+57
          1832.44480	         7.16580e+57
          1833.25110	         8.61685e+57
          1834.05740	         9.23188e+57
          1834.86370	         7.38916e+57
          1835.67000	         6.32130e+57
          1836.47630	         8.07931e+57
          1837.28260	         8.45018e+57
          1838.08890	         8.74260e+57
          1838.89520	         8.86221e+57
          1839.70150	         8.25315e+57
          1840.50780	         7.95863e+57
          1841.31410	         6.63651e+57
          1842.12040	         6.26487e+57
          1842.92670	         7.23366e+57
          1843.73300	         6.82056e+57
          1844.53930	         6.25080e+57
          1845.34560	         7.35422e+57
          1846.15190	         7.28282e+57
          1846.95820	         8.10174e+57
          1847.76450	         7.70271e+57
          1848.57080	         5.87704e+57
          1849.37710	         6.70819e+57
          1850.18340	         7.32021e+57
          1850.98970	         8.31307e+57
          1851.79600	         8.00377e+57
          1852.60230	         7.36724e+57
          1853.40860	         6.97284e+57
          1854.21490	         7.33979e+57
          1855.02120	         6.25423e+57
          1855.82750	         5.60909e+57
          1856.63380	         7.74972e+57
          1857.44010	         7.50307e+57
          1858.24640	         7.47667e+57
          1859.05270	         8.28391e+57
          1859.85900	         7.02002e+57
          1860.66530	         5.76438e+57
          1861.47160	         6.59777e+57
          1862.27790	         6.15658e+57
          1863.08420	         7.82826e+57
          1863.89050	         8.49463e+57
          1864.69680	         7.81769e+57
          1865.50310	         7.78996e+57
          1866.30940	         6.35100e+57
          1867.11570	         6.28806e+57
          1867.92200	         7.63029e+57
          1868.72830	         8.56078e+57
          1869.53460	         8.91681e+57
          1870.34090	         8.61134e+57
          1871.14720	         8.40168e+57
          1871.95350	         7.90653e+57
          1872.75980	         7.50150e+57
          1873.56610	         6.91573e+57
          1874.37240	         6.61432e+57
          1875.17870	         6.29553e+57
          1875.98500	         7.42946e+57
          1876.79130	         7.87150e+57
          1877.59760	         6.96066e+57
          1878.40390	         6.58075e+57
          1879.21020	         6.35615e+57
          1880.01650	         7.15661e+57
          1880.82280	         8.88355e+57
          1881.62910	         8.23915e+57
          1882.43540	         1.01976e+58
          1883.24170	         8.40078e+57
          1884.04800	         6.60051e+57
          1884.85430	         7.34410e+57
          1885.66060	         8.46685e+57
          1886.46690	         8.96835e+57
          1887.27320	         8.94112e+57
          1888.07950	         8.11708e+57
          1888.88580	         7.94557e+57
          1889.69210	         7.80780e+57
          1890.49840	         8.13863e+57
          1891.30470	         7.11751e+57
          1892.11100	         8.39305e+57
          1892.91730	         9.10778e+57
          1893.72360	         9.02113e+57
          1894.52990	         7.56505e+57
          1895.33620	         8.85597e+57
          1896.14250	         7.54884e+57
          1896.94880	         5.78147e+57
          1897.75510	         4.62436e+57
          1898.56140	         6.43068e+57
          1899.36770	         7.89368e+57
          1900.17400	         7.03072e+57
          1900.98030	         7.03167e+57
          1901.78660	         6.43066e+57
          1902.59290	         7.42111e+57
          1903.39920	         8.95361e+57
          1904.20550	         8.91040e+57
          1905.01180	         9.38308e+57
          1905.81810	         1.02203e+58
          1906.62440	         1.28546e+58
          1907.43070	         1.43116e+58
          1908.23700	         1.68197e+58
          1909.04330	         1.34581e+58
          1909.84960	         1.19050e+58
          1910.65590	         9.83096e+57
          1911.46220	         8.79055e+57
          1912.26850	         7.52442e+57
          1913.07480	         6.73791e+57
          1913.88110	         6.23941e+57
          1914.68740	         6.02312e+57
          1915.49370	         5.46048e+57
          1916.30000	         7.11906e+57
          1917.10630	         7.27435e+57
          1917.91260	         6.52801e+57
          1918.71890	         6.55784e+57
          1919.52520	         6.40621e+57
          1920.33150	         5.23021e+57
          1921.13780	         7.29746e+57
          1921.94410	         7.86908e+57
          1922.75040	         7.98209e+57
          1923.55670	         8.63184e+57
          1924.36300	         8.15833e+57
          1925.16930	         6.55869e+57
          1925.97560	         6.28686e+57
          1926.78190	         5.74814e+57
          1927.58820	         6.13698e+57
          1928.39450	         6.17424e+57
          1929.20080	         4.89426e+57
          1930.00710	         5.10849e+57
          1930.81340	         6.22573e+57
          1931.61970	         6.76035e+57
          1932.42600	         7.91290e+57
          1933.23230	         8.70580e+57
          1934.03860	         7.33938e+57
          1934.84490	         5.61604e+57
          1935.65120	         8.41022e+57
          1936.45750	         9.19105e+57
          1937.26380	         7.61162e+57
          1938.07010	         9.14410e+57
          1938.87640	         8.59101e+57
          1939.68270	         8.15098e+57
          1940.48900	         8.37995e+57
          1941.29530	         8.83581e+57
          1942.10160	         9.05872e+57
          1942.90790	         7.82904e+57
          1943.71420	         5.80160e+57
          1944.52050	         5.27032e+57
          1945.32680	         5.30887e+57
          1946.13310	         7.02940e+57
          1946.93940	         8.26976e+57
          1947.74570	         7.70367e+57
          1948.55200	         7.24450e+57
          1949.35830	         6.58438e+57
          1950.16460	         6.43578e+57
          1950.97090	         7.46566e+57
          1951.77720	         7.76230e+57
          1952.58350	         7.78221e+57
          1953.38980	         7.01836e+57
          1954.19610	         4.63400e+57
          1955.00240	         5.50247e+57
          1955.80870	         6.67831e+57
          1956.61500	         5.26653e+57
          1957.42130	         5.86161e+57
          1958.22760	         7.82312e+57
          1959.03390	         8.72227e+57
          1959.84020	         8.45513e+57
          1960.64650	         7.62760e+57
          1961.45280	         7.00848e+57
          1962.25910	         5.88336e+57
          1963.06540	         6.18929e+57
          1963.87170	         7.63189e+57
          1964.67800	         7.75328e+57
          1965.48430	         7.46383e+57
          1966.29060	         7.44989e+57
          1967.09690	         7.84724e+57
          1967.90320	         7.67469e+57
          1968.70950	         6.89179e+57
          1969.51580	         5.48445e+57
          1970.32210	         7.06631e+57
          1971.12840	         8.06138e+57
          1971.93470	         4.96659e+57
          1972.74100	         4.78832e+57
          1973.54730	         6.18485e+57
          1974.35360	         7.56834e+57
          1975.15990	         9.22291e+57
          1975.96620	         7.66916e+57
          1976.77250	         8.10582e+57
          1977.57880	         7.99563e+57
          1978.38510	         6.59713e+57
          1979.19140	         7.48929e+57
          1979.99770	         8.45890e+57
          1980.80400	         7.59324e+57
          1981.61030	         6.61198e+57
          1982.41660	         5.40463e+57
          1983.22290	         6.31228e+57
          1984.02920	         6.20206e+57
          1984.83550	         5.56882e+57
          1985.64180	         6.28486e+57
          1986.44810	         7.33315e+57
          1987.25440	         6.40614e+57
          1988.06070	         5.57962e+57
          1988.86700	         6.45284e+57
          1989.67330	         6.57937e+57
          1990.47960	         5.86663e+57
          1991.28590	         6.10480e+57
          1992.09220	         6.30709e+57
          1992.89850	         6.73279e+57
          1993.70480	         6.35659e+57
          1994.51110	         5.20499e+57
          1995.31740	         4.13796e+57
          1996.12370	         5.53912e+57
          1996.93000	         6.74806e+57
          1997.73630	         7.05234e+57
          1998.54260	         7.13930e+57
          1999.34890	         6.62606e+57
          2000.15520	         7.09253e+57
          2000.96150	         6.55578e+57
          2001.76780	         6.63522e+57
          2002.57410	         4.22447e+57
          2003.38040	         5.86026e+57
          2004.18670	         6.95957e+57
          2004.99300	         7.44117e+57
          2005.79930	         7.59230e+57
          2006.60560	         7.12378e+57
          2007.41190	         5.99467e+57
          2008.21820	         7.56211e+57
          2009.02450	         7.20181e+57
          2009.83080	         7.18768e+57
          2010.63710	         6.20978e+57
          2011.44340	         6.93552e+57
          2012.24970	         6.80388e+57
          2013.05600	         6.91152e+57
          2013.86230	         6.95123e+57
          2014.66860	         6.05851e+57
          2015.47490	         6.49913e+57
          2016.28120	         5.62615e+57
          2017.08750	         6.08524e+57
          2017.89380	         7.36571e+57
          2018.70010	         6.27981e+57
          2019.50640	         6.20833e+57
          2020.31270	         7.15317e+57
          2021.11900	         7.71006e+57
          2021.92530	         7.52742e+57
          2022.73160	         7.96459e+57
          2023.53790	         8.42199e+57
          2024.34420	         7.44804e+57
          2025.15050	         5.56657e+57
          2025.95680	         5.27129e+57
          2026.76310	         6.12188e+57
          2027.56940	         5.73085e+57
          2028.37570	         7.16308e+57
          2029.18200	         6.46687e+57
          2029.98830	         6.67028e+57
          2030.79460	         6.94606e+57
          2031.60090	         6.78334e+57
          2032.40720	         6.25801e+57
          2033.21350	         6.26754e+57
          2034.01980	         5.29812e+57
          2034.82610	         3.67946e+57
          2035.63240	         5.05340e+57
          2036.43870	         6.31297e+57
          2037.24500	         5.87462e+57
          2038.05130	         7.23062e+57
          2038.85760	         6.55209e+57
          2039.66390	         6.11271e+57
          2040.47020	         4.54351e+57
          2041.27650	         5.94514e+57
          2042.08280	         6.58852e+57
          2042.88910	         6.64929e+57
          2043.69540	         6.38291e+57
          2044.50170	         5.91343e+57
          2045.30800	         4.43147e+57
          2046.11430	         4.55608e+57
          2046.92060	         4.35894e+57
          2047.72690	         5.68363e+57
          2048.53320	         6.24506e+57
          2049.33950	         4.61683e+57
          2050.14580	         5.97226e+57
          2050.95210	         6.48536e+57
          2051.75840	         6.44170e+57
          2052.56470	         5.52220e+57
          2053.37100	         4.50694e+57
          2054.17730	         4.30013e+57
          2054.98360	         5.07878e+57
          2055.78990	         2.59976e+57
          2056.59620	         3.25833e+57
          2057.40250	         4.40325e+57
          2058.20880	         7.22407e+57
          2059.01510	         7.35011e+57
          2059.82140	         5.98149e+57
          2060.62770	         8.91098e+57
          2061.43400	         1.72439e+58
          2062.24030	         1.11568e+58
          2063.04660	         1.72177e+57
          2063.85290	        -6.54890e+56
          2064.65920	        -3.16453e+57
          2065.46550	        -8.50770e+57
          2066.27180	        -7.60241e+57
          2067.07810	         9.68813e+56
          2067.88440	         5.38927e+57
          2068.69070	         6.17126e+57
          2069.49700	         5.72450e+57
          2070.30330	         4.76499e+57
          2071.10960	         7.16369e+57
          2071.91590	         7.66813e+57
          2072.72220	         4.66456e+57
          2073.52850	         4.85115e+57
          2074.33480	         5.75592e+57
          2075.14110	         5.25828e+57
          2075.94740	         5.14027e+57
          2076.75370	         5.57189e+57
          2077.56000	         4.34879e+57
          2078.36630	         5.44596e+57
          2079.17260	         4.08697e+57
          2079.97890	         4.43351e+57
          2080.78520	         6.24226e+57
          2081.59150	         5.39547e+57
          2082.39780	         4.45707e+57
          2083.20410	         3.18712e+57
          2084.01040	         2.45220e+57
          2084.81670	         2.16109e+57
          2085.62300	         1.81617e+57
          2086.42930	         3.27168e+57
          2087.23560	         2.11492e+57
          2088.04190	         1.72134e+57
          2088.84820	         3.57655e+57
          2089.65450	         3.41467e+57
          2090.46080	         2.15237e+57
          2091.26710	         2.17699e+57
          2092.07340	         2.87651e+57
          2092.87970	         2.57430e+57
          2093.68600	         3.61355e+56
          2094.49230	         1.61888e+56
          2095.29860	         6.17635e+57
          2096.10490	         1.80828e+57
          2096.91120	         9.94921e+56
          2097.71750	         1.94042e+57
          2098.52380	         2.25554e+56
          2099.33010	         2.12080e+57
          2100.13640	         9.83957e+56
          2100.94270	         6.45986e+56
          2101.74900	         3.09987e+57
          2102.55530	         2.16180e+57
          2103.36160	         1.54410e+57
          2104.16790	         3.72495e+57
          2104.97420	         1.85035e+57
          2105.78050	        -1.41940e+57
          2106.58680	        -8.89530e+56
          2107.39310	        -2.80698e+57
          2108.19940	         1.63075e+57
          2109.00570	        -1.19395e+57
          2109.81200	        -8.47975e+56
          2110.61830	         1.96191e+57
          2111.42460	         2.92603e+57
          2112.23090	         8.05919e+56
          2113.03720	        -1.17417e+57
          2113.84350	        -1.52281e+57
          2114.64980	         5.21436e+57
          2115.45610	        -2.34050e+57
          2116.26240	        -5.71652e+57
          2117.06870	        -3.82904e+57
          2117.87500	        -2.66738e+57
          2118.68130	         3.21247e+57
          2119.48760	         1.92271e+57
          2120.29390	        -1.71252e+57
          2121.10020	        -1.67671e+57
          2121.90650	        -4.45937e+57
          2122.71280	         6.88004e+55
          2123.51910	         3.60293e+57
          2124.32540	        -3.36717e+56
          2125.13170	        -4.54204e+55
          2125.93800	         3.96227e+57
          2126.74430	         4.00579e+57
          2127.55060	        -5.23310e+57
          2128.35690	        -2.05102e+57
          2129.16320	         7.16155e+57
          2129.96950	         5.33606e+56
          2130.77580	        -8.25907e+57
          2131.58210	        -3.72062e+57
          2132.38840	         3.61922e+56
          2133.19470	         5.72696e+56
          2134.00100	        -4.62014e+57
          2134.80730	        -1.07727e+58
          2135.61360	         3.77243e+57
          2136.41990	         2.22184e+55
          2137.22620	         9.47725e+56
          2138.03250	        -5.35898e+56
          2138.83880	        -4.74672e+56
          2139.64510	         1.63645e+57
          2140.45140	        -3.48347e+57
          2141.25770	        -9.53962e+57
          2142.06400	        -5.06056e+57
          2142.87030	         8.20437e+57
          2143.67660	         1.42253e+58
          2144.48290	         3.94465e+57
          2145.28920	         8.74932e+56
          2146.09550	        -7.11391e+57
          2146.90180	        -6.94139e+57
          2147.70810	        -1.03755e+58
          2148.51440	        -8.13976e+57
          2149.32070	        -6.41013e+57
          2150.12700	        -7.23411e+57
          2150.93330	        -4.73229e+57
          2151.73960	        -2.62505e+57
          2152.54590	        -8.70126e+57
          2153.35220	        -1.06191e+58
          2154.15850	        -6.41036e+57
          2154.96480	         1.88778e+56
          2155.77110	        -5.60758e+57
          2156.57740	        -1.74884e+57
          2157.38370	        -1.24197e+58
          2158.19000	         1.40763e+57
          2158.99630	         5.39454e+57
          2159.80260	        -9.14156e+57
          2160.60890	        -8.48681e+57
          2161.41520	         2.76765e+57
          2162.22150	         5.56024e+57
          2163.02780	        -1.33336e+57
          2163.83410	         1.34135e+56
          2164.64040	        -6.26045e+57
          2165.44670	        -1.34561e+58
          2166.25300	        -4.27928e+57
          2167.05930	         1.67420e+57
          2167.86560	        -1.14878e+58
          2168.67190	        -9.31233e+57
          2169.47820	        -1.60879e+58
          2170.28450	        -2.30630e+57
          2171.09080	        -1.24259e+57
          2171.89710	         7.80104e+56
          2172.70340	         4.30205e+57
          2173.50970	        -8.75433e+57
          2174.31600	        -2.76931e+57
          2175.12230	         2.44731e+56
          2175.92860	        -3.90743e+57
          2176.73490	        -2.72984e+57
          2177.54120	        -9.01390e+57
          2178.34750	        -3.63833e+57
          2179.15380	                 nan
          2179.96010	                 nan
          2180.76640	                 nan
          2181.57270	                 nan
          2182.37900	                 nan
          2183.18530	                 nan
          2183.99160	                 nan
          2184.79790	                 nan
          2185.60420	                 nan
          2186.41050	                 nan
          2187.21680	                 nan
          2188.02310	                 nan
          2188.82940	                 nan
          2189.63570	                 nan
          2190.44200	                 nan
          2191.24830	                 nan
          2192.05460	                 nan
          2192.86090	                 nan
          2193.66720	                 nan
          2194.47350	                 nan
          2195.27980	                 nan
          2196.08610	                 nan
          2196.89240	                 nan
          2197.69870	                 nan
          2198.50500	                 nan
          2199.31130	                 nan
          2200.11760	                 nan
          2200.92390	                 nan
          2201.73020	                 nan
          2202.53650	                 nan
          2203.34280	                 nan
          2204.14910	                 nan
          2204.95540	                 nan
          2205.76170	                 nan
          2206.56800	                 nan
          2207.37430	                 nan
          2208.18060	                 nan
          2208.98690	                 nan
          2209.79320	                 nan
          2210.59950	                 nan
          2211.40580	                 nan
          2212.21210	                 nan
          2213.01840	                 nan
          2213.82470	                 nan
          2214.63100	                 nan
          2215.43730	         0.00000e+00
