#sample_375_stacked_spectrum_rest_UV-bands_median_H-alpha_noDC.txt
#median Lum: 1.70091e+42
#Rest-frame wavelength (A) | Luminosity (erg/s/A)
#
          1110.00000	         0.00000e+00
          1110.80630	         2.24328e+59
          1111.61260	         3.28074e+59
          1112.41890	         4.10103e+58
          1113.22520	        -2.00817e+59
          1114.03150	        -2.18193e+59
          1114.83780	         3.48273e+58
          1115.64410	         2.36137e+59
          1116.45040	         8.78947e+58
          1117.25670	         5.03777e+57
          1118.06300	         7.55156e+58
          1118.86930	        -4.08885e+58
          1119.67560	         2.63126e+58
          1120.48190	        -8.97253e+57
          1121.28820	        -9.58025e+58
          1122.09450	         6.12875e+58
          1122.90080	         5.75241e+58
          1123.70710	         9.26115e+58
          1124.51340	         9.46008e+58
          1125.31970	         5.99680e+58
          1126.12600	         8.58600e+58
          1126.93230	        -4.01123e+57
          1127.73860	        -4.80406e+58
          1128.54490	         3.49923e+56
          1129.35120	         1.56011e+58
          1130.15750	        -6.13504e+57
          1130.96380	        -1.61667e+58
          1131.77010	         5.21283e+58
          1132.57640	         4.72431e+58
          1133.38270	         3.88268e+58
          1134.18900	         6.57584e+56
          1134.99530	        -1.68995e+58
          1135.80160	        -2.86959e+57
          1136.60790	         2.95189e+58
          1137.41420	         3.55062e+57
          1138.22050	         3.34326e+58
          1139.02680	         3.14940e+58
          1139.83310	         1.47534e+58
          1140.63940	         9.76601e+57
          1141.44570	         1.38533e+57
          1142.25200	        -1.93910e+57
          1143.05830	         1.62494e+58
          1143.86460	         7.86477e+57
          1144.67090	         8.96166e+57
          1145.47720	         1.31352e+58
          1146.28350	        -9.86523e+56
          1147.08980	         2.16899e+58
          1147.89610	         2.03959e+58
          1148.70240	         1.81450e+58
          1149.50870	         3.34584e+58
          1150.31500	         1.53329e+58
          1151.12130	         1.21128e+58
          1151.92760	         9.83170e+56
          1152.73390	        -4.61875e+57
          1153.54020	         4.51458e+57
          1154.34650	         2.25347e+58
          1155.15280	         1.97335e+58
          1155.95910	         1.54528e+58
          1156.76540	         9.06269e+57
          1157.57170	         2.96307e+57
          1158.37800	         8.31404e+57
          1159.18430	        -2.33260e+57
          1159.99060	         5.25801e+57
          1160.79690	         9.19373e+57
          1161.60320	         4.61672e+57
          1162.40950	         1.20210e+58
          1163.21580	         1.13698e+58
          1164.02210	         1.10036e+58
          1164.82840	         1.84197e+58
          1165.63470	         2.28588e+58
          1166.44100	         2.74646e+58
          1167.24730	         1.74238e+58
          1168.05360	         6.78505e+57
          1168.85990	         3.09146e+57
          1169.66620	         8.70598e+57
          1170.47250	         1.18930e+58
          1171.27880	         9.38918e+57
          1172.08510	         1.61284e+58
          1172.89140	         1.72942e+58
          1173.69770	         4.85995e+57
          1174.50400	         1.19578e+58
          1175.31030	         1.90105e+58
          1176.11660	         1.55082e+58
          1176.92290	         1.86453e+58
          1177.72920	         1.26234e+58
          1178.53550	         2.04246e+57
          1179.34180	         7.25233e+55
          1180.14810	         9.22017e+57
          1180.95440	         1.37683e+58
          1181.76070	         7.92223e+57
          1182.56700	         5.38746e+57
          1183.37330	         5.49315e+57
          1184.17960	         1.20632e+58
          1184.98590	         1.53031e+58
          1185.79220	         9.51089e+57
          1186.59850	         8.31450e+57
          1187.40480	         9.66902e+57
          1188.21110	         1.29304e+58
          1189.01740	         9.46097e+57
          1189.82370	         6.90268e+57
          1190.63000	         1.15189e+58
          1191.43630	         1.34403e+58
          1192.24260	         6.87912e+57
          1193.04890	         1.09932e+58
          1193.85520	         1.34941e+58
          1194.66150	         4.23962e+57
          1195.46780	         9.67354e+57
          1196.27410	         1.08937e+58
          1197.08040	         7.39016e+57
          1197.88670	         1.00993e+58
          1198.69300	         1.25724e+58
          1199.49930	         1.45647e+58
          1200.30560	         9.01413e+57
          1201.11190	         6.07899e+57
          1201.91820	         7.72962e+57
          1202.72450	         9.67005e+57
          1203.53080	         1.53065e+58
          1204.33710	         1.11597e+58
          1205.14340	         3.47040e+57
          1205.94970	         7.98970e+57
          1206.75600	         9.58379e+57
          1207.56230	         7.13226e+57
          1208.36860	         8.89696e+57
          1209.17490	         4.48671e+57
          1209.98120	         7.01702e+57
          1210.78750	         8.81404e+57
          1211.59380	         9.13083e+57
          1212.40010	         1.84938e+58
          1213.20640	         2.00108e+58
          1214.01270	         2.00513e+58
          1214.81900	         2.64105e+58
          1215.62530	         4.34184e+58
          1216.43160	         8.60126e+58
          1217.23790	         1.48084e+59
          1218.04420	         1.15205e+59
          1218.85050	         8.63737e+58
          1219.65680	         5.37158e+58
          1220.46310	         3.32276e+58
          1221.26940	         2.49271e+58
          1222.07570	         1.24334e+58
          1222.88200	         1.16865e+58
          1223.68830	         1.19569e+58
          1224.49460	         7.67482e+57
          1225.30090	         6.55793e+57
          1226.10720	         8.63890e+57
          1226.91350	         8.66383e+57
          1227.71980	         1.13560e+58
          1228.52610	         1.03112e+58
          1229.33240	         7.53801e+57
          1230.13870	         7.11464e+57
          1230.94500	         9.11138e+57
          1231.75130	         8.80298e+57
          1232.55760	         8.27539e+57
          1233.36390	         8.22342e+57
          1234.17020	         9.18762e+57
          1234.97650	         7.90948e+57
          1235.78280	         7.02202e+57
          1236.58910	         8.72594e+57
          1237.39540	         9.61228e+57
          1238.20170	         1.00449e+58
          1239.00800	         1.25258e+58
          1239.81430	         1.21405e+58
          1240.62060	         1.02340e+58
          1241.42690	         1.00956e+58
          1242.23320	         1.32259e+58
          1243.03950	         9.66634e+57
          1243.84580	         7.39470e+57
          1244.65210	         7.46107e+57
          1245.45840	         9.25095e+57
          1246.26470	         1.00369e+58
          1247.07100	         9.69594e+57
          1247.87730	         8.85151e+57
          1248.68360	         4.56292e+57
          1249.48990	         7.91208e+57
          1250.29620	         1.19328e+58
          1251.10250	         9.74887e+57
          1251.90880	         3.62326e+57
          1252.71510	         4.55736e+57
          1253.52140	         8.03262e+57
          1254.32770	         1.03458e+58
          1255.13400	         1.42490e+58
          1255.94030	         1.30781e+58
          1256.74660	         1.06247e+58
          1257.55290	         1.09965e+58
          1258.35920	         7.11922e+57
          1259.16550	         4.82941e+57
          1259.97180	         4.05389e+57
          1260.77810	         8.01483e+57
          1261.58440	         1.08886e+58
          1262.39070	         6.07231e+57
          1263.19700	         7.77151e+57
          1264.00330	         1.03069e+58
          1264.80960	         1.11293e+58
          1265.61590	         1.19659e+58
          1266.42220	         1.15780e+58
          1267.22850	         1.13062e+58
          1268.03480	         1.32682e+58
          1268.84110	         1.49413e+58
          1269.64740	         1.30350e+58
          1270.45370	         1.54451e+58
          1271.26000	         1.39227e+58
          1272.06630	         1.23034e+58
          1272.87260	         1.44320e+58
          1273.67890	         1.12705e+58
          1274.48520	         9.96624e+57
          1275.29150	         1.28533e+58
          1276.09780	         1.07990e+58
          1276.90410	         1.40442e+58
          1277.71040	         1.49680e+58
          1278.51670	         1.43978e+58
          1279.32300	         1.50284e+58
          1280.12930	         1.37998e+58
          1280.93560	         9.40573e+57
          1281.74190	         9.21339e+57
          1282.54820	         1.07911e+58
          1283.35450	         1.12871e+58
          1284.16080	         1.04362e+58
          1284.96710	         1.45668e+58
          1285.77340	         1.45281e+58
          1286.57970	         9.93142e+57
          1287.38600	         1.38552e+58
          1288.19230	         1.91678e+58
          1288.99860	         1.63076e+58
          1289.80490	         9.98392e+57
          1290.61120	         1.15266e+58
          1291.41750	         1.40022e+58
          1292.22380	         1.24732e+58
          1293.03010	         1.22416e+58
          1293.83640	         1.28702e+58
          1294.64270	         9.86412e+57
          1295.44900	         6.11794e+57
          1296.25530	         6.19719e+57
          1297.06160	         8.97228e+57
          1297.86790	         9.62381e+57
          1298.67420	         8.87996e+57
          1299.48050	         1.01607e+58
          1300.28680	         1.07177e+58
          1301.09310	         7.82760e+57
          1301.89940	         3.42445e+57
          1302.70570	         4.28115e+57
          1303.51200	         5.83953e+57
          1304.31830	         8.39166e+57
          1305.12460	         9.76579e+57
          1305.93090	         1.11220e+58
          1306.73720	         1.33552e+58
          1307.54350	         1.42034e+58
          1308.34980	         1.41408e+58
          1309.15610	         1.57182e+58
          1309.96240	         1.42767e+58
          1310.76870	         1.29694e+58
          1311.57500	         1.33867e+58
          1312.38130	         1.27553e+58
          1313.18760	         1.01991e+58
          1313.99390	         1.10359e+58
          1314.80020	         1.53259e+58
          1315.60650	         1.64823e+58
          1316.41280	         1.45619e+58
          1317.21910	         1.19945e+58
          1318.02540	         1.38228e+58
          1318.83170	         1.41502e+58
          1319.63800	         1.26014e+58
          1320.44430	         9.88496e+57
          1321.25060	         1.06799e+58
          1322.05690	         1.29296e+58
          1322.86320	         1.26033e+58
          1323.66950	         1.16001e+58
          1324.47580	         1.11947e+58
          1325.28210	         1.04181e+58
          1326.08840	         1.13586e+58
          1326.89470	         1.24622e+58
          1327.70100	         1.22226e+58
          1328.50730	         8.81744e+57
          1329.31360	         7.79940e+57
          1330.11990	         9.73453e+57
          1330.92620	         1.03766e+58
          1331.73250	         1.19964e+58
          1332.53880	         1.15012e+58
          1333.34510	         8.61832e+57
          1334.15140	         8.63113e+57
          1334.95770	         9.12439e+57
          1335.76400	         1.14527e+58
          1336.57030	         1.12581e+58
          1337.37660	         9.64518e+57
          1338.18290	         1.06683e+58
          1338.98920	         1.13825e+58
          1339.79550	         1.04118e+58
          1340.60180	         1.20064e+58
          1341.40810	         1.37106e+58
          1342.21440	         1.11060e+58
          1343.02070	         1.22731e+58
          1343.82700	         1.61638e+58
          1344.63330	         1.39625e+58
          1345.43960	         1.50390e+58
          1346.24590	         1.24345e+58
          1347.05220	         1.01556e+58
          1347.85850	         1.03540e+58
          1348.66480	         1.08137e+58
          1349.47110	         1.24440e+58
          1350.27740	         1.19963e+58
          1351.08370	         1.17251e+58
          1351.89000	         1.12276e+58
          1352.69630	         1.09107e+58
          1353.50260	         1.12761e+58
          1354.30890	         1.11123e+58
          1355.11520	         1.20289e+58
          1355.92150	         1.06037e+58
          1356.72780	         9.65305e+57
          1357.53410	         1.14199e+58
          1358.34040	         1.26251e+58
          1359.14670	         1.07862e+58
          1359.95300	         1.06681e+58
          1360.75930	         1.21342e+58
          1361.56560	         1.21233e+58
          1362.37190	         1.11350e+58
          1363.17820	         1.05559e+58
          1363.98450	         1.16310e+58
          1364.79080	         1.20718e+58
          1365.59710	         1.30022e+58
          1366.40340	         1.25383e+58
          1367.20970	         1.24164e+58
          1368.01600	         1.15097e+58
          1368.82230	         9.85357e+57
          1369.62860	         1.02248e+58
          1370.43490	         1.02300e+58
          1371.24120	         9.45468e+57
          1372.04750	         9.21532e+57
          1372.85380	         1.14067e+58
          1373.66010	         1.18325e+58
          1374.46640	         1.07984e+58
          1375.27270	         9.14771e+57
          1376.07900	         7.97557e+57
          1376.88530	         9.00454e+57
          1377.69160	         9.34356e+57
          1378.49790	         7.84044e+57
          1379.30420	         8.50744e+57
          1380.11050	         1.00037e+58
          1380.91680	         8.96787e+57
          1381.72310	         8.66373e+57
          1382.52940	         1.01539e+58
          1383.33570	         9.57163e+57
          1384.14200	         9.42882e+57
          1384.94830	         9.72394e+57
          1385.75460	         1.01475e+58
          1386.56090	         1.21764e+58
          1387.36720	         1.13436e+58
          1388.17350	         1.21145e+58
          1388.97980	         1.18788e+58
          1389.78610	         1.00336e+58
          1390.59240	         8.31152e+57
          1391.39870	         7.97060e+57
          1392.20500	         8.73102e+57
          1393.01130	         9.49413e+57
          1393.81760	         8.42113e+57
          1394.62390	         5.75390e+57
          1395.43020	         5.59327e+57
          1396.23650	         7.27374e+57
          1397.04280	         8.85686e+57
          1397.84910	         9.19905e+57
          1398.65540	         8.21259e+57
          1399.46170	         8.96953e+57
          1400.26800	         7.97870e+57
          1401.07430	         7.32668e+57
          1401.88060	         7.69930e+57
          1402.68690	         9.34392e+57
          1403.49320	         1.01254e+58
          1404.29950	         9.75669e+57
          1405.10580	         1.12796e+58
          1405.91210	         1.09830e+58
          1406.71840	         1.05418e+58
          1407.52470	         1.03569e+58
          1408.33100	         9.39899e+57
          1409.13730	         1.04308e+58
          1409.94360	         1.26849e+58
          1410.74990	         1.26227e+58
          1411.55620	         9.77280e+57
          1412.36250	         8.60114e+57
          1413.16880	         9.00460e+57
          1413.97510	         8.55625e+57
          1414.78140	         8.36036e+57
          1415.58770	         1.03279e+58
          1416.39400	         1.17183e+58
          1417.20030	         1.17034e+58
          1418.00660	         1.01778e+58
          1418.81290	         1.08212e+58
          1419.61920	         1.15757e+58
          1420.42550	         1.35141e+58
          1421.23180	         1.33328e+58
          1422.03810	         1.15837e+58
          1422.84440	         1.06250e+58
          1423.65070	         1.18895e+58
          1424.45700	         1.12914e+58
          1425.26330	         9.16152e+57
          1426.06960	         9.11184e+57
          1426.87590	         1.06187e+58
          1427.68220	         1.04270e+58
          1428.48850	         1.04251e+58
          1429.29480	         1.02387e+58
          1430.10110	         1.00446e+58
          1430.90740	         9.39610e+57
          1431.71370	         9.11549e+57
          1432.52000	         9.01050e+57
          1433.32630	         8.18867e+57
          1434.13260	         7.62818e+57
          1434.93890	         7.23445e+57
          1435.74520	         8.75539e+57
          1436.55150	         1.00753e+58
          1437.35780	         9.43607e+57
          1438.16410	         9.62068e+57
          1438.97040	         8.43739e+57
          1439.77670	         8.41820e+57
          1440.58300	         9.61569e+57
          1441.38930	         9.39255e+57
          1442.19560	         8.64836e+57
          1443.00190	         8.27123e+57
          1443.80820	         9.80222e+57
          1444.61450	         1.00362e+58
          1445.42080	         1.00909e+58
          1446.22710	         1.13848e+58
          1447.03340	         1.01180e+58
          1447.83970	         1.08945e+58
          1448.64600	         1.08656e+58
          1449.45230	         9.78445e+57
          1450.25860	         1.07162e+58
          1451.06490	         9.19464e+57
          1451.87120	         8.26292e+57
          1452.67750	         8.39348e+57
          1453.48380	         8.95162e+57
          1454.29010	         7.86425e+57
          1455.09640	         7.49323e+57
          1455.90270	         9.29787e+57
          1456.70900	         1.04957e+58
          1457.51530	         1.09086e+58
          1458.32160	         1.22748e+58
          1459.12790	         1.09187e+58
          1459.93420	         8.90249e+57
          1460.74050	         9.08182e+57
          1461.54680	         8.21097e+57
          1462.35310	         7.00188e+57
          1463.15940	         8.11089e+57
          1463.96570	         1.15791e+58
          1464.77200	         1.24868e+58
          1465.57830	         1.05775e+58
          1466.38460	         8.66328e+57
          1467.19090	         8.26062e+57
          1467.99720	         9.01976e+57
          1468.80350	         9.80063e+57
          1469.60980	         9.46834e+57
          1470.41610	         9.69109e+57
          1471.22240	         8.08706e+57
          1472.02870	         8.33317e+57
          1472.83500	         9.53836e+57
          1473.64130	         9.77168e+57
          1474.44760	         9.08929e+57
          1475.25390	         8.93502e+57
          1476.06020	         9.64438e+57
          1476.86650	         8.70788e+57
          1477.67280	         7.64686e+57
          1478.47910	         7.35302e+57
          1479.28540	         6.37866e+57
          1480.09170	         7.55674e+57
          1480.89800	         8.68535e+57
          1481.70430	         8.64700e+57
          1482.51060	         7.97261e+57
          1483.31690	         6.75385e+57
          1484.12320	         7.41088e+57
          1484.92950	         7.36181e+57
          1485.73580	         7.78233e+57
          1486.54210	         8.32424e+57
          1487.34840	         9.34703e+57
          1488.15470	         9.11355e+57
          1488.96100	         9.32391e+57
          1489.76730	         8.93374e+57
          1490.57360	         7.67901e+57
          1491.37990	         7.33128e+57
          1492.18620	         8.37291e+57
          1492.99250	         8.50206e+57
          1493.79880	         8.10450e+57
          1494.60510	         8.40893e+57
          1495.41140	         6.84727e+57
          1496.21770	         7.57879e+57
          1497.02400	         9.57721e+57
          1497.83030	         9.22999e+57
          1498.63660	         7.74164e+57
          1499.44290	         7.15509e+57
          1500.24920	         7.33648e+57
          1501.05550	         7.41159e+57
          1501.86180	         8.86607e+57
          1502.66810	         9.43016e+57
          1503.47440	         7.87555e+57
          1504.28070	         8.32597e+57
          1505.08700	         1.01378e+58
          1505.89330	         9.61667e+57
          1506.69960	         8.95393e+57
          1507.50590	         8.17307e+57
          1508.31220	         8.32267e+57
          1509.11850	         9.56071e+57
          1509.92480	         9.16139e+57
          1510.73110	         7.66794e+57
          1511.53740	         6.59605e+57
          1512.34370	         6.83865e+57
          1513.15000	         8.38123e+57
          1513.95630	         9.54638e+57
          1514.76260	         9.26542e+57
          1515.56890	         7.60791e+57
          1516.37520	         8.30122e+57
          1517.18150	         8.46716e+57
          1517.98780	         7.01938e+57
          1518.79410	         7.42446e+57
          1519.60040	         8.12691e+57
          1520.40670	         9.84553e+57
          1521.21300	         9.18020e+57
          1522.01930	         8.34074e+57
          1522.82560	         9.07383e+57
          1523.63190	         1.02421e+58
          1524.43820	         9.46665e+57
          1525.24450	         7.08816e+57
          1526.05080	         6.37807e+57
          1526.85710	         5.81129e+57
          1527.66340	         6.83639e+57
          1528.46970	         8.53532e+57
          1529.27600	         7.76613e+57
          1530.08230	         7.17639e+57
          1530.88860	         8.30444e+57
          1531.69490	         8.14154e+57
          1532.50120	         9.06321e+57
          1533.30750	         9.36230e+57
          1534.11380	         8.93153e+57
          1534.92010	         8.78557e+57
          1535.72640	         8.88313e+57
          1536.53270	         8.89912e+57
          1537.33900	         7.01729e+57
          1538.14530	         7.73695e+57
          1538.95160	         9.29323e+57
          1539.75790	         8.71022e+57
          1540.56420	         8.67238e+57
          1541.37050	         8.63726e+57
          1542.17680	         7.91940e+57
          1542.98310	         7.53735e+57
          1543.78940	         7.45766e+57
          1544.59570	         6.86839e+57
          1545.40200	         7.53034e+57
          1546.20830	         9.11475e+57
          1547.01460	         1.18892e+58
          1547.82090	         1.12968e+58
          1548.62720	         1.18007e+58
          1549.43350	         1.25159e+58
          1550.23980	         1.09181e+58
          1551.04610	         1.16724e+58
          1551.85240	         1.10770e+58
          1552.65870	         1.11942e+58
          1553.46500	         1.03465e+58
          1554.27130	         1.00841e+58
          1555.07760	         1.04259e+58
          1555.88390	         9.31419e+57
          1556.69020	         8.71054e+57
          1557.49650	         8.93237e+57
          1558.30280	         8.28454e+57
          1559.10910	         7.96876e+57
          1559.91540	         8.76744e+57
          1560.72170	         8.76001e+57
          1561.52800	         8.04826e+57
          1562.33430	         8.71909e+57
          1563.14060	         8.47604e+57
          1563.94690	         8.21975e+57
          1564.75320	         7.98447e+57
          1565.55950	         6.30455e+57
          1566.36580	         7.26414e+57
          1567.17210	         9.61857e+57
          1567.97840	         9.26444e+57
          1568.78470	         8.15741e+57
          1569.59100	         8.63801e+57
          1570.39730	         9.18072e+57
          1571.20360	         7.87593e+57
          1572.00990	         8.14784e+57
          1572.81620	         8.88628e+57
          1573.62250	         1.00420e+58
          1574.42880	         9.61778e+57
          1575.23510	         7.74232e+57
          1576.04140	         8.10734e+57
          1576.84770	         9.07080e+57
          1577.65400	         8.71530e+57
          1578.46030	         9.95209e+57
          1579.26660	         1.07080e+58
          1580.07290	         8.48424e+57
          1580.87920	         7.00723e+57
          1581.68550	         8.10275e+57
          1582.49180	         8.32993e+57
          1583.29810	         7.67267e+57
          1584.10440	         8.25370e+57
          1584.91070	         8.10274e+57
          1585.71700	         8.11158e+57
          1586.52330	         9.12410e+57
          1587.32960	         9.04594e+57
          1588.13590	         9.17148e+57
          1588.94220	         8.89468e+57
          1589.74850	         8.70837e+57
          1590.55480	         9.39820e+57
          1591.36110	         8.52297e+57
          1592.16740	         8.22386e+57
          1592.97370	         8.02535e+57
          1593.78000	         8.58357e+57
          1594.58630	         9.85701e+57
          1595.39260	         9.37080e+57
          1596.19890	         9.18740e+57
          1597.00520	         9.55685e+57
          1597.81150	         9.05522e+57
          1598.61780	         8.52645e+57
          1599.42410	         7.28866e+57
          1600.23040	         6.52722e+57
          1601.03670	         7.68987e+57
          1601.84300	         8.25703e+57
          1602.64930	         8.33790e+57
          1603.45560	         8.32785e+57
          1604.26190	         8.13266e+57
          1605.06820	         7.94465e+57
          1605.87450	         6.89858e+57
          1606.68080	         6.76599e+57
          1607.48710	         5.82474e+57
          1608.29340	         5.39136e+57
          1609.09970	         6.34408e+57
          1609.90600	         6.99149e+57
          1610.71230	         6.46293e+57
          1611.51860	         6.55183e+57
          1612.32490	         7.12968e+57
          1613.13120	         7.95019e+57
          1613.93750	         8.28513e+57
          1614.74380	         8.27945e+57
          1615.55010	         8.54314e+57
          1616.35640	         9.60552e+57
          1617.16270	         1.03095e+58
          1617.96900	         9.86915e+57
          1618.77530	         9.14260e+57
          1619.58160	         8.81010e+57
          1620.38790	         9.32747e+57
          1621.19420	         9.80833e+57
          1622.00050	         8.28053e+57
          1622.80680	         8.32620e+57
          1623.61310	         8.99640e+57
          1624.41940	         7.79313e+57
          1625.22570	         8.49832e+57
          1626.03200	         9.18055e+57
          1626.83830	         8.74614e+57
          1627.64460	         8.05429e+57
          1628.45090	         7.62442e+57
          1629.25720	         8.98898e+57
          1630.06350	         9.39182e+57
          1630.86980	         6.33352e+57
          1631.67610	         6.94778e+57
          1632.48240	         9.07459e+57
          1633.28870	         8.87056e+57
          1634.09500	         9.71345e+57
          1634.90130	         1.12971e+58
          1635.70760	         1.02039e+58
          1636.51390	         9.26416e+57
          1637.32020	         8.47942e+57
          1638.12650	         8.50814e+57
          1638.93280	         8.86953e+57
          1639.73910	         9.10515e+57
          1640.54540	         9.24980e+57
          1641.35170	         8.56435e+57
          1642.15800	         9.05344e+57
          1642.96430	         8.05332e+57
          1643.77060	         7.50948e+57
          1644.57690	         7.62073e+57
          1645.38320	         7.74733e+57
          1646.18950	         7.28805e+57
          1646.99580	         8.80615e+57
          1647.80210	         8.12603e+57
          1648.60840	         7.49284e+57
          1649.41470	         7.83049e+57
          1650.22100	         7.42103e+57
          1651.02730	         7.18724e+57
          1651.83360	         6.97789e+57
          1652.63990	         7.38990e+57
          1653.44620	         8.21734e+57
          1654.25250	         7.24366e+57
          1655.05880	         6.14645e+57
          1655.86510	         7.76917e+57
          1656.67140	         8.59008e+57
          1657.47770	         7.87466e+57
          1658.28400	         7.79968e+57
          1659.09030	         8.47000e+57
          1659.89660	         8.84612e+57
          1660.70290	         9.92926e+57
          1661.50920	         9.19657e+57
          1662.31550	         8.48276e+57
          1663.12180	         8.72847e+57
          1663.92810	         9.78889e+57
          1664.73440	         1.10696e+58
          1665.54070	         1.25093e+58
          1666.34700	         1.32704e+58
          1667.15330	         1.21448e+58
          1667.95960	         8.95382e+57
          1668.76590	         6.85850e+57
          1669.57220	         6.76547e+57
          1670.37850	         7.79449e+57
          1671.18480	         8.10234e+57
          1671.99110	         7.63313e+57
          1672.79740	         8.04316e+57
          1673.60370	         7.07617e+57
          1674.41000	         6.79379e+57
          1675.21630	         7.54209e+57
          1676.02260	         7.55628e+57
          1676.82890	         7.29288e+57
          1677.63520	         6.88958e+57
          1678.44150	         8.10290e+57
          1679.24780	         9.47614e+57
          1680.05410	         7.48189e+57
          1680.86040	         5.62699e+57
          1681.66670	         6.75852e+57
          1682.47300	         7.35505e+57
          1683.27930	         8.78326e+57
          1684.08560	         1.00317e+58
          1684.89190	         8.78374e+57
          1685.69820	         5.70641e+57
          1686.50450	         4.33294e+57
          1687.31080	         5.84414e+57
          1688.11710	         7.02392e+57
          1688.92340	         6.40499e+57
          1689.72970	         5.98378e+57
          1690.53600	         6.53083e+57
          1691.34230	         7.81974e+57
          1692.14860	         8.98055e+57
          1692.95490	         7.83135e+57
          1693.76120	         6.67993e+57
          1694.56750	         6.61874e+57
          1695.37380	         8.45037e+57
          1696.18010	         9.25654e+57
          1696.98640	         8.45165e+57
          1697.79270	         8.02976e+57
          1698.59900	         8.33455e+57
          1699.40530	         8.03842e+57
          1700.21160	         7.31015e+57
          1701.01790	         8.19387e+57
          1701.82420	         6.79629e+57
          1702.63050	         7.34255e+57
          1703.43680	         7.94344e+57
          1704.24310	         7.59880e+57
          1705.04940	         7.77493e+57
          1705.85570	         8.44959e+57
          1706.66200	         8.49881e+57
          1707.46830	         7.65928e+57
          1708.27460	         6.99441e+57
          1709.08090	         6.44849e+57
          1709.88720	         6.08393e+57
          1710.69350	         6.49453e+57
          1711.49980	         6.50915e+57
          1712.30610	         7.97747e+57
          1713.11240	         8.95914e+57
          1713.91870	         7.18751e+57
          1714.72500	         7.50619e+57
          1715.53130	         8.76507e+57
          1716.33760	         8.30155e+57
          1717.14390	         7.77505e+57
          1717.95020	         8.95525e+57
          1718.75650	         8.89352e+57
          1719.56280	         8.15102e+57
          1720.36910	         6.99763e+57
          1721.17540	         7.42605e+57
          1721.98170	         7.01624e+57
          1722.78800	         7.29912e+57
          1723.59430	         7.17946e+57
          1724.40060	         8.24113e+57
          1725.20690	         8.72602e+57
          1726.01320	         7.31374e+57
          1726.81950	         7.20167e+57
          1727.62580	         7.61006e+57
          1728.43210	         7.14745e+57
          1729.23840	         7.49804e+57
          1730.04470	         8.17168e+57
          1730.85100	         8.58499e+57
          1731.65730	         8.42648e+57
          1732.46360	         7.67698e+57
          1733.26990	         7.31113e+57
          1734.07620	         7.32872e+57
          1734.88250	         7.62720e+57
          1735.68880	         8.21118e+57
          1736.49510	         7.70743e+57
          1737.30140	         7.02471e+57
          1738.10770	         6.35313e+57
          1738.91400	         7.30002e+57
          1739.72030	         7.51068e+57
          1740.52660	         6.49482e+57
          1741.33290	         5.90025e+57
          1742.13920	         5.89062e+57
          1742.94550	         6.40239e+57
          1743.75180	         6.26152e+57
          1744.55810	         7.26811e+57
          1745.36440	         7.80247e+57
          1746.17070	         6.20002e+57
          1746.97700	         5.33805e+57
          1747.78330	         6.41036e+57
          1748.58960	         6.97600e+57
          1749.39590	         7.25405e+57
          1750.20220	         6.74020e+57
          1751.00850	         6.32713e+57
          1751.81480	         6.76476e+57
          1752.62110	         7.72664e+57
          1753.42740	         8.09721e+57
          1754.23370	         7.11437e+57
          1755.04000	         8.00998e+57
          1755.84630	         6.94294e+57
          1756.65260	         7.81631e+57
          1757.45890	         9.10446e+57
          1758.26520	         7.38472e+57
          1759.07150	         8.85383e+57
          1759.87780	         8.47172e+57
          1760.68410	         8.10077e+57
          1761.49040	         8.68403e+57
          1762.29670	         6.43298e+57
          1763.10300	         6.77379e+57
          1763.90930	         7.39905e+57
          1764.71560	         8.02969e+57
          1765.52190	         7.92323e+57
          1766.32820	         8.10590e+57
          1767.13450	         7.87598e+57
          1767.94080	         6.34900e+57
          1768.74710	         6.31161e+57
          1769.55340	         6.89563e+57
          1770.35970	         7.00923e+57
          1771.16600	         7.29414e+57
          1771.97230	         7.84236e+57
          1772.77860	         8.44811e+57
          1773.58490	         7.89441e+57
          1774.39120	         6.15159e+57
          1775.19750	         6.43287e+57
          1776.00380	         6.42312e+57
          1776.81010	         6.00123e+57
          1777.61640	         6.41767e+57
          1778.42270	         7.12903e+57
          1779.22900	         6.72655e+57
          1780.03530	         6.18864e+57
          1780.84160	         7.32929e+57
          1781.64790	         8.26949e+57
          1782.45420	         7.18830e+57
          1783.26050	         6.76026e+57
          1784.06680	         7.51498e+57
          1784.87310	         7.79333e+57
          1785.67940	         7.86797e+57
          1786.48570	         7.60271e+57
          1787.29200	         6.97828e+57
          1788.09830	         5.62597e+57
          1788.90460	         4.72640e+57
          1789.71090	         5.86706e+57
          1790.51720	         5.00974e+57
          1791.32350	         5.83407e+57
          1792.12980	         7.32105e+57
          1792.93610	         7.48610e+57
          1793.74240	         7.03740e+57
          1794.54870	         8.48299e+57
          1795.35500	         9.50365e+57
          1796.16130	         8.69260e+57
          1796.96760	         7.24923e+57
          1797.77390	         7.39479e+57
          1798.58020	         8.31658e+57
          1799.38650	         7.73253e+57
          1800.19280	         7.08010e+57
          1800.99910	         7.62630e+57
          1801.80540	         7.65291e+57
          1802.61170	         8.18975e+57
          1803.41800	         8.78338e+57
          1804.22430	         7.43114e+57
          1805.03060	         7.01575e+57
          1805.83690	         7.99527e+57
          1806.64320	         8.60631e+57
          1807.44950	         8.14650e+57
          1808.25580	         6.87466e+57
          1809.06210	         7.89438e+57
          1809.86840	         7.30824e+57
          1810.67470	         8.25976e+57
          1811.48100	         9.22222e+57
          1812.28730	         9.22298e+57
          1813.09360	         8.47122e+57
          1813.89990	         7.09304e+57
          1814.70620	         7.64255e+57
          1815.51250	         8.21556e+57
          1816.31880	         8.26192e+57
          1817.12510	         7.02072e+57
          1817.93140	         5.66065e+57
          1818.73770	         5.91008e+57
          1819.54400	         7.75713e+57
          1820.35030	         7.97982e+57
          1821.15660	         5.97139e+57
          1821.96290	         5.69978e+57
          1822.76920	         6.98430e+57
          1823.57550	         7.07493e+57
          1824.38180	         6.48505e+57
          1825.18810	         7.21436e+57
          1825.99440	         8.17780e+57
          1826.80070	         8.26193e+57
          1827.60700	         6.39049e+57
          1828.41330	         5.21212e+57
          1829.21960	         6.47912e+57
          1830.02590	         7.17845e+57
          1830.83220	         7.99309e+57
          1831.63850	         8.30156e+57
          1832.44480	         7.59074e+57
          1833.25110	         8.41574e+57
          1834.05740	         8.88856e+57
          1834.86370	         8.04128e+57
          1835.67000	         6.83221e+57
          1836.47630	         7.69094e+57
          1837.28260	         9.15459e+57
          1838.08890	         8.60338e+57
          1838.89520	         7.53464e+57
          1839.70150	         7.10668e+57
          1840.50780	         7.13646e+57
          1841.31410	         7.63059e+57
          1842.12040	         7.22392e+57
          1842.92670	         6.19771e+57
          1843.73300	         6.58595e+57
          1844.53930	         7.26267e+57
          1845.34560	         6.87349e+57
          1846.15190	         6.62164e+57
          1846.95820	         7.25787e+57
          1847.76450	         6.91415e+57
          1848.57080	         5.69364e+57
          1849.37710	         6.51879e+57
          1850.18340	         6.96104e+57
          1850.98970	         8.34192e+57
          1851.79600	         8.40736e+57
          1852.60230	         6.31423e+57
          1853.40860	         6.37006e+57
          1854.21490	         7.09513e+57
          1855.02120	         6.93223e+57
          1855.82750	         5.42208e+57
          1856.63380	         5.34388e+57
          1857.44010	         6.81385e+57
          1858.24640	         6.50752e+57
          1859.05270	         7.15461e+57
          1859.85900	         7.32248e+57
          1860.66530	         7.16758e+57
          1861.47160	         7.72401e+57
          1862.27790	         7.19955e+57
          1863.08420	         6.70234e+57
          1863.89050	         8.29641e+57
          1864.69680	         7.84285e+57
          1865.50310	         7.86091e+57
          1866.30940	         6.75026e+57
          1867.11570	         6.93717e+57
          1867.92200	         7.48748e+57
          1868.72830	         7.31269e+57
          1869.53460	         6.79295e+57
          1870.34090	         7.01861e+57
          1871.14720	         7.46744e+57
          1871.95350	         7.11246e+57
          1872.75980	         7.46188e+57
          1873.56610	         6.82955e+57
          1874.37240	         6.15774e+57
          1875.17870	         6.01059e+57
          1875.98500	         7.09899e+57
          1876.79130	         7.20645e+57
          1877.59760	         7.09165e+57
          1878.40390	         7.29461e+57
          1879.21020	         6.35081e+57
          1880.01650	         7.13376e+57
          1880.82280	         7.98868e+57
          1881.62910	         8.61746e+57
          1882.43540	         9.11102e+57
          1883.24170	         8.53049e+57
          1884.04800	         7.17665e+57
          1884.85430	         7.98935e+57
          1885.66060	         8.91506e+57
          1886.46690	         8.13526e+57
          1887.27320	         7.52393e+57
          1888.07950	         6.79159e+57
          1888.88580	         6.77496e+57
          1889.69210	         8.78095e+57
          1890.49840	         8.38769e+57
          1891.30470	         8.22637e+57
          1892.11100	         9.18731e+57
          1892.91730	         8.81331e+57
          1893.72360	         8.28076e+57
          1894.52990	         7.37327e+57
          1895.33620	         7.52664e+57
          1896.14250	         6.74412e+57
          1896.94880	         7.62717e+57
          1897.75510	         6.08728e+57
          1898.56140	         6.85242e+57
          1899.36770	         7.76721e+57
          1900.17400	         6.78321e+57
          1900.98030	         6.60245e+57
          1901.78660	         7.28058e+57
          1902.59290	         7.11792e+57
          1903.39920	         8.55021e+57
          1904.20550	         9.62740e+57
          1905.01180	         9.83162e+57
          1905.81810	         1.00757e+58
          1906.62440	         1.30651e+58
          1907.43070	         1.60049e+58
          1908.23700	         1.52637e+58
          1909.04330	         1.25167e+58
          1909.84960	         1.10163e+58
          1910.65590	         1.02410e+58
          1911.46220	         9.98514e+57
          1912.26850	         8.26743e+57
          1913.07480	         6.07785e+57
          1913.88110	         5.93934e+57
          1914.68740	         6.14848e+57
          1915.49370	         6.71661e+57
          1916.30000	         6.36081e+57
          1917.10630	         6.69630e+57
          1917.91260	         7.40825e+57
          1918.71890	         6.10803e+57
          1919.52520	         5.23780e+57
          1920.33150	         5.69749e+57
          1921.13780	         7.15200e+57
          1921.94410	         8.02933e+57
          1922.75040	         8.11942e+57
          1923.55670	         7.45984e+57
          1924.36300	         7.24904e+57
          1925.16930	         5.17011e+57
          1925.97560	         5.75622e+57
          1926.78190	         4.97350e+57
          1927.58820	         5.86813e+57
          1928.39450	         5.71487e+57
          1929.20080	         5.22262e+57
          1930.00710	         6.16029e+57
          1930.81340	         7.49818e+57
          1931.61970	         5.52141e+57
          1932.42600	         7.02810e+57
          1933.23230	         9.15243e+57
          1934.03860	         8.78184e+57
          1934.84490	         7.40160e+57
          1935.65120	         7.31454e+57
          1936.45750	         8.15814e+57
          1937.26380	         8.12228e+57
          1938.07010	         9.08152e+57
          1938.87640	         7.58149e+57
          1939.68270	         6.98992e+57
          1940.48900	         8.88633e+57
          1941.29530	         8.90599e+57
          1942.10160	         7.02994e+57
          1942.90790	         5.66094e+57
          1943.71420	         5.91651e+57
          1944.52050	         6.04415e+57
          1945.32680	         5.60527e+57
          1946.13310	         6.37806e+57
          1946.93940	         7.99933e+57
          1947.74570	         6.48789e+57
          1948.55200	         6.64410e+57
          1949.35830	         6.99968e+57
          1950.16460	         6.70485e+57
          1950.97090	         6.96181e+57
          1951.77720	         6.15335e+57
          1952.58350	         7.31852e+57
          1953.38980	         7.01902e+57
          1954.19610	         5.10520e+57
          1955.00240	         5.34746e+57
          1955.80870	         5.42418e+57
          1956.61500	         5.81057e+57
          1957.42130	         5.64387e+57
          1958.22760	         7.78433e+57
          1959.03390	         7.87035e+57
          1959.84020	         7.29398e+57
          1960.64650	         6.66416e+57
          1961.45280	         6.53818e+57
          1962.25910	         5.92570e+57
          1963.06540	         6.43030e+57
          1963.87170	         6.37959e+57
          1964.67800	         7.21179e+57
          1965.48430	         6.89750e+57
          1966.29060	         7.86746e+57
          1967.09690	         7.45571e+57
          1967.90320	         5.87450e+57
          1968.70950	         6.45140e+57
          1969.51580	         6.99680e+57
          1970.32210	         7.01713e+57
          1971.12840	         8.01104e+57
          1971.93470	         7.26499e+57
          1972.74100	         6.01365e+57
          1973.54730	         6.38214e+57
          1974.35360	         7.29939e+57
          1975.15990	         7.64818e+57
          1975.96620	         7.48267e+57
          1976.77250	         7.69934e+57
          1977.57880	         7.46200e+57
          1978.38510	         5.97918e+57
          1979.19140	         6.79051e+57
          1979.99770	         8.65507e+57
          1980.80400	         7.98544e+57
          1981.61030	         6.59297e+57
          1982.41660	         5.47605e+57
          1983.22290	         6.08943e+57
          1984.02920	         6.64849e+57
          1984.83550	         6.41960e+57
          1985.64180	         6.52314e+57
          1986.44810	         6.79025e+57
          1987.25440	         5.78624e+57
          1988.06070	         6.20886e+57
          1988.86700	         5.81797e+57
          1989.67330	         7.01035e+57
          1990.47960	         6.56983e+57
          1991.28590	         6.82310e+57
          1992.09220	         6.79934e+57
          1992.89850	         6.03627e+57
          1993.70480	         5.66701e+57
          1994.51110	         4.78578e+57
          1995.31740	         4.82552e+57
          1996.12370	         5.26298e+57
          1996.93000	         6.55679e+57
          1997.73630	         7.96970e+57
          1998.54260	         8.18856e+57
          1999.34890	         6.63072e+57
          2000.15520	         5.74472e+57
          2000.96150	         6.51445e+57
          2001.76780	         5.78240e+57
          2002.57410	         5.30474e+57
          2003.38040	         4.92675e+57
          2004.18670	         5.28134e+57
          2004.99300	         6.00925e+57
          2005.79930	         6.25160e+57
          2006.60560	         6.72674e+57
          2007.41190	         5.81104e+57
          2008.21820	         6.33071e+57
          2009.02450	         7.13571e+57
          2009.83080	         6.97127e+57
          2010.63710	         7.58614e+57
          2011.44340	         7.36219e+57
          2012.24970	         6.87007e+57
          2013.05600	         7.03019e+57
          2013.86230	         6.43254e+57
          2014.66860	         4.51038e+57
          2015.47490	         5.90437e+57
          2016.28120	         5.71046e+57
          2017.08750	         6.11811e+57
          2017.89380	         6.46769e+57
          2018.70010	         5.95160e+57
          2019.50640	         5.51782e+57
          2020.31270	         6.23051e+57
          2021.11900	         7.36689e+57
          2021.92530	         7.19272e+57
          2022.73160	         7.75601e+57
          2023.53790	         7.80535e+57
          2024.34420	         6.06317e+57
          2025.15050	         5.25285e+57
          2025.95680	         5.26968e+57
          2026.76310	         6.99137e+57
          2027.56940	         7.84414e+57
          2028.37570	         7.81387e+57
          2029.18200	         6.67281e+57
          2029.98830	         6.00873e+57
          2030.79460	         6.49465e+57
          2031.60090	         6.09158e+57
          2032.40720	         6.50636e+57
          2033.21350	         5.80725e+57
          2034.01980	         5.04645e+57
          2034.82610	         4.57401e+57
          2035.63240	         5.18417e+57
          2036.43870	         5.93542e+57
          2037.24500	         6.92924e+57
          2038.05130	         6.93659e+57
          2038.85760	         5.63369e+57
          2039.66390	         5.43193e+57
          2040.47020	         5.85537e+57
          2041.27650	         5.76975e+57
          2042.08280	         5.01738e+57
          2042.88910	         4.83165e+57
          2043.69540	         5.58933e+57
          2044.50170	         5.68893e+57
          2045.30800	         4.17000e+57
          2046.11430	         3.38378e+57
          2046.92060	         4.82361e+57
          2047.72690	         7.26559e+57
          2048.53320	         4.19112e+57
          2049.33950	         4.98488e+57
          2050.14580	         6.12343e+57
          2050.95210	         7.57969e+57
          2051.75840	         8.67716e+57
          2052.56470	         4.75466e+57
          2053.37100	         4.13286e+57
          2054.17730	         4.52901e+57
          2054.98360	         4.34128e+57
          2055.78990	         3.92507e+57
          2056.59620	         3.58287e+57
          2057.40250	         3.82147e+57
          2058.20880	         5.74723e+57
          2059.01510	         6.89209e+57
          2059.82140	         7.82401e+57
          2060.62770	         1.05311e+58
          2061.43400	         1.32498e+58
          2062.24030	         1.05345e+58
          2063.04660	         4.56340e+57
          2063.85290	         2.56206e+57
          2064.65920	        -2.74074e+57
          2065.46550	        -9.47568e+57
          2066.27180	        -7.78095e+57
          2067.07810	        -1.65674e+56
          2067.88440	         5.18356e+57
          2068.69070	         7.56249e+57
          2069.49700	         6.38185e+57
          2070.30330	         3.33560e+57
          2071.10960	         5.89863e+57
          2071.91590	         6.01855e+57
          2072.72220	         3.71882e+57
          2073.52850	         4.77745e+57
          2074.33480	         4.55543e+57
          2075.14110	         4.77262e+57
          2075.94740	         4.58088e+57
          2076.75370	         4.35373e+57
          2077.56000	         4.21055e+57
          2078.36630	         6.09737e+57
          2079.17260	         5.85657e+57
          2079.97890	         4.49875e+57
          2080.78520	         5.41741e+57
          2081.59150	         4.43917e+57
          2082.39780	         4.53670e+57
          2083.20410	         3.23100e+57
          2084.01040	         2.90412e+57
          2084.81670	         4.57731e+57
          2085.62300	         2.32896e+57
          2086.42930	         2.87954e+57
          2087.23560	         4.00911e+57
          2088.04190	         3.64735e+57
          2088.84820	         4.26533e+57
          2089.65450	         2.78870e+57
          2090.46080	         1.67683e+57
          2091.26710	         2.92163e+57
          2092.07340	         3.43914e+57
          2092.87970	         1.56085e+57
          2093.68600	         2.41967e+56
          2094.49230	         2.56975e+57
          2095.29860	         5.39608e+57
          2096.10490	         1.98567e+57
          2096.91120	         1.18569e+57
          2097.71750	         7.97276e+56
          2098.52380	         3.50432e+57
          2099.33010	         2.20289e+57
          2100.13640	         2.61628e+57
          2100.94270	         2.81725e+57
          2101.74900	         1.82347e+57
          2102.55530	         1.67620e+57
          2103.36160	         2.85409e+57
          2104.16790	         3.33016e+57
          2104.97420	         1.86503e+57
          2105.78050	         9.08202e+56
          2106.58680	         2.46512e+57
          2107.39310	         1.32681e+57
          2108.19940	         2.30476e+57
          2109.00570	        -1.07194e+57
          2109.81200	        -8.52013e+56
          2110.61830	         3.33943e+57
          2111.42460	         3.75025e+57
          2112.23090	         2.05592e+57
          2113.03720	        -7.08189e+56
          2113.84350	         4.54814e+57
          2114.64980	         2.31045e+57
          2115.45610	        -2.63441e+57
          2116.26240	         6.49157e+56
          2117.06870	         6.16726e+56
          2117.87500	         2.14806e+57
          2118.68130	         1.94108e+56
          2119.48760	         3.13265e+57
          2120.29390	         1.29891e+57
          2121.10020	        -2.48039e+57
          2121.90650	        -6.17603e+57
          2122.71280	        -7.00477e+57
          2123.51910	        -8.72577e+55
          2124.32540	        -2.15754e+57
          2125.13170	        -2.51708e+57
          2125.93800	         1.23627e+57
          2126.74430	        -2.69683e+57
          2127.55060	        -6.97584e+57
          2128.35690	        -2.88101e+57
          2129.16320	        -9.83432e+56
          2129.96950	        -1.27561e+57
          2130.77580	        -4.00303e+57
          2131.58210	         1.77656e+57
          2132.38840	         3.34051e+57
          2133.19470	        -1.22387e+57
          2134.00100	        -3.72024e+56
          2134.80730	        -7.71130e+57
          2135.61360	        -2.32726e+57
          2136.41990	        -1.00105e+57
          2137.22620	         6.69175e+56
          2138.03250	        -2.42737e+56
          2138.83880	         1.33149e+57
          2139.64510	        -5.91041e+56
          2140.45140	         1.10968e+57
          2141.25770	        -8.12769e+57
          2142.06400	         1.32587e+57
          2142.87030	         7.64831e+57
          2143.67660	         1.08803e+58
          2144.48290	         5.66001e+57
          2145.28920	         3.33794e+57
          2146.09550	        -1.20581e+58
          2146.90180	        -1.39555e+58
          2147.70810	        -8.81335e+57
          2148.51440	        -3.34595e+57
          2149.32070	        -2.39614e+57
          2150.12700	        -1.68063e+58
          2150.93330	        -6.79687e+57
          2151.73960	         4.81101e+57
          2152.54590	        -1.71913e+57
          2153.35220	         3.12284e+57
          2154.15850	        -9.81475e+57
          2154.96480	         1.22469e+58
          2155.77110	        -9.24820e+57
          2156.57740	        -1.50271e+58
          2157.38370	         4.23821e+57
          2158.19000	         8.83176e+57
          2158.99630	         4.78045e+57
          2159.80260	        -8.13025e+57
          2160.60890	        -4.23402e+57
          2161.41520	        -3.27650e+57
          2162.22150	         1.16675e+57
          2163.02780	         5.24570e+57
          2163.83410	        -4.84500e+57
          2164.64040	        -9.03371e+57
          2165.44670	        -1.17922e+58
          2166.25300	        -8.70258e+57
          2167.05930	         2.39064e+57
          2167.86560	        -1.66762e+58
          2168.67190	        -2.10370e+58
          2169.47820	        -1.75694e+58
          2170.28450	        -7.56741e+57
          2171.09080	         7.25571e+57
          2171.89710	         5.28414e+57
          2172.70340	         5.00440e+57
          2173.50970	        -5.08335e+57
          2174.31600	        -5.06268e+57
          2175.12230	        -5.57909e+57
          2175.92860	        -6.07208e+57
          2176.73490	        -2.07673e+57
          2177.54120	         1.33379e+57
          2178.34750	        -4.78141e+57
          2179.15380	                 nan
          2179.96010	                 nan
          2180.76640	                 nan
          2181.57270	                 nan
          2182.37900	                 nan
          2183.18530	                 nan
          2183.99160	                 nan
          2184.79790	                 nan
          2185.60420	                 nan
          2186.41050	                 nan
          2187.21680	                 nan
          2188.02310	                 nan
          2188.82940	                 nan
          2189.63570	                 nan
          2190.44200	                 nan
          2191.24830	                 nan
          2192.05460	                 nan
          2192.86090	                 nan
          2193.66720	                 nan
          2194.47350	                 nan
          2195.27980	                 nan
          2196.08610	                 nan
          2196.89240	                 nan
          2197.69870	                 nan
          2198.50500	                 nan
          2199.31130	                 nan
          2200.11760	                 nan
          2200.92390	                 nan
          2201.73020	                 nan
          2202.53650	                 nan
          2203.34280	                 nan
          2204.14910	                 nan
          2204.95540	                 nan
          2205.76170	                 nan
          2206.56800	                 nan
          2207.37430	                 nan
          2208.18060	                 nan
          2208.98690	                 nan
          2209.79320	                 nan
          2210.59950	                 nan
          2211.40580	                 nan
          2212.21210	                 nan
          2213.01840	                 nan
          2213.82470	                 nan
          2214.63100	                 nan
          2215.43730	         0.00000e+00
