#sample_466_stacked_spectrum_rest_UV-bands_median_H-alpha_noDC.txt
#median Lum: 1.68311e+42
#Rest-frame wavelength (A) | Luminosity (erg/s/A)
#
          1110.00000	         0.00000e+00
          1110.80630	        -4.29538e+58
          1111.61260	         3.20639e+59
          1112.41890	         1.14330e+59
          1113.22520	         1.89280e+59
          1114.03150	        -1.38607e+59
          1114.83780	         4.11942e+58
          1115.64410	         2.78159e+58
          1116.45040	         1.48043e+59
          1117.25670	         1.97783e+58
          1118.06300	         8.08283e+57
          1118.86930	         1.66059e+58
          1119.67560	         1.97435e+59
          1120.48190	         2.74627e+58
          1121.28820	        -1.33246e+59
          1122.09450	        -7.64937e+58
          1122.90080	        -5.62074e+58
          1123.70710	         2.98842e+58
          1124.51340	         6.46880e+58
          1125.31970	        -1.79532e+58
          1126.12600	        -7.89384e+57
          1126.93230	        -2.82296e+58
          1127.73860	        -3.93226e+58
          1128.54490	         1.56618e+58
          1129.35120	         3.45457e+58
          1130.15750	         1.60790e+58
          1130.96380	        -2.11892e+58
          1131.77010	         2.56355e+58
          1132.57640	         3.22544e+58
          1133.38270	         4.43489e+58
          1134.18900	         4.23616e+58
          1134.99530	         2.62188e+58
          1135.80160	         1.45047e+58
          1136.60790	         7.61310e+57
          1137.41420	         2.33249e+58
          1138.22050	         2.26096e+58
          1139.02680	         2.52088e+58
          1139.83310	         1.40206e+58
          1140.63940	         2.88681e+58
          1141.44570	        -4.03261e+57
          1142.25200	        -2.57211e+58
          1143.05830	         7.58767e+57
          1143.86460	         4.38544e+58
          1144.67090	         2.00465e+58
          1145.47720	         6.33150e+57
          1146.28350	         3.76212e+57
          1147.08980	         9.62716e+57
          1147.89610	         1.16258e+58
          1148.70240	         1.83252e+58
          1149.50870	         2.67321e+58
          1150.31500	         1.89940e+58
          1151.12130	         1.13149e+58
          1151.92760	         1.16344e+58
          1152.73390	         1.07129e+58
          1153.54020	         8.07776e+57
          1154.34650	         2.74972e+58
          1155.15280	         1.57204e+58
          1155.95910	         3.68126e+56
          1156.76540	        -6.11984e+57
          1157.57170	        -2.96717e+57
          1158.37800	        -1.04254e+58
          1159.18430	        -2.94181e+57
          1159.99060	         1.61991e+58
          1160.79690	         6.61328e+57
          1161.60320	         1.58846e+58
          1162.40950	         1.76506e+58
          1163.21580	         1.00546e+58
          1164.02210	         1.05317e+57
          1164.82840	         1.23656e+58
          1165.63470	         1.99589e+58
          1166.44100	         3.02420e+58
          1167.24730	         2.32649e+58
          1168.05360	         5.77491e+57
          1168.85990	         6.15286e+57
          1169.66620	         2.05121e+57
          1170.47250	         5.10571e+57
          1171.27880	         6.67933e+57
          1172.08510	         1.43330e+58
          1172.89140	         1.28244e+58
          1173.69770	         6.69297e+57
          1174.50400	         1.80165e+58
          1175.31030	         2.10236e+58
          1176.11660	         1.37044e+58
          1176.92290	         1.76253e+58
          1177.72920	         1.30362e+58
          1178.53550	         8.25813e+57
          1179.34180	         3.73336e+57
          1180.14810	         4.62168e+57
          1180.95440	         1.00925e+58
          1181.76070	         8.27332e+57
          1182.56700	         8.15227e+57
          1183.37330	         5.34173e+57
          1184.17960	         7.91702e+57
          1184.98590	         9.62559e+57
          1185.79220	         1.10070e+58
          1186.59850	         1.17754e+58
          1187.40480	         5.54131e+57
          1188.21110	         9.02914e+57
          1189.01740	         1.07357e+58
          1189.82370	         1.10454e+58
          1190.63000	         1.18912e+58
          1191.43630	         1.06901e+58
          1192.24260	         4.77763e+57
          1193.04890	         1.21126e+58
          1193.85520	         1.11094e+58
          1194.66150	         2.51462e+57
          1195.46780	         1.41272e+58
          1196.27410	         1.51889e+58
          1197.08040	         1.24550e+58
          1197.88670	         1.62181e+58
          1198.69300	         1.55387e+58
          1199.49930	         1.53235e+58
          1200.30560	         9.05821e+57
          1201.11190	         1.13726e+58
          1201.91820	         1.21864e+58
          1202.72450	         6.88456e+57
          1203.53080	         1.26362e+58
          1204.33710	         7.03508e+57
          1205.14340	         5.42674e+57
          1205.94970	         4.12161e+57
          1206.75600	         4.15319e+57
          1207.56230	         4.48932e+57
          1208.36860	         8.82933e+57
          1209.17490	         3.83501e+57
          1209.98120	         5.60776e+57
          1210.78750	         8.80286e+57
          1211.59380	         1.14480e+58
          1212.40010	         1.51274e+58
          1213.20640	         2.46900e+58
          1214.01270	         2.37121e+58
          1214.81900	         2.77788e+58
          1215.62530	         4.56768e+58
          1216.43160	         9.16037e+58
          1217.23790	         1.53065e+59
          1218.04420	         1.12659e+59
          1218.85050	         8.82077e+58
          1219.65680	         6.09190e+58
          1220.46310	         3.62941e+58
          1221.26940	         2.46839e+58
          1222.07570	         1.50862e+58
          1222.88200	         1.16156e+58
          1223.68830	         1.24914e+58
          1224.49460	         1.06470e+58
          1225.30090	         4.72435e+57
          1226.10720	         5.38885e+57
          1226.91350	         5.33208e+57
          1227.71980	         7.63648e+57
          1228.52610	         9.16962e+57
          1229.33240	         4.77684e+57
          1230.13870	         7.52954e+57
          1230.94500	         1.05028e+58
          1231.75130	         5.81881e+57
          1232.55760	         9.12588e+57
          1233.36390	         9.82858e+57
          1234.17020	         9.25309e+57
          1234.97650	         8.82418e+57
          1235.78280	         1.06661e+58
          1236.58910	         9.64501e+57
          1237.39540	         1.02791e+58
          1238.20170	         1.12435e+58
          1239.00800	         1.19565e+58
          1239.81430	         1.61944e+58
          1240.62060	         1.57519e+58
          1241.42690	         1.01364e+58
          1242.23320	         7.49002e+57
          1243.03950	         6.22577e+57
          1243.84580	         9.72625e+57
          1244.65210	         1.12436e+58
          1245.45840	         1.01439e+58
          1246.26470	         1.01229e+58
          1247.07100	         7.89986e+57
          1247.87730	         5.66563e+57
          1248.68360	         3.31226e+57
          1249.48990	         5.93610e+57
          1250.29620	         7.10628e+57
          1251.10250	         6.38955e+57
          1251.90880	         5.13395e+57
          1252.71510	         6.71324e+57
          1253.52140	         6.56508e+57
          1254.32770	         7.71189e+57
          1255.13400	         1.31627e+58
          1255.94030	         1.27319e+58
          1256.74660	         1.11853e+58
          1257.55290	         1.06984e+58
          1258.35920	         9.00534e+57
          1259.16550	         6.88623e+57
          1259.97180	         6.08540e+57
          1260.77810	         1.04251e+58
          1261.58440	         1.16240e+58
          1262.39070	         6.66858e+57
          1263.19700	         6.63370e+57
          1264.00330	         9.01966e+57
          1264.80960	         1.24966e+58
          1265.61590	         1.36455e+58
          1266.42220	         1.16351e+58
          1267.22850	         1.14133e+58
          1268.03480	         1.27547e+58
          1268.84110	         1.23971e+58
          1269.64740	         1.14203e+58
          1270.45370	         1.37532e+58
          1271.26000	         1.16346e+58
          1272.06630	         1.17622e+58
          1272.87260	         1.38593e+58
          1273.67890	         1.43817e+58
          1274.48520	         1.21820e+58
          1275.29150	         1.36037e+58
          1276.09780	         1.17548e+58
          1276.90410	         1.43140e+58
          1277.71040	         1.43950e+58
          1278.51670	         1.10077e+58
          1279.32300	         1.40837e+58
          1280.12930	         1.29470e+58
          1280.93560	         9.55166e+57
          1281.74190	         1.07172e+58
          1282.54820	         1.18565e+58
          1283.35450	         1.05043e+58
          1284.16080	         1.09885e+58
          1284.96710	         1.35657e+58
          1285.77340	         1.09488e+58
          1286.57970	         1.02486e+58
          1287.38600	         1.26595e+58
          1288.19230	         1.61003e+58
          1288.99860	         1.48388e+58
          1289.80490	         1.05426e+58
          1290.61120	         1.29502e+58
          1291.41750	         1.58932e+58
          1292.22380	         1.37468e+58
          1293.03010	         1.16525e+58
          1293.83640	         1.27208e+58
          1294.64270	         9.62160e+57
          1295.44900	         4.33800e+57
          1296.25530	         6.98705e+57
          1297.06160	         1.14791e+58
          1297.86790	         1.12821e+58
          1298.67420	         1.07638e+58
          1299.48050	         1.07906e+58
          1300.28680	         1.08961e+58
          1301.09310	         7.82649e+57
          1301.89940	         2.87441e+57
          1302.70570	         5.99416e+57
          1303.51200	         8.55834e+57
          1304.31830	         1.10659e+58
          1305.12460	         1.12788e+58
          1305.93090	         1.01107e+58
          1306.73720	         1.12749e+58
          1307.54350	         1.31549e+58
          1308.34980	         1.43364e+58
          1309.15610	         1.50859e+58
          1309.96240	         1.59588e+58
          1310.76870	         1.33034e+58
          1311.57500	         9.50404e+57
          1312.38130	         1.11545e+58
          1313.18760	         1.56110e+58
          1313.99390	         1.76062e+58
          1314.80020	         1.73876e+58
          1315.60650	         1.51910e+58
          1316.41280	         1.17115e+58
          1317.21910	         9.76507e+57
          1318.02540	         1.12907e+58
          1318.83170	         1.32375e+58
          1319.63800	         1.10332e+58
          1320.44430	         1.11658e+58
          1321.25060	         1.21547e+58
          1322.05690	         1.20036e+58
          1322.86320	         1.16273e+58
          1323.66950	         9.91993e+57
          1324.47580	         8.03703e+57
          1325.28210	         8.49976e+57
          1326.08840	         1.06074e+58
          1326.89470	         1.17436e+58
          1327.70100	         1.04131e+58
          1328.50730	         8.71035e+57
          1329.31360	         9.10453e+57
          1330.11990	         9.55113e+57
          1330.92620	         9.67435e+57
          1331.73250	         1.08916e+58
          1332.53880	         1.01921e+58
          1333.34510	         9.36472e+57
          1334.15140	         9.42621e+57
          1334.95770	         1.01413e+58
          1335.76400	         1.16178e+58
          1336.57030	         1.17370e+58
          1337.37660	         1.00144e+58
          1338.18290	         1.01069e+58
          1338.98920	         1.07025e+58
          1339.79550	         1.08757e+58
          1340.60180	         1.07440e+58
          1341.40810	         1.16001e+58
          1342.21440	         1.06515e+58
          1343.02070	         1.04880e+58
          1343.82700	         1.33746e+58
          1344.63330	         1.34456e+58
          1345.43960	         1.29981e+58
          1346.24590	         1.19547e+58
          1347.05220	         1.31746e+58
          1347.85850	         1.08771e+58
          1348.66480	         1.08340e+58
          1349.47110	         1.11145e+58
          1350.27740	         9.96020e+57
          1351.08370	         1.09636e+58
          1351.89000	         1.11625e+58
          1352.69630	         1.28998e+58
          1353.50260	         1.32420e+58
          1354.30890	         1.21707e+58
          1355.11520	         1.30303e+58
          1355.92150	         1.16023e+58
          1356.72780	         9.85162e+57
          1357.53410	         1.04038e+58
          1358.34040	         1.11249e+58
          1359.14670	         1.00950e+58
          1359.95300	         1.05419e+58
          1360.75930	         1.02385e+58
          1361.56560	         9.64785e+57
          1362.37190	         1.15487e+58
          1363.17820	         1.19478e+58
          1363.98450	         1.14724e+58
          1364.79080	         1.32563e+58
          1365.59710	         1.44174e+58
          1366.40340	         1.16990e+58
          1367.20970	         9.24810e+57
          1368.01600	         9.88565e+57
          1368.82230	         9.80911e+57
          1369.62860	         1.07901e+58
          1370.43490	         1.00260e+58
          1371.24120	         9.08461e+57
          1372.04750	         8.34230e+57
          1372.85380	         1.04754e+58
          1373.66010	         1.06985e+58
          1374.46640	         1.03425e+58
          1375.27270	         1.13600e+58
          1376.07900	         1.02491e+58
          1376.88530	         8.58072e+57
          1377.69160	         8.23937e+57
          1378.49790	         7.43211e+57
          1379.30420	         7.29309e+57
          1380.11050	         8.78152e+57
          1380.91680	         7.72171e+57
          1381.72310	         8.10402e+57
          1382.52940	         9.59162e+57
          1383.33570	         8.98752e+57
          1384.14200	         1.01238e+58
          1384.94830	         1.05240e+58
          1385.75460	         1.01928e+58
          1386.56090	         1.06660e+58
          1387.36720	         9.51254e+57
          1388.17350	         1.19892e+58
          1388.97980	         1.17050e+58
          1389.78610	         9.94906e+57
          1390.59240	         9.66282e+57
          1391.39870	         8.13145e+57
          1392.20500	         8.10104e+57
          1393.01130	         6.94735e+57
          1393.81760	         5.99031e+57
          1394.62390	         6.89675e+57
          1395.43020	         5.88517e+57
          1396.23650	         5.05938e+57
          1397.04280	         7.04384e+57
          1397.84910	         8.22876e+57
          1398.65540	         8.14228e+57
          1399.46170	         9.18985e+57
          1400.26800	         7.71358e+57
          1401.07430	         7.74182e+57
          1401.88060	         9.39503e+57
          1402.68690	         9.65277e+57
          1403.49320	         9.77336e+57
          1404.29950	         8.90302e+57
          1405.10580	         1.01959e+58
          1405.91210	         1.11258e+58
          1406.71840	         1.00847e+58
          1407.52470	         9.22175e+57
          1408.33100	         8.93642e+57
          1409.13730	         1.06559e+58
          1409.94360	         1.11726e+58
          1410.74990	         1.09856e+58
          1411.55620	         1.02705e+58
          1412.36250	         8.51010e+57
          1413.16880	         8.49748e+57
          1413.97510	         1.00495e+58
          1414.78140	         1.03731e+58
          1415.58770	         1.20698e+58
          1416.39400	         1.16900e+58
          1417.20030	         9.46494e+57
          1418.00660	         9.30335e+57
          1418.81290	         9.50148e+57
          1419.61920	         1.04471e+58
          1420.42550	         1.25967e+58
          1421.23180	         1.30422e+58
          1422.03810	         1.34650e+58
          1422.84440	         1.19501e+58
          1423.65070	         1.30133e+58
          1424.45700	         1.16613e+58
          1425.26330	         9.06476e+57
          1426.06960	         8.88817e+57
          1426.87590	         1.03212e+58
          1427.68220	         9.85484e+57
          1428.48850	         9.60103e+57
          1429.29480	         9.92917e+57
          1430.10110	         1.07261e+58
          1430.90740	         8.51113e+57
          1431.71370	         8.26201e+57
          1432.52000	         9.35331e+57
          1433.32630	         8.22245e+57
          1434.13260	         7.94291e+57
          1434.93890	         8.17113e+57
          1435.74520	         9.63484e+57
          1436.55150	         9.98631e+57
          1437.35780	         9.92128e+57
          1438.16410	         1.06618e+58
          1438.97040	         9.80899e+57
          1439.77670	         9.25131e+57
          1440.58300	         9.09268e+57
          1441.38930	         9.04131e+57
          1442.19560	         9.36503e+57
          1443.00190	         9.86334e+57
          1443.80820	         1.06656e+58
          1444.61450	         1.10812e+58
          1445.42080	         1.01503e+58
          1446.22710	         9.62205e+57
          1447.03340	         9.15785e+57
          1447.83970	         9.48147e+57
          1448.64600	         1.07792e+58
          1449.45230	         1.13328e+58
          1450.25860	         1.06492e+58
          1451.06490	         8.20838e+57
          1451.87120	         6.75667e+57
          1452.67750	         7.66435e+57
          1453.48380	         8.86143e+57
          1454.29010	         8.58012e+57
          1455.09640	         7.72410e+57
          1455.90270	         8.69405e+57
          1456.70900	         9.33664e+57
          1457.51530	         1.03257e+58
          1458.32160	         1.25445e+58
          1459.12790	         1.20379e+58
          1459.93420	         1.02514e+58
          1460.74050	         7.97408e+57
          1461.54680	         7.37562e+57
          1462.35310	         7.63629e+57
          1463.15940	         9.04171e+57
          1463.96570	         1.06939e+58
          1464.77200	         1.05953e+58
          1465.57830	         9.69612e+57
          1466.38460	         1.03310e+58
          1467.19090	         8.81203e+57
          1467.99720	         8.58181e+57
          1468.80350	         8.38556e+57
          1469.60980	         8.71424e+57
          1470.41610	         1.00032e+58
          1471.22240	         9.10031e+57
          1472.02870	         9.26300e+57
          1472.83500	         1.00808e+58
          1473.64130	         1.05215e+58
          1474.44760	         1.03274e+58
          1475.25390	         8.86882e+57
          1476.06020	         8.01133e+57
          1476.86650	         8.13266e+57
          1477.67280	         8.09871e+57
          1478.47910	         7.45360e+57
          1479.28540	         7.04869e+57
          1480.09170	         8.57515e+57
          1480.89800	         9.69275e+57
          1481.70430	         1.02386e+58
          1482.51060	         9.12148e+57
          1483.31690	         8.09186e+57
          1484.12320	         8.17800e+57
          1484.92950	         7.80886e+57
          1485.73580	         8.80422e+57
          1486.54210	         8.78006e+57
          1487.34840	         8.96574e+57
          1488.15470	         8.92602e+57
          1488.96100	         8.33775e+57
          1489.76730	         9.33983e+57
          1490.57360	         9.01917e+57
          1491.37990	         7.28592e+57
          1492.18620	         7.54721e+57
          1492.99250	         8.38030e+57
          1493.79880	         8.72115e+57
          1494.60510	         8.18923e+57
          1495.41140	         6.39088e+57
          1496.21770	         8.28556e+57
          1497.02400	         1.07639e+58
          1497.83030	         9.06548e+57
          1498.63660	         7.74107e+57
          1499.44290	         7.50898e+57
          1500.24920	         6.38187e+57
          1501.05550	         7.64487e+57
          1501.86180	         8.66309e+57
          1502.66810	         9.37976e+57
          1503.47440	         8.54618e+57
          1504.28070	         7.27336e+57
          1505.08700	         8.52433e+57
          1505.89330	         9.42896e+57
          1506.69960	         8.87706e+57
          1507.50590	         9.06134e+57
          1508.31220	         9.14653e+57
          1509.11850	         9.34013e+57
          1509.92480	         9.11146e+57
          1510.73110	         8.26284e+57
          1511.53740	         7.18024e+57
          1512.34370	         7.38854e+57
          1513.15000	         8.93169e+57
          1513.95630	         9.87973e+57
          1514.76260	         9.23425e+57
          1515.56890	         8.77334e+57
          1516.37520	         8.61356e+57
          1517.18150	         7.70032e+57
          1517.98780	         7.11443e+57
          1518.79410	         7.10348e+57
          1519.60040	         7.74501e+57
          1520.40670	         9.08489e+57
          1521.21300	         9.20642e+57
          1522.01930	         8.86994e+57
          1522.82560	         9.13904e+57
          1523.63190	         1.00599e+58
          1524.43820	         9.00845e+57
          1525.24450	         7.24827e+57
          1526.05080	         6.05508e+57
          1526.85710	         5.49306e+57
          1527.66340	         6.50084e+57
          1528.46970	         7.46354e+57
          1529.27600	         7.17190e+57
          1530.08230	         7.57379e+57
          1530.88860	         8.25074e+57
          1531.69490	         8.96067e+57
          1532.50120	         8.91527e+57
          1533.30750	         8.92528e+57
          1534.11380	         9.72647e+57
          1534.92010	         9.40845e+57
          1535.72640	         9.21192e+57
          1536.53270	         9.31653e+57
          1537.33900	         8.41304e+57
          1538.14530	         8.57470e+57
          1538.95160	         8.68163e+57
          1539.75790	         8.03477e+57
          1540.56420	         8.50473e+57
          1541.37050	         8.45827e+57
          1542.17680	         7.60235e+57
          1542.98310	         6.83659e+57
          1543.78940	         7.11093e+57
          1544.59570	         7.68806e+57
          1545.40200	         8.64477e+57
          1546.20830	         9.24940e+57
          1547.01460	         1.09865e+58
          1547.82090	         1.26243e+58
          1548.62720	         1.30353e+58
          1549.43350	         1.23851e+58
          1550.23980	         1.11942e+58
          1551.04610	         1.18819e+58
          1551.85240	         1.27800e+58
          1552.65870	         1.20569e+58
          1553.46500	         1.06660e+58
          1554.27130	         1.00406e+58
          1555.07760	         1.01802e+58
          1555.88390	         9.53243e+57
          1556.69020	         1.00558e+58
          1557.49650	         9.75236e+57
          1558.30280	         9.21524e+57
          1559.10910	         8.75419e+57
          1559.91540	         8.90285e+57
          1560.72170	         9.53216e+57
          1561.52800	         8.48552e+57
          1562.33430	         8.44341e+57
          1563.14060	         8.38383e+57
          1563.94690	         8.07509e+57
          1564.75320	         8.36864e+57
          1565.55950	         7.88418e+57
          1566.36580	         8.41493e+57
          1567.17210	         1.03721e+58
          1567.97840	         1.00009e+58
          1568.78470	         8.84671e+57
          1569.59100	         9.41718e+57
          1570.39730	         8.62655e+57
          1571.20360	         7.91629e+57
          1572.00990	         7.59737e+57
          1572.81620	         9.18775e+57
          1573.62250	         1.11442e+58
          1574.42880	         9.25619e+57
          1575.23510	         7.28543e+57
          1576.04140	         8.10818e+57
          1576.84770	         9.05414e+57
          1577.65400	         8.87895e+57
          1578.46030	         1.01814e+58
          1579.26660	         1.05627e+58
          1580.07290	         8.36190e+57
          1580.87920	         7.49549e+57
          1581.68550	         7.57256e+57
          1582.49180	         8.73672e+57
          1583.29810	         8.54367e+57
          1584.10440	         9.07834e+57
          1584.91070	         8.36538e+57
          1585.71700	         8.16694e+57
          1586.52330	         8.74907e+57
          1587.32960	         8.06610e+57
          1588.13590	         8.35686e+57
          1588.94220	         8.30605e+57
          1589.74850	         8.56069e+57
          1590.55480	         9.53481e+57
          1591.36110	         8.78308e+57
          1592.16740	         8.20188e+57
          1592.97370	         7.87453e+57
          1593.78000	         9.07018e+57
          1594.58630	         9.59663e+57
          1595.39260	         8.34442e+57
          1596.19890	         8.31152e+57
          1597.00520	         8.89020e+57
          1597.81150	         8.36880e+57
          1598.61780	         7.52875e+57
          1599.42410	         7.55078e+57
          1600.23040	         7.32993e+57
          1601.03670	         8.17837e+57
          1601.84300	         8.71789e+57
          1602.64930	         9.02572e+57
          1603.45560	         8.93290e+57
          1604.26190	         8.34493e+57
          1605.06820	         8.56918e+57
          1605.87450	         7.42102e+57
          1606.68080	         6.47334e+57
          1607.48710	         5.83810e+57
          1608.29340	         5.38702e+57
          1609.09970	         6.37730e+57
          1609.90600	         7.08635e+57
          1610.71230	         7.41013e+57
          1611.51860	         7.56855e+57
          1612.32490	         6.86799e+57
          1613.13120	         7.32709e+57
          1613.93750	         8.44342e+57
          1614.74380	         9.17987e+57
          1615.55010	         9.28103e+57
          1616.35640	         9.37308e+57
          1617.16270	         1.05448e+58
          1617.96900	         1.06496e+58
          1618.77530	         8.89546e+57
          1619.58160	         7.38744e+57
          1620.38790	         7.16129e+57
          1621.19420	         8.77641e+57
          1622.00050	         8.14999e+57
          1622.80680	         8.16196e+57
          1623.61310	         8.21826e+57
          1624.41940	         8.43164e+57
          1625.22570	         8.91387e+57
          1626.03200	         8.23334e+57
          1626.83830	         7.10338e+57
          1627.64460	         6.93547e+57
          1628.45090	         7.54152e+57
          1629.25720	         9.39157e+57
          1630.06350	         9.41739e+57
          1630.86980	         5.69916e+57
          1631.67610	         7.27415e+57
          1632.48240	         9.38161e+57
          1633.28870	         8.56324e+57
          1634.09500	         1.02899e+58
          1634.90130	         1.16507e+58
          1635.70760	         9.02913e+57
          1636.51390	         7.87613e+57
          1637.32020	         8.23628e+57
          1638.12650	         8.63926e+57
          1638.93280	         9.19427e+57
          1639.73910	         1.02816e+58
          1640.54540	         1.07451e+58
          1641.35170	         9.29429e+57
          1642.15800	         8.15081e+57
          1642.96430	         7.42086e+57
          1643.77060	         7.90041e+57
          1644.57690	         7.90246e+57
          1645.38320	         8.46808e+57
          1646.18950	         7.48624e+57
          1646.99580	         8.23171e+57
          1647.80210	         7.79399e+57
          1648.60840	         7.03406e+57
          1649.41470	         8.19149e+57
          1650.22100	         6.70797e+57
          1651.02730	         6.78526e+57
          1651.83360	         6.73504e+57
          1652.63990	         7.42854e+57
          1653.44620	         8.53010e+57
          1654.25250	         8.44851e+57
          1655.05880	         7.19089e+57
          1655.86510	         7.71713e+57
          1656.67140	         8.34968e+57
          1657.47770	         7.73948e+57
          1658.28400	         8.04911e+57
          1659.09030	         8.40826e+57
          1659.89660	         9.38947e+57
          1660.70290	         1.01578e+58
          1661.50920	         9.61936e+57
          1662.31550	         9.08175e+57
          1663.12180	         8.39388e+57
          1663.92810	         9.15080e+57
          1664.73440	         1.07749e+58
          1665.54070	         1.25670e+58
          1666.34700	         1.26798e+58
          1667.15330	         1.14496e+58
          1667.95960	         9.01079e+57
          1668.76590	         6.61156e+57
          1669.57220	         6.92978e+57
          1670.37850	         7.27630e+57
          1671.18480	         8.31158e+57
          1671.99110	         8.25462e+57
          1672.79740	         7.06272e+57
          1673.60370	         6.54035e+57
          1674.41000	         7.17449e+57
          1675.21630	         8.00704e+57
          1676.02260	         7.29585e+57
          1676.82890	         6.15358e+57
          1677.63520	         6.70467e+57
          1678.44150	         7.44639e+57
          1679.24780	         9.32139e+57
          1680.05410	         8.81605e+57
          1680.86040	         6.79235e+57
          1681.66670	         7.50081e+57
          1682.47300	         7.95835e+57
          1683.27930	         8.18333e+57
          1684.08560	         8.78509e+57
          1684.89190	         7.86313e+57
          1685.69820	         5.63560e+57
          1686.50450	         5.76179e+57
          1687.31080	         6.22534e+57
          1688.11710	         6.91171e+57
          1688.92340	         7.31254e+57
          1689.72970	         7.39952e+57
          1690.53600	         7.03273e+57
          1691.34230	         7.02521e+57
          1692.14860	         7.48857e+57
          1692.95490	         7.79414e+57
          1693.76120	         6.55012e+57
          1694.56750	         6.91314e+57
          1695.37380	         7.87531e+57
          1696.18010	         8.73802e+57
          1696.98640	         8.36161e+57
          1697.79270	         7.59234e+57
          1698.59900	         7.92139e+57
          1699.40530	         7.07694e+57
          1700.21160	         6.57493e+57
          1701.01790	         7.99685e+57
          1701.82420	         7.63152e+57
          1702.63050	         8.29399e+57
          1703.43680	         8.31882e+57
          1704.24310	         8.05841e+57
          1705.04940	         7.93606e+57
          1705.85570	         7.73190e+57
          1706.66200	         7.93800e+57
          1707.46830	         8.32681e+57
          1708.27460	         7.93563e+57
          1709.08090	         7.65288e+57
          1709.88720	         5.57697e+57
          1710.69350	         5.64123e+57
          1711.49980	         6.78912e+57
          1712.30610	         6.34175e+57
          1713.11240	         8.32506e+57
          1713.91870	         7.76484e+57
          1714.72500	         8.55325e+57
          1715.53130	         9.98696e+57
          1716.33760	         7.85841e+57
          1717.14390	         7.34094e+57
          1717.95020	         8.64511e+57
          1718.75650	         9.63703e+57
          1719.56280	         8.66915e+57
          1720.36910	         7.24382e+57
          1721.17540	         7.39531e+57
          1721.98170	         6.35831e+57
          1722.78800	         6.18477e+57
          1723.59430	         7.52731e+57
          1724.40060	         8.71109e+57
          1725.20690	         7.99307e+57
          1726.01320	         7.26479e+57
          1726.81950	         7.11189e+57
          1727.62580	         7.12348e+57
          1728.43210	         7.17125e+57
          1729.23840	         7.28457e+57
          1730.04470	         7.82760e+57
          1730.85100	         8.38013e+57
          1731.65730	         8.05844e+57
          1732.46360	         7.51563e+57
          1733.26990	         8.30136e+57
          1734.07620	         8.13388e+57
          1734.88250	         8.50795e+57
          1735.68880	         9.33504e+57
          1736.49510	         9.08137e+57
          1737.30140	         8.64565e+57
          1738.10770	         8.43388e+57
          1738.91400	         8.59183e+57
          1739.72030	         7.76181e+57
          1740.52660	         5.80118e+57
          1741.33290	         5.47552e+57
          1742.13920	         5.69444e+57
          1742.94550	         6.84134e+57
          1743.75180	         7.33983e+57
          1744.55810	         7.62930e+57
          1745.36440	         7.73995e+57
          1746.17070	         6.55151e+57
          1746.97700	         6.49468e+57
          1747.78330	         6.61489e+57
          1748.58960	         7.14143e+57
          1749.39590	         7.16233e+57
          1750.20220	         7.12559e+57
          1751.00850	         6.63864e+57
          1751.81480	         5.89282e+57
          1752.62110	         7.18191e+57
          1753.42740	         7.29774e+57
          1754.23370	         6.35289e+57
          1755.04000	         6.90057e+57
          1755.84630	         7.46214e+57
          1756.65260	         9.45359e+57
          1757.45890	         8.99143e+57
          1758.26520	         7.13075e+57
          1759.07150	         8.63564e+57
          1759.87780	         8.29132e+57
          1760.68410	         8.61781e+57
          1761.49040	         7.94306e+57
          1762.29670	         6.32743e+57
          1763.10300	         6.90352e+57
          1763.90930	         6.83558e+57
          1764.71560	         7.72520e+57
          1765.52190	         7.46917e+57
          1766.32820	         7.61711e+57
          1767.13450	         8.31887e+57
          1767.94080	         7.16881e+57
          1768.74710	         7.01609e+57
          1769.55340	         7.25908e+57
          1770.35970	         6.12832e+57
          1771.16600	         6.69447e+57
          1771.97230	         7.89046e+57
          1772.77860	         8.52788e+57
          1773.58490	         7.43146e+57
          1774.39120	         5.77453e+57
          1775.19750	         6.77416e+57
          1776.00380	         6.93700e+57
          1776.81010	         7.03071e+57
          1777.61640	         6.57735e+57
          1778.42270	         6.72785e+57
          1779.22900	         6.79113e+57
          1780.03530	         6.27686e+57
          1780.84160	         6.42003e+57
          1781.64790	         7.70700e+57
          1782.45420	         6.11563e+57
          1783.26050	         5.99013e+57
          1784.06680	         6.88767e+57
          1784.87310	         7.31742e+57
          1785.67940	         7.70539e+57
          1786.48570	         6.73944e+57
          1787.29200	         6.99274e+57
          1788.09830	         6.36080e+57
          1788.90460	         5.70289e+57
          1789.71090	         5.93887e+57
          1790.51720	         5.09670e+57
          1791.32350	         6.97752e+57
          1792.12980	         8.17347e+57
          1792.93610	         7.70038e+57
          1793.74240	         7.42059e+57
          1794.54870	         7.67904e+57
          1795.35500	         7.78134e+57
          1796.16130	         7.80283e+57
          1796.96760	         7.32034e+57
          1797.77390	         7.10406e+57
          1798.58020	         6.41113e+57
          1799.38650	         5.81740e+57
          1800.19280	         7.14900e+57
          1800.99910	         8.38484e+57
          1801.80540	         7.05833e+57
          1802.61170	         7.01249e+57
          1803.41800	         7.29844e+57
          1804.22430	         7.50032e+57
          1805.03060	         7.97689e+57
          1805.83690	         9.01151e+57
          1806.64320	         8.30791e+57
          1807.44950	         6.53627e+57
          1808.25580	         6.25611e+57
          1809.06210	         8.29609e+57
          1809.86840	         6.90492e+57
          1810.67470	         6.99559e+57
          1811.48100	         7.89972e+57
          1812.28730	         8.40351e+57
          1813.09360	         8.04223e+57
          1813.89990	         7.98245e+57
          1814.70620	         6.33361e+57
          1815.51250	         8.04686e+57
          1816.31880	         8.50788e+57
          1817.12510	         7.83097e+57
          1817.93140	         7.13807e+57
          1818.73770	         6.46470e+57
          1819.54400	         8.10465e+57
          1820.35030	         8.75725e+57
          1821.15660	         7.26927e+57
          1821.96290	         6.51915e+57
          1822.76920	         7.34128e+57
          1823.57550	         8.41263e+57
          1824.38180	         7.19125e+57
          1825.18810	         7.44352e+57
          1825.99440	         8.43456e+57
          1826.80070	         7.40368e+57
          1827.60700	         7.00551e+57
          1828.41330	         6.92095e+57
          1829.21960	         7.49425e+57
          1830.02590	         7.28558e+57
          1830.83220	         8.13426e+57
          1831.63850	         8.13490e+57
          1832.44480	         8.37193e+57
          1833.25110	         8.27983e+57
          1834.05740	         8.82964e+57
          1834.86370	         7.91523e+57
          1835.67000	         6.19426e+57
          1836.47630	         7.33725e+57
          1837.28260	         7.75959e+57
          1838.08890	         8.66056e+57
          1838.89520	         8.46973e+57
          1839.70150	         7.71586e+57
          1840.50780	         7.62809e+57
          1841.31410	         6.89770e+57
          1842.12040	         7.36346e+57
          1842.92670	         6.72994e+57
          1843.73300	         6.27324e+57
          1844.53930	         6.70327e+57
          1845.34560	         6.74998e+57
          1846.15190	         7.21434e+57
          1846.95820	         7.82021e+57
          1847.76450	         7.12769e+57
          1848.57080	         7.07435e+57
          1849.37710	         6.81482e+57
          1850.18340	         6.66486e+57
          1850.98970	         8.00036e+57
          1851.79600	         6.74926e+57
          1852.60230	         6.64175e+57
          1853.40860	         6.95503e+57
          1854.21490	         7.49370e+57
          1855.02120	         5.82702e+57
          1855.82750	         4.01892e+57
          1856.63380	         5.26249e+57
          1857.44010	         6.15448e+57
          1858.24640	         7.80616e+57
          1859.05270	         7.60777e+57
          1859.85900	         5.83297e+57
          1860.66530	         5.34853e+57
          1861.47160	         6.79824e+57
          1862.27790	         7.11332e+57
          1863.08420	         7.10547e+57
          1863.89050	         7.32790e+57
          1864.69680	         7.41617e+57
          1865.50310	         7.24001e+57
          1866.30940	         6.89306e+57
          1867.11570	         6.36055e+57
          1867.92200	         7.41698e+57
          1868.72830	         7.33133e+57
          1869.53460	         7.34031e+57
          1870.34090	         7.22479e+57
          1871.14720	         6.79152e+57
          1871.95350	         6.13215e+57
          1872.75980	         6.78978e+57
          1873.56610	         6.20713e+57
          1874.37240	         6.18150e+57
          1875.17870	         6.91734e+57
          1875.98500	         7.50190e+57
          1876.79130	         7.08536e+57
          1877.59760	         7.28339e+57
          1878.40390	         5.92940e+57
          1879.21020	         6.61903e+57
          1880.01650	         8.13741e+57
          1880.82280	         8.51888e+57
          1881.62910	         9.29452e+57
          1882.43540	         9.10522e+57
          1883.24170	         8.79588e+57
          1884.04800	         7.37296e+57
          1884.85430	         7.32649e+57
          1885.66060	         7.29746e+57
          1886.46690	         7.66085e+57
          1887.27320	         8.33115e+57
          1888.07950	         7.06518e+57
          1888.88580	         7.10142e+57
          1889.69210	         8.73897e+57
          1890.49840	         8.70795e+57
          1891.30470	         7.72789e+57
          1892.11100	         8.15789e+57
          1892.91730	         8.36203e+57
          1893.72360	         8.44029e+57
          1894.52990	         8.70448e+57
          1895.33620	         8.48633e+57
          1896.14250	         7.31431e+57
          1896.94880	         6.93190e+57
          1897.75510	         5.40696e+57
          1898.56140	         6.67712e+57
          1899.36770	         8.31746e+57
          1900.17400	         7.23830e+57
          1900.98030	         5.61166e+57
          1901.78660	         5.91526e+57
          1902.59290	         6.55322e+57
          1903.39920	         8.46555e+57
          1904.20550	         9.03267e+57
          1905.01180	         8.16037e+57
          1905.81810	         9.97010e+57
          1906.62440	         1.20602e+58
          1907.43070	         1.55710e+58
          1908.23700	         1.55979e+58
          1909.04330	         1.34038e+58
          1909.84960	         1.13095e+58
          1910.65590	         1.02296e+58
          1911.46220	         9.42389e+57
          1912.26850	         7.81341e+57
          1913.07480	         5.57828e+57
          1913.88110	         5.53547e+57
          1914.68740	         5.83222e+57
          1915.49370	         5.57657e+57
          1916.30000	         6.33959e+57
          1917.10630	         7.17990e+57
          1917.91260	         7.30526e+57
          1918.71890	         7.25142e+57
          1919.52520	         6.76455e+57
          1920.33150	         6.42928e+57
          1921.13780	         7.01348e+57
          1921.94410	         7.32905e+57
          1922.75040	         7.20977e+57
          1923.55670	         7.63170e+57
          1924.36300	         8.10387e+57
          1925.16930	         7.23661e+57
          1925.97560	         6.39136e+57
          1926.78190	         5.30549e+57
          1927.58820	         6.93940e+57
          1928.39450	         6.77951e+57
          1929.20080	         5.38674e+57
          1930.00710	         5.83535e+57
          1930.81340	         6.42267e+57
          1931.61970	         5.44472e+57
          1932.42600	         6.73784e+57
          1933.23230	         7.64696e+57
          1934.03860	         6.56005e+57
          1934.84490	         5.93718e+57
          1935.65120	         6.26644e+57
          1936.45750	         8.32243e+57
          1937.26380	         7.18495e+57
          1938.07010	         6.66313e+57
          1938.87640	         7.76821e+57
          1939.68270	         8.17919e+57
          1940.48900	         8.22975e+57
          1941.29530	         8.65423e+57
          1942.10160	         8.24995e+57
          1942.90790	         6.64500e+57
          1943.71420	         5.57572e+57
          1944.52050	         6.02482e+57
          1945.32680	         5.74941e+57
          1946.13310	         7.04865e+57
          1946.93940	         8.04001e+57
          1947.74570	         7.78147e+57
          1948.55200	         6.59283e+57
          1949.35830	         7.31083e+57
          1950.16460	         7.12388e+57
          1950.97090	         6.20451e+57
          1951.77720	         6.76835e+57
          1952.58350	         8.15629e+57
          1953.38980	         6.74567e+57
          1954.19610	         4.47133e+57
          1955.00240	         4.57032e+57
          1955.80870	         6.09201e+57
          1956.61500	         6.11354e+57
          1957.42130	         6.79656e+57
          1958.22760	         7.38463e+57
          1959.03390	         6.92165e+57
          1959.84020	         7.37036e+57
          1960.64650	         7.34286e+57
          1961.45280	         6.18073e+57
          1962.25910	         6.22754e+57
          1963.06540	         5.65870e+57
          1963.87170	         6.08865e+57
          1964.67800	         7.82174e+57
          1965.48430	         6.34705e+57
          1966.29060	         6.69589e+57
          1967.09690	         7.94306e+57
          1967.90320	         7.28762e+57
          1968.70950	         6.86205e+57
          1969.51580	         6.79339e+57
          1970.32210	         7.93349e+57
          1971.12840	         7.59886e+57
          1971.93470	         6.13774e+57
          1972.74100	         4.99597e+57
          1973.54730	         6.15367e+57
          1974.35360	         7.76436e+57
          1975.15990	         7.78441e+57
          1975.96620	         6.30732e+57
          1976.77250	         7.17767e+57
          1977.57880	         7.91603e+57
          1978.38510	         6.63220e+57
          1979.19140	         5.55702e+57
          1979.99770	         7.60827e+57
          1980.80400	         7.56545e+57
          1981.61030	         6.79347e+57
          1982.41660	         5.82437e+57
          1983.22290	         6.19162e+57
          1984.02920	         5.12733e+57
          1984.83550	         5.99746e+57
          1985.64180	         7.01156e+57
          1986.44810	         6.83793e+57
          1987.25440	         5.94541e+57
          1988.06070	         6.02546e+57
          1988.86700	         6.62713e+57
          1989.67330	         7.17975e+57
          1990.47960	         6.45879e+57
          1991.28590	         6.54518e+57
          1992.09220	         6.10535e+57
          1992.89850	         4.83698e+57
          1993.70480	         5.44947e+57
          1994.51110	         5.36325e+57
          1995.31740	         4.42868e+57
          1996.12370	         4.45778e+57
          1996.93000	         5.96270e+57
          1997.73630	         8.06382e+57
          1998.54260	         7.81248e+57
          1999.34890	         7.30706e+57
          2000.15520	         6.97203e+57
          2000.96150	         6.91377e+57
          2001.76780	         5.09783e+57
          2002.57410	         4.83852e+57
          2003.38040	         6.01967e+57
          2004.18670	         6.67271e+57
          2004.99300	         6.70461e+57
          2005.79930	         6.53971e+57
          2006.60560	         6.48874e+57
          2007.41190	         6.74443e+57
          2008.21820	         7.36945e+57
          2009.02450	         6.66242e+57
          2009.83080	         6.36400e+57
          2010.63710	         5.83170e+57
          2011.44340	         6.28667e+57
          2012.24970	         7.29214e+57
          2013.05600	         6.75993e+57
          2013.86230	         6.80470e+57
          2014.66860	         5.85600e+57
          2015.47490	         6.25679e+57
          2016.28120	         5.62538e+57
          2017.08750	         6.54420e+57
          2017.89380	         7.48735e+57
          2018.70010	         7.09284e+57
          2019.50640	         6.73997e+57
          2020.31270	         7.02785e+57
          2021.11900	         7.95877e+57
          2021.92530	         8.04637e+57
          2022.73160	         7.84454e+57
          2023.53790	         6.92619e+57
          2024.34420	         5.84851e+57
          2025.15050	         5.71993e+57
          2025.95680	         5.21497e+57
          2026.76310	         6.14137e+57
          2027.56940	         4.92843e+57
          2028.37570	         6.36861e+57
          2029.18200	         7.86918e+57
          2029.98830	         6.59828e+57
          2030.79460	         4.76028e+57
          2031.60090	         5.22838e+57
          2032.40720	         5.53559e+57
          2033.21350	         4.53287e+57
          2034.01980	         4.39234e+57
          2034.82610	         4.05634e+57
          2035.63240	         4.89428e+57
          2036.43870	         5.51748e+57
          2037.24500	         6.12371e+57
          2038.05130	         6.54608e+57
          2038.85760	         6.82612e+57
          2039.66390	         6.58835e+57
          2040.47020	         6.19340e+57
          2041.27650	         7.11207e+57
          2042.08280	         5.86395e+57
          2042.88910	         6.01751e+57
          2043.69540	         6.22462e+57
          2044.50170	         5.98008e+57
          2045.30800	         5.46395e+57
          2046.11430	         4.46960e+57
          2046.92060	         5.21711e+57
          2047.72690	         6.84138e+57
          2048.53320	         4.69666e+57
          2049.33950	         3.63783e+57
          2050.14580	         5.04210e+57
          2050.95210	         5.45848e+57
          2051.75840	         7.09855e+57
          2052.56470	         6.33836e+57
          2053.37100	         4.97967e+57
          2054.17730	         5.49207e+57
          2054.98360	         5.68253e+57
          2055.78990	         3.81038e+57
          2056.59620	         2.38998e+57
          2057.40250	         5.15858e+57
          2058.20880	         7.98402e+57
          2059.01510	         6.57057e+57
          2059.82140	         6.65819e+57
          2060.62770	         1.13098e+58
          2061.43400	         1.71300e+58
          2062.24030	         1.08229e+58
          2063.04660	         4.19045e+57
          2063.85290	         2.02990e+57
          2064.65920	        -1.62075e+57
          2065.46550	        -7.01759e+57
          2066.27180	        -9.11308e+57
          2067.07810	         3.78926e+57
          2067.88440	         5.60757e+57
          2068.69070	         6.21398e+57
          2069.49700	         4.24638e+57
          2070.30330	         2.30363e+57
          2071.10960	         6.21120e+57
          2071.91590	         6.51310e+57
          2072.72220	         4.34843e+57
          2073.52850	         3.81992e+57
          2074.33480	         3.96520e+57
          2075.14110	         4.49869e+57
          2075.94740	         5.69444e+57
          2076.75370	         4.93322e+57
          2077.56000	         5.47051e+57
          2078.36630	         6.24174e+57
          2079.17260	         4.47236e+57
          2079.97890	         6.34014e+57
          2080.78520	         5.44434e+57
          2081.59150	         5.89839e+57
          2082.39780	         4.86902e+57
          2083.20410	         2.10854e+57
          2084.01040	         1.70813e+57
          2084.81670	         3.96988e+57
          2085.62300	         2.37367e+57
          2086.42930	         2.83786e+57
          2087.23560	         4.68029e+57
          2088.04190	         3.55510e+57
          2088.84820	         2.85573e+57
          2089.65450	         2.28304e+57
          2090.46080	         2.17551e+57
          2091.26710	         1.95857e+57
          2092.07340	         1.13023e+57
          2092.87970	         2.63866e+57
          2093.68600	         8.91132e+56
          2094.49230	         7.12723e+56
          2095.29860	         4.35069e+57
          2096.10490	         1.06406e+57
          2096.91120	        -4.89723e+56
          2097.71750	        -1.35072e+56
          2098.52380	         7.08437e+56
          2099.33010	         1.79498e+57
          2100.13640	         6.93260e+56
          2100.94270	         1.12257e+57
          2101.74900	         4.61931e+57
          2102.55530	         3.43033e+57
          2103.36160	         8.18388e+56
          2104.16790	         4.41055e+57
          2104.97420	         1.05632e+57
          2105.78050	         8.48238e+56
          2106.58680	        -1.73643e+56
          2107.39310	        -2.57251e+57
          2108.19940	         4.51199e+56
          2109.00570	         1.40082e+57
          2109.81200	        -8.27369e+56
          2110.61830	         2.13554e+57
          2111.42460	         1.44279e+57
          2112.23090	         1.00655e+57
          2113.03720	         5.18628e+56
          2113.84350	         1.53767e+57
          2114.64980	         1.09546e+57
          2115.45610	        -3.76760e+57
          2116.26240	        -1.44687e+57
          2117.06870	        -1.06061e+56
          2117.87500	        -9.09541e+56
          2118.68130	         5.94731e+56
          2119.48760	         5.14177e+57
          2120.29390	        -1.09952e+57
          2121.10020	        -4.88602e+57
          2121.90650	        -7.27133e+56
          2122.71280	        -4.18433e+57
          2123.51910	         1.71510e+57
          2124.32540	         2.07807e+57
          2125.13170	         1.07298e+57
          2125.93800	         6.21811e+57
          2126.74430	         2.56120e+57
          2127.55060	        -1.64428e+57
          2128.35690	        -3.22361e+56
          2129.16320	        -3.29200e+57
          2129.96950	        -5.42595e+57
          2130.77580	         4.21916e+57
          2131.58210	        -1.81584e+56
          2132.38840	        -5.18570e+57
          2133.19470	         1.81771e+57
          2134.00100	         5.65482e+56
          2134.80730	        -6.62742e+57
          2135.61360	         7.35038e+57
          2136.41990	         2.69466e+57
          2137.22620	         1.44048e+57
          2138.03250	         3.45437e+57
          2138.83880	        -8.48116e+56
          2139.64510	        -2.16035e+57
          2140.45140	        -4.95781e+57
          2141.25770	        -1.50499e+58
          2142.06400	        -4.15484e+57
          2142.87030	        -4.71372e+56
          2143.67660	         3.33670e+57
          2144.48290	        -2.20405e+57
          2145.28920	        -3.21639e+57
          2146.09550	        -1.21129e+58
          2146.90180	        -8.26164e+57
          2147.70810	        -2.96708e+57
          2148.51440	        -2.82718e+57
          2149.32070	        -1.09852e+58
          2150.12700	        -1.18659e+58
          2150.93330	        -3.31855e+57
          2151.73960	        -8.93601e+56
          2152.54590	        -3.52824e+57
          2153.35220	         1.90287e+55
          2154.15850	        -6.56043e+57
          2154.96480	        -8.53498e+56
          2155.77110	        -2.62007e+57
          2156.57740	        -5.17248e+57
          2157.38370	         5.15070e+57
          2158.19000	        -3.78323e+57
          2158.99630	        -8.69401e+57
          2159.80260	        -7.55763e+57
          2160.60890	        -1.26407e+58
          2161.41520	        -2.34969e+57
          2162.22150	         8.59462e+57
          2163.02780	         5.55511e+57
          2163.83410	        -9.78153e+56
          2164.64040	        -8.79752e+57
          2165.44670	        -1.40184e+58
          2166.25300	        -6.69147e+57
          2167.05930	         4.21953e+57
          2167.86560	        -1.19982e+58
          2168.67190	        -1.16380e+58
          2169.47820	        -5.12582e+57
          2170.28450	        -1.40641e+57
          2171.09080	         1.12996e+57
          2171.89710	         3.60060e+57
          2172.70340	         6.99005e+57
          2173.50970	        -4.86159e+57
          2174.31600	        -6.60494e+56
          2175.12230	        -4.62527e+56
          2175.92860	        -1.35774e+57
          2176.73490	        -1.21243e+58
          2177.54120	        -8.93852e+57
          2178.34750	        -4.32082e+57
          2179.15380	                 nan
          2179.96010	                 nan
          2180.76640	                 nan
          2181.57270	                 nan
          2182.37900	                 nan
          2183.18530	                 nan
          2183.99160	                 nan
          2184.79790	                 nan
          2185.60420	                 nan
          2186.41050	                 nan
          2187.21680	                 nan
          2188.02310	                 nan
          2188.82940	                 nan
          2189.63570	                 nan
          2190.44200	                 nan
          2191.24830	                 nan
          2192.05460	                 nan
          2192.86090	                 nan
          2193.66720	                 nan
          2194.47350	                 nan
          2195.27980	                 nan
          2196.08610	                 nan
          2196.89240	                 nan
          2197.69870	                 nan
          2198.50500	                 nan
          2199.31130	                 nan
          2200.11760	                 nan
          2200.92390	                 nan
          2201.73020	                 nan
          2202.53650	                 nan
          2203.34280	                 nan
          2204.14910	                 nan
          2204.95540	                 nan
          2205.76170	                 nan
          2206.56800	                 nan
          2207.37430	                 nan
          2208.18060	                 nan
          2208.98690	                 nan
          2209.79320	                 nan
          2210.59950	                 nan
          2211.40580	                 nan
          2212.21210	                 nan
          2213.01840	                 nan
          2213.82470	                 nan
          2214.63100	                 nan
          2215.43730	         0.00000e+00
