#sample_365_stacked_spectrum_rest_UV-bands_median_H-alpha_noDC.txt
#median Lum: 1.72404e+42
#Rest-frame wavelength (A) | Luminosity (erg/s/A)
#
          1110.00000	         0.00000e+00
          1110.80630	         1.80008e+59
          1111.61260	         1.23067e+59
          1112.41890	         1.00162e+58
          1113.22520	         1.45324e+59
          1114.03150	        -2.46229e+59
          1114.83780	        -2.15761e+58
          1115.64410	         1.04914e+59
          1116.45040	         3.13796e+59
          1117.25670	         8.39744e+58
          1118.06300	         1.40281e+59
          1118.86930	        -2.98252e+58
          1119.67560	         1.27431e+59
          1120.48190	        -3.14090e+58
          1121.28820	        -1.70613e+59
          1122.09450	        -8.40366e+57
          1122.90080	         1.57273e+58
          1123.70710	         9.07668e+58
          1124.51340	         4.07563e+58
          1125.31970	        -1.17146e+58
          1126.12600	        -2.64486e+57
          1126.93230	        -1.15907e+58
          1127.73860	        -7.07684e+58
          1128.54490	        -1.51388e+58
          1129.35120	         4.00787e+58
          1130.15750	         2.71895e+58
          1130.96380	        -1.86839e+58
          1131.77010	         3.81438e+58
          1132.57640	         2.10538e+58
          1133.38270	         2.33536e+58
          1134.18900	         3.29631e+58
          1134.99530	         1.63001e+58
          1135.80160	        -4.54501e+57
          1136.60790	         4.69440e+57
          1137.41420	        -2.23048e+58
          1138.22050	         3.13405e+58
          1139.02680	         3.32258e+58
          1139.83310	         2.08433e+58
          1140.63940	         1.87258e+58
          1141.44570	        -8.10416e+57
          1142.25200	         3.18165e+57
          1143.05830	         1.78485e+58
          1143.86460	         2.03092e+58
          1144.67090	         2.21333e+58
          1145.47720	         5.40166e+57
          1146.28350	         1.19802e+58
          1147.08980	         7.39382e+57
          1147.89610	         1.12069e+58
          1148.70240	         9.84493e+57
          1149.50870	         2.17182e+58
          1150.31500	         1.85764e+58
          1151.12130	         2.07130e+58
          1151.92760	         1.46034e+58
          1152.73390	         4.64048e+57
          1153.54020	        -7.53180e+57
          1154.34650	         2.23653e+58
          1155.15280	         2.55389e+58
          1155.95910	         1.08448e+58
          1156.76540	         5.33447e+57
          1157.57170	         2.56368e+57
          1158.37800	         7.40149e+57
          1159.18430	         7.44408e+57
          1159.99060	         8.73375e+57
          1160.79690	         4.94682e+57
          1161.60320	         1.26288e+58
          1162.40950	         1.33194e+58
          1163.21580	         1.67070e+58
          1164.02210	         1.20587e+58
          1164.82840	         1.59065e+58
          1165.63470	         1.51109e+58
          1166.44100	         2.44896e+58
          1167.24730	         2.06323e+58
          1168.05360	         1.25649e+58
          1168.85990	         1.71818e+58
          1169.66620	         1.15224e+58
          1170.47250	         8.27627e+57
          1171.27880	         9.89560e+57
          1172.08510	         1.03065e+58
          1172.89140	         3.99668e+57
          1173.69770	         3.55853e+57
          1174.50400	         6.63022e+57
          1175.31030	         1.54709e+58
          1176.11660	         1.89345e+58
          1176.92290	         1.61790e+58
          1177.72920	         1.43639e+58
          1178.53550	         1.21841e+58
          1179.34180	         4.22527e+57
          1180.14810	         6.03787e+57
          1180.95440	         1.06165e+58
          1181.76070	         1.43566e+58
          1182.56700	         1.24225e+58
          1183.37330	         7.71276e+57
          1184.17960	         1.35725e+58
          1184.98590	         1.00713e+58
          1185.79220	         8.40308e+57
          1186.59850	         5.07208e+57
          1187.40480	         1.09665e+58
          1188.21110	         1.15481e+58
          1189.01740	         1.20277e+58
          1189.82370	         1.26445e+58
          1190.63000	         7.05023e+57
          1191.43630	         1.27332e+58
          1192.24260	         1.30635e+58
          1193.04890	         1.19753e+58
          1193.85520	         1.07085e+58
          1194.66150	         8.72739e+57
          1195.46780	         1.13969e+58
          1196.27410	         1.58698e+58
          1197.08040	         9.17170e+57
          1197.88670	         1.17282e+58
          1198.69300	         1.29014e+58
          1199.49930	         1.41462e+58
          1200.30560	         1.19187e+58
          1201.11190	         1.00649e+58
          1201.91820	         1.33994e+58
          1202.72450	         1.11478e+58
          1203.53080	         1.53991e+58
          1204.33710	         8.57700e+57
          1205.14340	         5.06613e+57
          1205.94970	         7.50924e+57
          1206.75600	         6.74317e+57
          1207.56230	         7.12433e+57
          1208.36860	         9.75379e+57
          1209.17490	         7.72470e+57
          1209.98120	         4.66490e+57
          1210.78750	         7.64421e+57
          1211.59380	         1.30259e+58
          1212.40010	         1.89857e+58
          1213.20640	         1.87780e+58
          1214.01270	         2.34563e+58
          1214.81900	         2.77208e+58
          1215.62530	         4.20445e+58
          1216.43160	         8.63473e+58
          1217.23790	         1.48638e+59
          1218.04420	         1.15081e+59
          1218.85050	         8.57160e+58
          1219.65680	         5.95945e+58
          1220.46310	         3.35036e+58
          1221.26940	         2.46556e+58
          1222.07570	         1.71543e+58
          1222.88200	         1.06805e+58
          1223.68830	         9.52558e+57
          1224.49460	         8.34393e+57
          1225.30090	         5.80447e+57
          1226.10720	         6.69489e+57
          1226.91350	         7.96736e+57
          1227.71980	         1.00867e+58
          1228.52610	         1.27040e+58
          1229.33240	         1.04359e+58
          1230.13870	         4.67366e+57
          1230.94500	         6.41022e+57
          1231.75130	         5.73707e+57
          1232.55760	         8.30321e+57
          1233.36390	         7.61790e+57
          1234.17020	         8.82418e+57
          1234.97650	         6.97438e+57
          1235.78280	         6.76842e+57
          1236.58910	         9.56091e+57
          1237.39540	         1.26651e+58
          1238.20170	         1.18737e+58
          1239.00800	         1.43331e+58
          1239.81430	         1.60719e+58
          1240.62060	         1.11703e+58
          1241.42690	         8.78323e+57
          1242.23320	         1.11746e+58
          1243.03950	         9.54294e+57
          1243.84580	         8.40632e+57
          1244.65210	         1.03224e+58
          1245.45840	         9.29625e+57
          1246.26470	         7.86392e+57
          1247.07100	         5.88293e+57
          1247.87730	         7.08377e+57
          1248.68360	         4.50374e+57
          1249.48990	         9.92158e+57
          1250.29620	         1.19118e+58
          1251.10250	         9.81787e+57
          1251.90880	         6.09573e+57
          1252.71510	         6.47772e+57
          1253.52140	         7.50552e+57
          1254.32770	         8.79362e+57
          1255.13400	         1.17818e+58
          1255.94030	         1.12626e+58
          1256.74660	         9.18602e+57
          1257.55290	         9.26960e+57
          1258.35920	         7.76395e+57
          1259.16550	         7.69560e+57
          1259.97180	         6.04192e+57
          1260.77810	         8.50240e+57
          1261.58440	         1.18317e+58
          1262.39070	         9.66625e+57
          1263.19700	         9.33239e+57
          1264.00330	         1.04442e+58
          1264.80960	         1.22669e+58
          1265.61590	         1.33667e+58
          1266.42220	         1.27630e+58
          1267.22850	         1.16388e+58
          1268.03480	         1.38985e+58
          1268.84110	         1.52139e+58
          1269.64740	         1.43790e+58
          1270.45370	         1.60546e+58
          1271.26000	         1.46202e+58
          1272.06630	         1.12136e+58
          1272.87260	         1.05366e+58
          1273.67890	         1.02149e+58
          1274.48520	         1.08204e+58
          1275.29150	         1.18863e+58
          1276.09780	         1.04195e+58
          1276.90410	         1.51067e+58
          1277.71040	         1.42385e+58
          1278.51670	         1.11938e+58
          1279.32300	         1.36794e+58
          1280.12930	         1.31850e+58
          1280.93560	         1.18056e+58
          1281.74190	         1.11226e+58
          1282.54820	         1.21457e+58
          1283.35450	         1.23244e+58
          1284.16080	         1.27657e+58
          1284.96710	         1.39560e+58
          1285.77340	         1.12460e+58
          1286.57970	         1.14744e+58
          1287.38600	         1.55828e+58
          1288.19230	         1.75471e+58
          1288.99860	         1.58659e+58
          1289.80490	         1.21252e+58
          1290.61120	         1.54957e+58
          1291.41750	         1.66608e+58
          1292.22380	         1.38415e+58
          1293.03010	         1.09449e+58
          1293.83640	         1.03241e+58
          1294.64270	         9.67418e+57
          1295.44900	         6.43576e+57
          1296.25530	         8.13550e+57
          1297.06160	         9.83327e+57
          1297.86790	         1.01381e+58
          1298.67420	         1.05676e+58
          1299.48050	         1.15140e+58
          1300.28680	         1.18105e+58
          1301.09310	         8.04665e+57
          1301.89940	         4.19534e+57
          1302.70570	         6.33396e+57
          1303.51200	         6.97661e+57
          1304.31830	         8.85964e+57
          1305.12460	         1.07149e+58
          1305.93090	         1.11702e+58
          1306.73720	         1.26888e+58
          1307.54350	         1.39919e+58
          1308.34980	         1.41512e+58
          1309.15610	         1.37669e+58
          1309.96240	         1.47935e+58
          1310.76870	         1.45259e+58
          1311.57500	         1.25373e+58
          1312.38130	         1.42477e+58
          1313.18760	         1.60623e+58
          1313.99390	         1.58410e+58
          1314.80020	         1.68830e+58
          1315.60650	         1.52383e+58
          1316.41280	         1.06523e+58
          1317.21910	         1.07385e+58
          1318.02540	         1.33920e+58
          1318.83170	         1.34914e+58
          1319.63800	         1.29719e+58
          1320.44430	         1.12039e+58
          1321.25060	         1.27018e+58
          1322.05690	         1.23522e+58
          1322.86320	         1.13852e+58
          1323.66950	         1.05045e+58
          1324.47580	         9.67063e+57
          1325.28210	         9.96563e+57
          1326.08840	         1.15188e+58
          1326.89470	         1.23944e+58
          1327.70100	         1.08741e+58
          1328.50730	         8.30817e+57
          1329.31360	         8.22152e+57
          1330.11990	         7.65798e+57
          1330.92620	         7.41340e+57
          1331.73250	         9.93190e+57
          1332.53880	         9.67380e+57
          1333.34510	         8.65504e+57
          1334.15140	         8.84326e+57
          1334.95770	         8.68791e+57
          1335.76400	         9.48745e+57
          1336.57030	         1.04882e+58
          1337.37660	         1.05558e+58
          1338.18290	         1.08767e+58
          1338.98920	         1.23859e+58
          1339.79550	         1.28002e+58
          1340.60180	         1.28446e+58
          1341.40810	         1.36506e+58
          1342.21440	         1.21010e+58
          1343.02070	         1.25535e+58
          1343.82700	         1.39127e+58
          1344.63330	         1.20013e+58
          1345.43960	         1.25906e+58
          1346.24590	         1.18081e+58
          1347.05220	         1.14706e+58
          1347.85850	         1.21947e+58
          1348.66480	         1.29548e+58
          1349.47110	         1.34857e+58
          1350.27740	         1.16861e+58
          1351.08370	         1.13795e+58
          1351.89000	         1.22134e+58
          1352.69630	         1.07396e+58
          1353.50260	         1.13265e+58
          1354.30890	         1.27677e+58
          1355.11520	         1.25219e+58
          1355.92150	         1.09747e+58
          1356.72780	         1.00366e+58
          1357.53410	         1.01035e+58
          1358.34040	         1.03535e+58
          1359.14670	         1.01850e+58
          1359.95300	         1.17470e+58
          1360.75930	         1.13331e+58
          1361.56560	         9.90092e+57
          1362.37190	         1.15239e+58
          1363.17820	         1.12400e+58
          1363.98450	         1.12769e+58
          1364.79080	         1.25352e+58
          1365.59710	         1.28206e+58
          1366.40340	         1.27657e+58
          1367.20970	         1.00911e+58
          1368.01600	         9.13073e+57
          1368.82230	         1.04269e+58
          1369.62860	         1.02691e+58
          1370.43490	         9.05277e+57
          1371.24120	         9.28431e+57
          1372.04750	         9.86547e+57
          1372.85380	         1.05141e+58
          1373.66010	         1.09592e+58
          1374.46640	         1.12544e+58
          1375.27270	         1.14671e+58
          1376.07900	         9.77027e+57
          1376.88530	         8.88189e+57
          1377.69160	         8.56378e+57
          1378.49790	         7.35936e+57
          1379.30420	         7.49830e+57
          1380.11050	         8.21807e+57
          1380.91680	         7.87985e+57
          1381.72310	         8.32889e+57
          1382.52940	         8.84293e+57
          1383.33570	         8.28702e+57
          1384.14200	         9.70478e+57
          1384.94830	         1.12360e+58
          1385.75460	         1.03660e+58
          1386.56090	         1.09660e+58
          1387.36720	         1.11220e+58
          1388.17350	         1.21936e+58
          1388.97980	         1.09114e+58
          1389.78610	         9.19641e+57
          1390.59240	         9.29229e+57
          1391.39870	         7.70673e+57
          1392.20500	         7.90504e+57
          1393.01130	         7.57206e+57
          1393.81760	         5.58942e+57
          1394.62390	         6.26449e+57
          1395.43020	         7.33775e+57
          1396.23650	         7.59154e+57
          1397.04280	         7.02715e+57
          1397.84910	         7.40251e+57
          1398.65540	         7.10155e+57
          1399.46170	         9.08133e+57
          1400.26800	         8.09912e+57
          1401.07430	         7.36939e+57
          1401.88060	         9.04822e+57
          1402.68690	         9.64046e+57
          1403.49320	         9.44410e+57
          1404.29950	         9.26253e+57
          1405.10580	         1.01924e+58
          1405.91210	         1.09325e+58
          1406.71840	         1.03887e+58
          1407.52470	         1.02829e+58
          1408.33100	         9.76679e+57
          1409.13730	         1.09631e+58
          1409.94360	         1.14569e+58
          1410.74990	         1.11584e+58
          1411.55620	         9.41244e+57
          1412.36250	         8.63087e+57
          1413.16880	         7.98545e+57
          1413.97510	         8.07829e+57
          1414.78140	         9.37182e+57
          1415.58770	         8.70536e+57
          1416.39400	         8.87161e+57
          1417.20030	         9.75415e+57
          1418.00660	         1.02053e+58
          1418.81290	         9.34027e+57
          1419.61920	         9.32127e+57
          1420.42550	         1.15136e+58
          1421.23180	         1.26234e+58
          1422.03810	         1.17131e+58
          1422.84440	         1.07445e+58
          1423.65070	         1.13953e+58
          1424.45700	         1.03994e+58
          1425.26330	         9.09396e+57
          1426.06960	         1.00094e+58
          1426.87590	         1.06208e+58
          1427.68220	         1.00041e+58
          1428.48850	         1.00308e+58
          1429.29480	         1.09982e+58
          1430.10110	         1.10774e+58
          1430.90740	         9.07406e+57
          1431.71370	         8.41739e+57
          1432.52000	         8.10158e+57
          1433.32630	         8.21111e+57
          1434.13260	         8.65314e+57
          1434.93890	         8.59474e+57
          1435.74520	         8.88247e+57
          1436.55150	         9.52930e+57
          1437.35780	         8.83494e+57
          1438.16410	         8.47306e+57
          1438.97040	         9.44668e+57
          1439.77670	         8.78647e+57
          1440.58300	         8.52823e+57
          1441.38930	         9.12409e+57
          1442.19560	         9.62865e+57
          1443.00190	         1.00694e+58
          1443.80820	         1.11110e+58
          1444.61450	         1.01838e+58
          1445.42080	         9.57704e+57
          1446.22710	         1.08562e+58
          1447.03340	         1.04128e+58
          1447.83970	         1.05015e+58
          1448.64600	         9.30052e+57
          1449.45230	         9.08770e+57
          1450.25860	         1.01080e+58
          1451.06490	         8.55072e+57
          1451.87120	         8.16735e+57
          1452.67750	         8.39559e+57
          1453.48380	         8.97844e+57
          1454.29010	         8.13336e+57
          1455.09640	         7.42933e+57
          1455.90270	         8.42662e+57
          1456.70900	         8.81714e+57
          1457.51530	         9.80724e+57
          1458.32160	         1.27005e+58
          1459.12790	         1.22980e+58
          1459.93420	         9.87876e+57
          1460.74050	         7.74409e+57
          1461.54680	         8.46408e+57
          1462.35310	         9.58609e+57
          1463.15940	         1.13951e+58
          1463.96570	         1.19035e+58
          1464.77200	         1.06067e+58
          1465.57830	         1.07918e+58
          1466.38460	         9.92282e+57
          1467.19090	         7.36357e+57
          1467.99720	         7.99657e+57
          1468.80350	         9.89437e+57
          1469.60980	         1.14458e+58
          1470.41610	         1.10656e+58
          1471.22240	         8.79997e+57
          1472.02870	         9.61221e+57
          1472.83500	         1.01059e+58
          1473.64130	         9.62852e+57
          1474.44760	         9.41074e+57
          1475.25390	         8.85559e+57
          1476.06020	         8.54998e+57
          1476.86650	         8.88348e+57
          1477.67280	         8.08883e+57
          1478.47910	         6.27559e+57
          1479.28540	         7.07121e+57
          1480.09170	         9.57099e+57
          1480.89800	         9.18826e+57
          1481.70430	         8.44192e+57
          1482.51060	         8.54219e+57
          1483.31690	         7.11760e+57
          1484.12320	         7.49205e+57
          1484.92950	         7.97161e+57
          1485.73580	         7.72755e+57
          1486.54210	         7.09020e+57
          1487.34840	         8.15205e+57
          1488.15470	         9.35032e+57
          1488.96100	         8.83398e+57
          1489.76730	         1.03353e+58
          1490.57360	         9.59217e+57
          1491.37990	         7.77429e+57
          1492.18620	         8.04097e+57
          1492.99250	         8.48271e+57
          1493.79880	         8.31927e+57
          1494.60510	         7.71386e+57
          1495.41140	         6.80765e+57
          1496.21770	         7.75326e+57
          1497.02400	         1.06304e+58
          1497.83030	         9.44454e+57
          1498.63660	         6.39978e+57
          1499.44290	         7.12301e+57
          1500.24920	         8.02998e+57
          1501.05550	         8.42324e+57
          1501.86180	         8.92609e+57
          1502.66810	         9.50472e+57
          1503.47440	         8.96078e+57
          1504.28070	         8.62040e+57
          1505.08700	         1.02858e+58
          1505.89330	         1.02027e+58
          1506.69960	         8.28134e+57
          1507.50590	         8.47924e+57
          1508.31220	         8.99214e+57
          1509.11850	         8.80034e+57
          1509.92480	         9.05478e+57
          1510.73110	         8.48287e+57
          1511.53740	         7.53270e+57
          1512.34370	         6.45990e+57
          1513.15000	         7.78221e+57
          1513.95630	         8.55644e+57
          1514.76260	         8.68740e+57
          1515.56890	         9.36088e+57
          1516.37520	         9.58687e+57
          1517.18150	         9.10227e+57
          1517.98780	         7.35627e+57
          1518.79410	         6.46711e+57
          1519.60040	         7.80102e+57
          1520.40670	         9.50259e+57
          1521.21300	         9.25916e+57
          1522.01930	         8.26218e+57
          1522.82560	         8.97470e+57
          1523.63190	         9.74877e+57
          1524.43820	         8.87520e+57
          1525.24450	         6.88484e+57
          1526.05080	         6.35520e+57
          1526.85710	         6.64491e+57
          1527.66340	         6.28554e+57
          1528.46970	         7.01496e+57
          1529.27600	         7.60295e+57
          1530.08230	         8.00974e+57
          1530.88860	         8.85952e+57
          1531.69490	         9.18532e+57
          1532.50120	         8.52025e+57
          1533.30750	         9.44755e+57
          1534.11380	         1.01953e+58
          1534.92010	         1.00753e+58
          1535.72640	         9.22995e+57
          1536.53270	         8.79523e+57
          1537.33900	         8.21404e+57
          1538.14530	         9.36620e+57
          1538.95160	         1.01184e+58
          1539.75790	         9.25247e+57
          1540.56420	         7.90842e+57
          1541.37050	         8.79045e+57
          1542.17680	         8.31636e+57
          1542.98310	         7.21375e+57
          1543.78940	         7.93496e+57
          1544.59570	         7.67570e+57
          1545.40200	         7.97459e+57
          1546.20830	         9.95694e+57
          1547.01460	         1.08965e+58
          1547.82090	         1.11125e+58
          1548.62720	         1.20994e+58
          1549.43350	         1.09442e+58
          1550.23980	         1.10284e+58
          1551.04610	         1.30272e+58
          1551.85240	         1.17734e+58
          1552.65870	         1.06618e+58
          1553.46500	         9.87918e+57
          1554.27130	         9.47409e+57
          1555.07760	         9.33242e+57
          1555.88390	         9.43522e+57
          1556.69020	         9.78967e+57
          1557.49650	         9.99761e+57
          1558.30280	         8.67857e+57
          1559.10910	         8.33757e+57
          1559.91540	         8.86648e+57
          1560.72170	         8.32651e+57
          1561.52800	         7.95641e+57
          1562.33430	         8.23699e+57
          1563.14060	         8.05134e+57
          1563.94690	         8.56461e+57
          1564.75320	         8.20105e+57
          1565.55950	         7.39273e+57
          1566.36580	         7.30118e+57
          1567.17210	         8.86072e+57
          1567.97840	         1.02079e+58
          1568.78470	         9.91249e+57
          1569.59100	         9.60104e+57
          1570.39730	         8.93855e+57
          1571.20360	         7.66435e+57
          1572.00990	         7.71541e+57
          1572.81620	         8.42714e+57
          1573.62250	         9.86449e+57
          1574.42880	         8.76642e+57
          1575.23510	         7.94801e+57
          1576.04140	         8.93334e+57
          1576.84770	         8.10553e+57
          1577.65400	         8.21741e+57
          1578.46030	         9.55116e+57
          1579.26660	         1.03822e+58
          1580.07290	         9.46276e+57
          1580.87920	         7.11706e+57
          1581.68550	         7.36518e+57
          1582.49180	         8.36931e+57
          1583.29810	         7.43107e+57
          1584.10440	         7.88622e+57
          1584.91070	         8.85030e+57
          1585.71700	         8.49618e+57
          1586.52330	         8.66814e+57
          1587.32960	         8.25984e+57
          1588.13590	         8.00232e+57
          1588.94220	         8.33512e+57
          1589.74850	         8.69669e+57
          1590.55480	         8.61886e+57
          1591.36110	         7.87364e+57
          1592.16740	         7.78438e+57
          1592.97370	         8.19926e+57
          1593.78000	         8.20646e+57
          1594.58630	         7.86724e+57
          1595.39260	         7.89756e+57
          1596.19890	         8.47154e+57
          1597.00520	         8.98586e+57
          1597.81150	         9.03981e+57
          1598.61780	         7.64360e+57
          1599.42410	         7.08575e+57
          1600.23040	         7.22076e+57
          1601.03670	         7.86279e+57
          1601.84300	         7.53790e+57
          1602.64930	         8.69875e+57
          1603.45560	         8.82910e+57
          1604.26190	         8.00751e+57
          1605.06820	         8.38697e+57
          1605.87450	         7.52336e+57
          1606.68080	         7.66133e+57
          1607.48710	         6.91407e+57
          1608.29340	         6.69695e+57
          1609.09970	         7.35262e+57
          1609.90600	         7.45041e+57
          1610.71230	         6.84333e+57
          1611.51860	         7.56932e+57
          1612.32490	         7.15831e+57
          1613.13120	         7.68067e+57
          1613.93750	         7.52122e+57
          1614.74380	         8.23340e+57
          1615.55010	         9.22784e+57
          1616.35640	         9.65473e+57
          1617.16270	         1.02312e+58
          1617.96900	         1.00085e+58
          1618.77530	         8.30060e+57
          1619.58160	         8.58803e+57
          1620.38790	         8.24708e+57
          1621.19420	         8.77209e+57
          1622.00050	         7.82575e+57
          1622.80680	         8.83561e+57
          1623.61310	         8.78747e+57
          1624.41940	         8.54780e+57
          1625.22570	         9.73182e+57
          1626.03200	         1.03207e+58
          1626.83830	         9.50363e+57
          1627.64460	         7.66998e+57
          1628.45090	         5.79588e+57
          1629.25720	         7.57606e+57
          1630.06350	         9.05176e+57
          1630.86980	         6.71597e+57
          1631.67610	         8.86186e+57
          1632.48240	         1.03447e+58
          1633.28870	         8.33180e+57
          1634.09500	         9.06133e+57
          1634.90130	         1.20676e+58
          1635.70760	         9.71658e+57
          1636.51390	         7.69750e+57
          1637.32020	         8.13923e+57
          1638.12650	         9.36196e+57
          1638.93280	         9.05157e+57
          1639.73910	         1.06762e+58
          1640.54540	         1.13319e+58
          1641.35170	         9.63646e+57
          1642.15800	         9.52629e+57
          1642.96430	         9.41410e+57
          1643.77060	         8.98451e+57
          1644.57690	         8.54669e+57
          1645.38320	         8.18572e+57
          1646.18950	         6.94693e+57
          1646.99580	         8.01226e+57
          1647.80210	         8.27682e+57
          1648.60840	         7.22126e+57
          1649.41470	         7.99204e+57
          1650.22100	         7.31215e+57
          1651.02730	         7.09135e+57
          1651.83360	         8.54795e+57
          1652.63990	         9.15226e+57
          1653.44620	         9.05187e+57
          1654.25250	         7.91144e+57
          1655.05880	         7.52124e+57
          1655.86510	         7.81900e+57
          1656.67140	         8.07697e+57
          1657.47770	         8.09034e+57
          1658.28400	         8.43999e+57
          1659.09030	         9.16612e+57
          1659.89660	         1.03878e+58
          1660.70290	         1.06388e+58
          1661.50920	         8.65893e+57
          1662.31550	         7.91502e+57
          1663.12180	         8.04684e+57
          1663.92810	         9.50889e+57
          1664.73440	         9.98282e+57
          1665.54070	         1.09879e+58
          1666.34700	         1.23220e+58
          1667.15330	         1.13610e+58
          1667.95960	         8.86339e+57
          1668.76590	         7.65925e+57
          1669.57220	         6.56115e+57
          1670.37850	         7.64921e+57
          1671.18480	         8.11527e+57
          1671.99110	         8.23625e+57
          1672.79740	         7.37392e+57
          1673.60370	         7.11917e+57
          1674.41000	         6.84992e+57
          1675.21630	         6.49169e+57
          1676.02260	         6.63372e+57
          1676.82890	         6.56230e+57
          1677.63520	         7.17801e+57
          1678.44150	         7.35722e+57
          1679.24780	         7.77595e+57
          1680.05410	         7.94273e+57
          1680.86040	         6.51078e+57
          1681.66670	         7.61646e+57
          1682.47300	         8.65359e+57
          1683.27930	         8.25516e+57
          1684.08560	         8.92771e+57
          1684.89190	         7.83655e+57
          1685.69820	         5.16723e+57
          1686.50450	         5.67716e+57
          1687.31080	         7.05341e+57
          1688.11710	         7.99426e+57
          1688.92340	         7.10024e+57
          1689.72970	         6.61615e+57
          1690.53600	         7.67409e+57
          1691.34230	         8.39892e+57
          1692.14860	         8.17984e+57
          1692.95490	         7.05997e+57
          1693.76120	         7.19713e+57
          1694.56750	         7.32367e+57
          1695.37380	         7.98442e+57
          1696.18010	         9.84204e+57
          1696.98640	         9.27620e+57
          1697.79270	         7.56077e+57
          1698.59900	         6.42492e+57
          1699.40530	         6.58981e+57
          1700.21160	         7.13882e+57
          1701.01790	         8.24773e+57
          1701.82420	         7.99064e+57
          1702.63050	         6.95047e+57
          1703.43680	         8.17489e+57
          1704.24310	         8.81639e+57
          1705.04940	         8.55079e+57
          1705.85570	         8.37125e+57
          1706.66200	         9.12207e+57
          1707.46830	         8.68060e+57
          1708.27460	         7.54301e+57
          1709.08090	         8.47056e+57
          1709.88720	         7.22089e+57
          1710.69350	         6.95000e+57
          1711.49980	         7.41750e+57
          1712.30610	         7.94101e+57
          1713.11240	         9.31846e+57
          1713.91870	         8.22260e+57
          1714.72500	         8.27506e+57
          1715.53130	         9.31985e+57
          1716.33760	         8.11446e+57
          1717.14390	         7.49344e+57
          1717.95020	         7.86316e+57
          1718.75650	         8.60826e+57
          1719.56280	         8.58149e+57
          1720.36910	         7.38271e+57
          1721.17540	         6.77797e+57
          1721.98170	         6.30585e+57
          1722.78800	         7.12445e+57
          1723.59430	         7.71959e+57
          1724.40060	         7.96890e+57
          1725.20690	         8.60736e+57
          1726.01320	         7.93283e+57
          1726.81950	         7.88900e+57
          1727.62580	         7.17304e+57
          1728.43210	         6.61673e+57
          1729.23840	         7.18513e+57
          1730.04470	         7.95615e+57
          1730.85100	         8.33158e+57
          1731.65730	         8.65260e+57
          1732.46360	         7.93645e+57
          1733.26990	         6.67429e+57
          1734.07620	         6.39149e+57
          1734.88250	         7.83272e+57
          1735.68880	         8.41315e+57
          1736.49510	         7.72103e+57
          1737.30140	         7.23851e+57
          1738.10770	         7.24834e+57
          1738.91400	         7.34032e+57
          1739.72030	         6.88345e+57
          1740.52660	         6.15224e+57
          1741.33290	         6.23513e+57
          1742.13920	         5.25176e+57
          1742.94550	         6.01980e+57
          1743.75180	         7.13379e+57
          1744.55810	         8.36508e+57
          1745.36440	         8.36827e+57
          1746.17070	         6.44331e+57
          1746.97700	         5.89809e+57
          1747.78330	         7.16505e+57
          1748.58960	         6.41548e+57
          1749.39590	         5.85483e+57
          1750.20220	         6.33091e+57
          1751.00850	         5.73677e+57
          1751.81480	         5.67683e+57
          1752.62110	         7.25957e+57
          1753.42740	         7.28019e+57
          1754.23370	         6.40238e+57
          1755.04000	         7.63084e+57
          1755.84630	         8.63110e+57
          1756.65260	         9.34032e+57
          1757.45890	         9.80083e+57
          1758.26520	         7.45281e+57
          1759.07150	         7.13055e+57
          1759.87780	         6.91029e+57
          1760.68410	         7.82185e+57
          1761.49040	         9.35931e+57
          1762.29670	         6.27645e+57
          1763.10300	         6.54507e+57
          1763.90930	         7.50384e+57
          1764.71560	         7.45310e+57
          1765.52190	         6.79141e+57
          1766.32820	         8.12843e+57
          1767.13450	         8.71231e+57
          1767.94080	         7.12891e+57
          1768.74710	         6.94544e+57
          1769.55340	         7.70926e+57
          1770.35970	         7.02470e+57
          1771.16600	         7.17772e+57
          1771.97230	         8.15650e+57
          1772.77860	         8.90927e+57
          1773.58490	         8.68140e+57
          1774.39120	         6.54639e+57
          1775.19750	         4.89585e+57
          1776.00380	         5.88412e+57
          1776.81010	         6.95983e+57
          1777.61640	         5.85613e+57
          1778.42270	         6.63460e+57
          1779.22900	         7.50718e+57
          1780.03530	         6.26864e+57
          1780.84160	         7.33910e+57
          1781.64790	         8.03805e+57
          1782.45420	         7.58681e+57
          1783.26050	         6.96014e+57
          1784.06680	         7.54238e+57
          1784.87310	         7.71250e+57
          1785.67940	         7.50823e+57
          1786.48570	         7.00002e+57
          1787.29200	         6.71132e+57
          1788.09830	         7.42520e+57
          1788.90460	         7.37964e+57
          1789.71090	         5.66542e+57
          1790.51720	         4.62353e+57
          1791.32350	         6.78820e+57
          1792.12980	         8.09384e+57
          1792.93610	         7.20118e+57
          1793.74240	         6.54001e+57
          1794.54870	         8.17212e+57
          1795.35500	         8.20418e+57
          1796.16130	         8.05535e+57
          1796.96760	         7.21385e+57
          1797.77390	         7.11495e+57
          1798.58020	         6.69157e+57
          1799.38650	         6.26133e+57
          1800.19280	         6.28536e+57
          1800.99910	         7.80400e+57
          1801.80540	         7.24333e+57
          1802.61170	         8.01180e+57
          1803.41800	         7.79509e+57
          1804.22430	         6.90873e+57
          1805.03060	         7.09147e+57
          1805.83690	         7.31296e+57
          1806.64320	         7.36258e+57
          1807.44950	         8.08392e+57
          1808.25580	         7.56887e+57
          1809.06210	         8.59969e+57
          1809.86840	         7.84352e+57
          1810.67470	         7.17897e+57
          1811.48100	         7.76942e+57
          1812.28730	         7.61176e+57
          1813.09360	         7.31157e+57
          1813.89990	         8.25907e+57
          1814.70620	         8.25370e+57
          1815.51250	         8.20522e+57
          1816.31880	         7.90347e+57
          1817.12510	         7.74371e+57
          1817.93140	         7.24150e+57
          1818.73770	         7.43747e+57
          1819.54400	         8.62725e+57
          1820.35030	         8.78945e+57
          1821.15660	         6.72219e+57
          1821.96290	         6.50465e+57
          1822.76920	         8.14031e+57
          1823.57550	         7.19924e+57
          1824.38180	         6.88497e+57
          1825.18810	         7.19052e+57
          1825.99440	         7.42098e+57
          1826.80070	         7.21099e+57
          1827.60700	         6.31076e+57
          1828.41330	         6.17568e+57
          1829.21960	         6.67200e+57
          1830.02590	         6.40332e+57
          1830.83220	         7.76807e+57
          1831.63850	         8.31591e+57
          1832.44480	         7.84778e+57
          1833.25110	         8.38711e+57
          1834.05740	         7.94880e+57
          1834.86370	         6.78778e+57
          1835.67000	         6.19815e+57
          1836.47630	         7.05494e+57
          1837.28260	         8.76431e+57
          1838.08890	         8.51002e+57
          1838.89520	         7.44730e+57
          1839.70150	         6.40566e+57
          1840.50780	         7.33817e+57
          1841.31410	         8.26889e+57
          1842.12040	         7.49057e+57
          1842.92670	         8.10500e+57
          1843.73300	         7.75830e+57
          1844.53930	         7.15331e+57
          1845.34560	         6.67185e+57
          1846.15190	         6.47110e+57
          1846.95820	         6.99934e+57
          1847.76450	         6.54638e+57
          1848.57080	         4.92941e+57
          1849.37710	         6.19199e+57
          1850.18340	         7.70019e+57
          1850.98970	         6.47278e+57
          1851.79600	         6.85611e+57
          1852.60230	         6.73798e+57
          1853.40860	         7.12706e+57
          1854.21490	         7.94408e+57
          1855.02120	         5.41132e+57
          1855.82750	         3.55048e+57
          1856.63380	         5.54120e+57
          1857.44010	         7.40228e+57
          1858.24640	         7.96581e+57
          1859.05270	         6.92500e+57
          1859.85900	         5.80010e+57
          1860.66530	         7.01881e+57
          1861.47160	         7.02604e+57
          1862.27790	         6.78630e+57
          1863.08420	         7.53275e+57
          1863.89050	         7.83893e+57
          1864.69680	         7.14043e+57
          1865.50310	         6.85006e+57
          1866.30940	         6.71574e+57
          1867.11570	         6.60048e+57
          1867.92200	         7.57048e+57
          1868.72830	         7.44028e+57
          1869.53460	         6.95441e+57
          1870.34090	         6.49545e+57
          1871.14720	         7.08113e+57
          1871.95350	         7.85450e+57
          1872.75980	         8.69291e+57
          1873.56610	         7.32888e+57
          1874.37240	         5.25001e+57
          1875.17870	         5.87450e+57
          1875.98500	         7.14111e+57
          1876.79130	         7.85416e+57
          1877.59760	         7.03799e+57
          1878.40390	         6.30203e+57
          1879.21020	         6.74857e+57
          1880.01650	         7.57419e+57
          1880.82280	         8.52241e+57
          1881.62910	         8.73780e+57
          1882.43540	         8.99732e+57
          1883.24170	         8.75919e+57
          1884.04800	         7.23661e+57
          1884.85430	         7.69368e+57
          1885.66060	         8.53600e+57
          1886.46690	         8.56577e+57
          1887.27320	         7.63919e+57
          1888.07950	         6.26343e+57
          1888.88580	         6.53367e+57
          1889.69210	         7.04691e+57
          1890.49840	         7.05695e+57
          1891.30470	         6.96592e+57
          1892.11100	         7.84036e+57
          1892.91730	         7.72149e+57
          1893.72360	         7.53993e+57
          1894.52990	         7.07771e+57
          1895.33620	         9.15859e+57
          1896.14250	         8.27830e+57
          1896.94880	         6.81636e+57
          1897.75510	         4.99709e+57
          1898.56140	         6.12678e+57
          1899.36770	         7.66759e+57
          1900.17400	         7.43082e+57
          1900.98030	         6.87730e+57
          1901.78660	         6.60149e+57
          1902.59290	         7.81374e+57
          1903.39920	         9.35031e+57
          1904.20550	         9.13391e+57
          1905.01180	         8.07272e+57
          1905.81810	         9.08504e+57
          1906.62440	         1.18878e+58
          1907.43070	         1.52230e+58
          1908.23700	         1.51006e+58
          1909.04330	         1.28195e+58
          1909.84960	         1.03476e+58
          1910.65590	         9.08833e+57
          1911.46220	         9.88505e+57
          1912.26850	         8.04732e+57
          1913.07480	         6.37663e+57
          1913.88110	         5.38143e+57
          1914.68740	         5.38198e+57
          1915.49370	         5.14571e+57
          1916.30000	         6.21269e+57
          1917.10630	         6.69662e+57
          1917.91260	         7.01282e+57
          1918.71890	         7.22636e+57
          1919.52520	         5.99991e+57
          1920.33150	         5.47946e+57
          1921.13780	         6.47697e+57
          1921.94410	         7.49108e+57
          1922.75040	         8.16748e+57
          1923.55670	         7.22933e+57
          1924.36300	         7.94355e+57
          1925.16930	         6.73194e+57
          1925.97560	         5.02281e+57
          1926.78190	         4.15953e+57
          1927.58820	         5.37812e+57
          1928.39450	         5.88653e+57
          1929.20080	         4.95136e+57
          1930.00710	         7.05895e+57
          1930.81340	         7.89528e+57
          1931.61970	         7.45506e+57
          1932.42600	         7.62071e+57
          1933.23230	         8.00370e+57
          1934.03860	         7.01221e+57
          1934.84490	         5.54894e+57
          1935.65120	         8.09513e+57
          1936.45750	         9.33700e+57
          1937.26380	         7.33310e+57
          1938.07010	         7.89851e+57
          1938.87640	         7.51669e+57
          1939.68270	         7.71586e+57
          1940.48900	         6.92928e+57
          1941.29530	         7.96776e+57
          1942.10160	         8.35256e+57
          1942.90790	         6.57514e+57
          1943.71420	         5.54188e+57
          1944.52050	         7.02293e+57
          1945.32680	         6.80164e+57
          1946.13310	         8.22867e+57
          1946.93940	         7.48919e+57
          1947.74570	         7.49922e+57
          1948.55200	         7.11960e+57
          1949.35830	         6.32434e+57
          1950.16460	         6.29715e+57
          1950.97090	         6.32930e+57
          1951.77720	         6.27627e+57
          1952.58350	         6.82027e+57
          1953.38980	         6.00132e+57
          1954.19610	         4.42288e+57
          1955.00240	         5.00786e+57
          1955.80870	         6.08235e+57
          1956.61500	         6.37058e+57
          1957.42130	         7.14515e+57
          1958.22760	         7.41641e+57
          1959.03390	         7.49995e+57
          1959.84020	         7.80647e+57
          1960.64650	         7.29475e+57
          1961.45280	         6.18425e+57
          1962.25910	         6.41713e+57
          1963.06540	         6.72939e+57
          1963.87170	         5.88079e+57
          1964.67800	         7.91139e+57
          1965.48430	         7.35186e+57
          1966.29060	         6.50377e+57
          1967.09690	         6.74372e+57
          1967.90320	         6.58049e+57
          1968.70950	         6.74977e+57
          1969.51580	         6.63990e+57
          1970.32210	         7.35248e+57
          1971.12840	         6.57231e+57
          1971.93470	         4.67337e+57
          1972.74100	         4.86387e+57
          1973.54730	         7.00681e+57
          1974.35360	         8.74601e+57
          1975.15990	         9.65776e+57
          1975.96620	         8.21748e+57
          1976.77250	         7.90017e+57
          1977.57880	         7.53558e+57
          1978.38510	         6.53514e+57
          1979.19140	         6.60168e+57
          1979.99770	         7.57223e+57
          1980.80400	         7.17177e+57
          1981.61030	         7.19151e+57
          1982.41660	         5.64866e+57
          1983.22290	         6.41864e+57
          1984.02920	         5.76936e+57
          1984.83550	         5.04557e+57
          1985.64180	         5.90294e+57
          1986.44810	         6.11826e+57
          1987.25440	         5.83625e+57
          1988.06070	         6.23262e+57
          1988.86700	         6.90069e+57
          1989.67330	         6.81549e+57
          1990.47960	         6.22701e+57
          1991.28590	         6.78506e+57
          1992.09220	         6.46481e+57
          1992.89850	         4.48126e+57
          1993.70480	         5.39450e+57
          1994.51110	         5.41345e+57
          1995.31740	         5.38866e+57
          1996.12370	         5.57947e+57
          1996.93000	         6.12102e+57
          1997.73630	         7.69944e+57
          1998.54260	         6.45422e+57
          1999.34890	         5.65678e+57
          2000.15520	         6.75396e+57
          2000.96150	         5.92278e+57
          2001.76780	         5.75046e+57
          2002.57410	         5.44599e+57
          2003.38040	         7.79877e+57
          2004.18670	         6.86020e+57
          2004.99300	         6.84914e+57
          2005.79930	         6.74061e+57
          2006.60560	         6.79270e+57
          2007.41190	         7.03586e+57
          2008.21820	         6.62173e+57
          2009.02450	         6.77463e+57
          2009.83080	         6.38129e+57
          2010.63710	         6.48223e+57
          2011.44340	         6.43716e+57
          2012.24970	         6.54683e+57
          2013.05600	         6.88565e+57
          2013.86230	         6.11721e+57
          2014.66860	         4.51472e+57
          2015.47490	         6.43256e+57
          2016.28120	         5.62013e+57
          2017.08750	         5.00137e+57
          2017.89380	         5.56176e+57
          2018.70010	         5.48339e+57
          2019.50640	         7.01540e+57
          2020.31270	         7.35772e+57
          2021.11900	         7.08789e+57
          2021.92530	         7.27814e+57
          2022.73160	         8.33916e+57
          2023.53790	         7.00610e+57
          2024.34420	         6.27401e+57
          2025.15050	         4.86954e+57
          2025.95680	         4.91923e+57
          2026.76310	         6.18503e+57
          2027.56940	         6.61490e+57
          2028.37570	         6.04730e+57
          2029.18200	         6.58796e+57
          2029.98830	         6.99663e+57
          2030.79460	         6.72312e+57
          2031.60090	         5.30217e+57
          2032.40720	         6.38950e+57
          2033.21350	         6.52932e+57
          2034.01980	         6.27930e+57
          2034.82610	         5.43990e+57
          2035.63240	         5.11276e+57
          2036.43870	         5.43524e+57
          2037.24500	         6.31405e+57
          2038.05130	         6.87612e+57
          2038.85760	         5.62498e+57
          2039.66390	         4.80502e+57
          2040.47020	         5.32009e+57
          2041.27650	         5.56316e+57
          2042.08280	         5.29795e+57
          2042.88910	         5.39943e+57
          2043.69540	         6.77052e+57
          2044.50170	         6.22058e+57
          2045.30800	         6.37363e+57
          2046.11430	         4.53360e+57
          2046.92060	         4.69467e+57
          2047.72690	         5.95199e+57
          2048.53320	         4.89706e+57
          2049.33950	         4.72882e+57
          2050.14580	         5.74413e+57
          2050.95210	         6.39029e+57
          2051.75840	         7.02294e+57
          2052.56470	         5.38147e+57
          2053.37100	         4.91212e+57
          2054.17730	         4.63696e+57
          2054.98360	         4.17878e+57
          2055.78990	         2.89190e+57
          2056.59620	         2.80362e+57
          2057.40250	         4.25447e+57
          2058.20880	         6.41644e+57
          2059.01510	         7.78086e+57
          2059.82140	         6.97413e+57
          2060.62770	         9.51656e+57
          2061.43400	         1.41768e+58
          2062.24030	         9.15114e+57
          2063.04660	         4.07219e+57
          2063.85290	         2.75165e+56
          2064.65920	        -2.33176e+57
          2065.46550	        -7.89530e+57
          2066.27180	        -8.79948e+57
          2067.07810	         2.46288e+57
          2067.88440	         6.10327e+57
          2068.69070	         6.69333e+57
          2069.49700	         6.15020e+57
          2070.30330	         3.01279e+57
          2071.10960	         3.37714e+57
          2071.91590	         6.52673e+57
          2072.72220	         4.86753e+57
          2073.52850	         5.45770e+57
          2074.33480	         5.88782e+57
          2075.14110	         5.76447e+57
          2075.94740	         5.04994e+57
          2076.75370	         5.04635e+57
          2077.56000	         4.60191e+57
          2078.36630	         5.35303e+57
          2079.17260	         5.40671e+57
          2079.97890	         4.65408e+57
          2080.78520	         6.21197e+57
          2081.59150	         4.63966e+57
          2082.39780	         4.57453e+57
          2083.20410	         3.77904e+57
          2084.01040	         3.41051e+57
          2084.81670	         4.13440e+57
          2085.62300	         2.99289e+57
          2086.42930	         2.23512e+57
          2087.23560	         4.01661e+57
          2088.04190	         4.21106e+57
          2088.84820	         4.69149e+57
          2089.65450	         2.23334e+57
          2090.46080	         2.36637e+57
          2091.26710	         5.21996e+57
          2092.07340	         5.39891e+57
          2092.87970	         4.50805e+57
          2093.68600	         9.50527e+56
          2094.49230	        -1.33641e+57
          2095.29860	         2.76149e+57
          2096.10490	         2.47268e+57
          2096.91120	         1.27287e+57
          2097.71750	         4.45879e+56
          2098.52380	         6.80241e+56
          2099.33010	         1.67676e+57
          2100.13640	         9.19249e+56
          2100.94270	         8.79219e+56
          2101.74900	         2.02272e+57
          2102.55530	         3.71123e+57
          2103.36160	         2.31763e+57
          2104.16790	         2.64800e+57
          2104.97420	         4.30635e+57
          2105.78050	         4.02346e+57
          2106.58680	         3.00247e+57
          2107.39310	        -3.99876e+57
          2108.19940	        -3.42163e+57
          2109.00570	        -1.79083e+56
          2109.81200	         1.12103e+57
          2110.61830	         2.10548e+57
          2111.42460	         3.21221e+57
          2112.23090	         2.82163e+57
          2113.03720	        -1.85584e+57
          2113.84350	         2.44782e+57
          2114.64980	         5.77238e+57
          2115.45610	        -7.34214e+56
          2116.26240	        -1.36253e+57
          2117.06870	         1.26824e+57
          2117.87500	         9.34592e+56
          2118.68130	         2.60939e+57
          2119.48760	         4.10030e+57
          2120.29390	        -1.97407e+57
          2121.10020	        -3.60145e+57
          2121.90650	        -6.83451e+56
          2122.71280	        -6.99866e+55
          2123.51910	         3.89817e+57
          2124.32540	        -1.58146e+57
          2125.13170	        -7.12764e+56
          2125.93800	         5.18441e+57
          2126.74430	         1.44121e+57
          2127.55060	        -1.13216e+58
          2128.35690	        -5.76987e+57
          2129.16320	        -3.17445e+57
          2129.96950	        -5.77987e+57
          2130.77580	        -2.08670e+57
          2131.58210	         2.54567e+57
          2132.38840	         5.59845e+56
          2133.19470	        -1.54455e+57
          2134.00100	        -4.01723e+57
          2134.80730	        -1.30518e+58
          2135.61360	         3.68266e+56
          2136.41990	         7.48900e+57
          2137.22620	         1.17412e+58
          2138.03250	         1.08872e+57
          2138.83880	        -7.61735e+57
          2139.64510	        -2.36338e+57
          2140.45140	        -7.45753e+57
          2141.25770	        -6.20162e+57
          2142.06400	         2.59344e+57
          2142.87030	         2.79569e+57
          2143.67660	         4.88725e+57
          2144.48290	         1.65236e+57
          2145.28920	         6.12955e+57
          2146.09550	        -2.31221e+57
          2146.90180	        -1.22329e+58
          2147.70810	        -9.11366e+57
          2148.51440	        -8.14998e+57
          2149.32070	        -1.63477e+58
          2150.12700	        -9.95684e+57
          2150.93330	        -5.99987e+57
          2151.73960	        -5.32517e+57
          2152.54590	         1.82250e+56
          2153.35220	         1.54641e+57
          2154.15850	        -3.99161e+57
          2154.96480	        -9.36213e+56
          2155.77110	        -6.34404e+57
          2156.57740	        -1.53973e+58
          2157.38370	        -1.56433e+57
          2158.19000	         3.21404e+57
          2158.99630	        -5.63724e+57
          2159.80260	        -1.44848e+58
          2160.60890	        -7.36130e+57
          2161.41520	         3.02078e+57
          2162.22150	        -2.89442e+57
          2163.02780	         1.50608e+57
          2163.83410	        -1.73440e+57
          2164.64040	        -3.89793e+57
          2165.44670	        -5.89666e+57
          2166.25300	        -7.55089e+57
          2167.05930	         7.38134e+56
          2167.86560	        -4.61722e+57
          2168.67190	        -8.15953e+57
          2169.47820	        -8.58535e+57
          2170.28450	        -2.29968e+58
          2171.09080	        -7.43763e+56
          2171.89710	         1.08935e+57
          2172.70340	         2.38717e+57
          2173.50970	        -7.33483e+57
          2174.31600	        -5.19207e+57
          2175.12230	        -7.81305e+57
          2175.92860	        -4.64307e+57
          2176.73490	        -9.04446e+57
          2177.54120	        -7.40878e+57
          2178.34750	        -4.11479e+57
          2179.15380	                 nan
          2179.96010	                 nan
          2180.76640	                 nan
          2181.57270	                 nan
          2182.37900	                 nan
          2183.18530	                 nan
          2183.99160	                 nan
          2184.79790	                 nan
          2185.60420	                 nan
          2186.41050	                 nan
          2187.21680	                 nan
          2188.02310	                 nan
          2188.82940	                 nan
          2189.63570	                 nan
          2190.44200	                 nan
          2191.24830	                 nan
          2192.05460	                 nan
          2192.86090	                 nan
          2193.66720	                 nan
          2194.47350	                 nan
          2195.27980	                 nan
          2196.08610	                 nan
          2196.89240	                 nan
          2197.69870	                 nan
          2198.50500	                 nan
          2199.31130	                 nan
          2200.11760	                 nan
          2200.92390	                 nan
          2201.73020	                 nan
          2202.53650	                 nan
          2203.34280	                 nan
          2204.14910	                 nan
          2204.95540	                 nan
          2205.76170	                 nan
          2206.56800	                 nan
          2207.37430	                 nan
          2208.18060	                 nan
          2208.98690	                 nan
          2209.79320	                 nan
          2210.59950	                 nan
          2211.40580	                 nan
          2212.21210	                 nan
          2213.01840	                 nan
          2213.82470	                 nan
          2214.63100	                 nan
          2215.43730	         0.00000e+00
