#sample_319_stacked_spectrum_rest_UV-bands_median_H-alpha_noDC.txt
#median Lum: 1.69250e+42
#Rest-frame wavelength (A) | Luminosity (erg/s/A)
#
          1110.00000	         0.00000e+00
          1110.80630	        -1.37433e+59
          1111.61260	        -2.83319e+58
          1112.41890	         2.06401e+59
          1113.22520	        -2.24980e+59
          1114.03150	        -1.91706e+59
          1114.83780	         1.34023e+59
          1115.64410	         1.03788e+59
          1116.45040	         1.29869e+59
          1117.25670	         4.12613e+58
          1118.06300	         3.11479e+59
          1118.86930	         9.83791e+58
          1119.67560	         1.88986e+59
          1120.48190	         7.46498e+58
          1121.28820	        -2.38875e+58
          1122.09450	        -9.56692e+57
          1122.90080	         5.06279e+58
          1123.70710	         9.09371e+58
          1124.51340	         7.67181e+58
          1125.31970	         2.93356e+58
          1126.12600	         1.74174e+58
          1126.93230	        -3.62163e+58
          1127.73860	         3.35839e+56
          1128.54490	        -7.33876e+57
          1129.35120	         1.80714e+58
          1130.15750	         3.12438e+58
          1130.96380	        -1.36683e+58
          1131.77010	         2.43096e+58
          1132.57640	         3.88387e+58
          1133.38270	         2.57791e+58
          1134.18900	         1.50100e+58
          1134.99530	         3.47836e+58
          1135.80160	        -6.73538e+57
          1136.60790	         1.79329e+57
          1137.41420	        -1.29401e+58
          1138.22050	         2.80064e+58
          1139.02680	         2.80861e+58
          1139.83310	         1.26855e+58
          1140.63940	         1.86487e+58
          1141.44570	        -1.49046e+58
          1142.25200	         1.10590e+58
          1143.05830	         3.68216e+58
          1143.86460	         3.93992e+58
          1144.67090	         2.19313e+58
          1145.47720	         1.36037e+58
          1146.28350	         1.36786e+58
          1147.08980	         1.17641e+58
          1147.89610	         1.24090e+58
          1148.70240	         2.59022e+58
          1149.50870	         2.11094e+58
          1150.31500	         1.48351e+58
          1151.12130	         1.74621e+58
          1151.92760	         2.20904e+57
          1152.73390	         1.89292e+57
          1153.54020	         6.44515e+57
          1154.34650	         2.46259e+58
          1155.15280	         1.47034e+58
          1155.95910	         1.41207e+58
          1156.76540	         1.31937e+58
          1157.57170	         3.70529e+57
          1158.37800	        -7.79467e+57
          1159.18430	        -4.72275e+57
          1159.99060	         7.89553e+57
          1160.79690	         1.74936e+57
          1161.60320	         2.26059e+58
          1162.40950	         1.49293e+58
          1163.21580	         1.49852e+58
          1164.02210	         1.67530e+58
          1164.82840	         8.23252e+57
          1165.63470	         1.80372e+58
          1166.44100	         3.16920e+58
          1167.24730	         2.56579e+58
          1168.05360	         1.70726e+58
          1168.85990	         5.28447e+57
          1169.66620	         9.27080e+56
          1170.47250	         1.30562e+58
          1171.27880	         2.39784e+58
          1172.08510	         2.23520e+58
          1172.89140	         1.14844e+58
          1173.69770	         1.06738e+58
          1174.50400	         1.29065e+58
          1175.31030	         1.54559e+58
          1176.11660	         1.40138e+58
          1176.92290	         1.63843e+58
          1177.72920	         1.26961e+58
          1178.53550	         8.95899e+57
          1179.34180	         6.44027e+57
          1180.14810	         1.01607e+58
          1180.95440	         1.41185e+58
          1181.76070	         9.33390e+57
          1182.56700	         1.29384e+58
          1183.37330	         9.89032e+57
          1184.17960	         1.06427e+58
          1184.98590	         1.06774e+58
          1185.79220	         8.86239e+57
          1186.59850	         1.18148e+58
          1187.40480	         1.03111e+58
          1188.21110	         1.68257e+58
          1189.01740	         9.12442e+57
          1189.82370	         1.01139e+58
          1190.63000	         1.38031e+58
          1191.43630	         1.63495e+58
          1192.24260	         1.19064e+58
          1193.04890	         1.27685e+58
          1193.85520	         1.45816e+58
          1194.66150	         1.02364e+58
          1195.46780	         1.02142e+58
          1196.27410	         1.42057e+58
          1197.08040	         1.15288e+58
          1197.88670	         1.43604e+58
          1198.69300	         1.59926e+58
          1199.49930	         1.99932e+58
          1200.30560	         1.67406e+58
          1201.11190	         1.48098e+58
          1201.91820	         1.22314e+58
          1202.72450	         9.58491e+57
          1203.53080	         1.62371e+58
          1204.33710	         8.96872e+57
          1205.14340	         6.44267e+57
          1205.94970	         3.88491e+57
          1206.75600	         8.17158e+57
          1207.56230	         6.31058e+57
          1208.36860	         9.19280e+57
          1209.17490	         5.60908e+57
          1209.98120	         9.24641e+57
          1210.78750	         9.95668e+57
          1211.59380	         1.44107e+58
          1212.40010	         1.91333e+58
          1213.20640	         1.90585e+58
          1214.01270	         1.67351e+58
          1214.81900	         2.47838e+58
          1215.62530	         4.41173e+58
          1216.43160	         9.14888e+58
          1217.23790	         1.56039e+59
          1218.04420	         1.19183e+59
          1218.85050	         8.78770e+58
          1219.65680	         5.76694e+58
          1220.46310	         3.30542e+58
          1221.26940	         2.17689e+58
          1222.07570	         1.40249e+58
          1222.88200	         8.20344e+57
          1223.68830	         6.67953e+57
          1224.49460	         7.70521e+57
          1225.30090	         7.88050e+57
          1226.10720	         8.64995e+57
          1226.91350	         7.46906e+57
          1227.71980	         1.08297e+58
          1228.52610	         1.54335e+58
          1229.33240	         1.15995e+58
          1230.13870	         1.14866e+58
          1230.94500	         8.20851e+57
          1231.75130	         4.51281e+57
          1232.55760	         1.07335e+58
          1233.36390	         1.11241e+58
          1234.17020	         8.60604e+57
          1234.97650	         4.89594e+57
          1235.78280	         5.98846e+57
          1236.58910	         1.01871e+58
          1237.39540	         1.24241e+58
          1238.20170	         1.30128e+58
          1239.00800	         1.57895e+58
          1239.81430	         1.61570e+58
          1240.62060	         9.93838e+57
          1241.42690	         8.94363e+57
          1242.23320	         1.23245e+58
          1243.03950	         1.01360e+58
          1243.84580	         8.18451e+57
          1244.65210	         9.58935e+57
          1245.45840	         1.10739e+58
          1246.26470	         8.55729e+57
          1247.07100	         8.51513e+57
          1247.87730	         9.12922e+57
          1248.68360	         4.62689e+57
          1249.48990	         3.78546e+57
          1250.29620	         8.52815e+57
          1251.10250	         9.09852e+57
          1251.90880	         6.33086e+57
          1252.71510	         6.71939e+57
          1253.52140	         7.11873e+57
          1254.32770	         8.71864e+57
          1255.13400	         1.40727e+58
          1255.94030	         1.17810e+58
          1256.74660	         9.60310e+57
          1257.55290	         9.59121e+57
          1258.35920	         8.09571e+57
          1259.16550	         6.50720e+57
          1259.97180	         4.35095e+57
          1260.77810	         6.80244e+57
          1261.58440	         8.97448e+57
          1262.39070	         7.91610e+57
          1263.19700	         8.01114e+57
          1264.00330	         1.04697e+58
          1264.80960	         1.13150e+58
          1265.61590	         1.32433e+58
          1266.42220	         1.28142e+58
          1267.22850	         1.04574e+58
          1268.03480	         1.37219e+58
          1268.84110	         1.64154e+58
          1269.64740	         1.37280e+58
          1270.45370	         1.32213e+58
          1271.26000	         1.23232e+58
          1272.06630	         1.17308e+58
          1272.87260	         1.06994e+58
          1273.67890	         1.03099e+58
          1274.48520	         1.06717e+58
          1275.29150	         1.37088e+58
          1276.09780	         1.35432e+58
          1276.90410	         1.39148e+58
          1277.71040	         1.13287e+58
          1278.51670	         1.16511e+58
          1279.32300	         1.41513e+58
          1280.12930	         1.18777e+58
          1280.93560	         1.01927e+58
          1281.74190	         1.12055e+58
          1282.54820	         1.16570e+58
          1283.35450	         1.20297e+58
          1284.16080	         1.14289e+58
          1284.96710	         1.36991e+58
          1285.77340	         1.40296e+58
          1286.57970	         1.33695e+58
          1287.38600	         1.50808e+58
          1288.19230	         1.77891e+58
          1288.99860	         1.78234e+58
          1289.80490	         1.23254e+58
          1290.61120	         1.25895e+58
          1291.41750	         1.45586e+58
          1292.22380	         1.25194e+58
          1293.03010	         1.06787e+58
          1293.83640	         1.01860e+58
          1294.64270	         1.00813e+58
          1295.44900	         7.88076e+57
          1296.25530	         7.65004e+57
          1297.06160	         9.09097e+57
          1297.86790	         1.10003e+58
          1298.67420	         1.17783e+58
          1299.48050	         1.14893e+58
          1300.28680	         1.25191e+58
          1301.09310	         7.96594e+57
          1301.89940	         2.67707e+57
          1302.70570	         4.51808e+57
          1303.51200	         7.88987e+57
          1304.31830	         8.81356e+57
          1305.12460	         1.04648e+58
          1305.93090	         1.14914e+58
          1306.73720	         1.30656e+58
          1307.54350	         1.44611e+58
          1308.34980	         1.52878e+58
          1309.15610	         1.57093e+58
          1309.96240	         1.43926e+58
          1310.76870	         1.24458e+58
          1311.57500	         1.03200e+58
          1312.38130	         1.04176e+58
          1313.18760	         1.25933e+58
          1313.99390	         1.42503e+58
          1314.80020	         1.62055e+58
          1315.60650	         1.52992e+58
          1316.41280	         1.44581e+58
          1317.21910	         1.17785e+58
          1318.02540	         1.12516e+58
          1318.83170	         1.28916e+58
          1319.63800	         1.20617e+58
          1320.44430	         1.16133e+58
          1321.25060	         1.28848e+58
          1322.05690	         1.22771e+58
          1322.86320	         1.22327e+58
          1323.66950	         1.23727e+58
          1324.47580	         9.21339e+57
          1325.28210	         1.01865e+58
          1326.08840	         1.20715e+58
          1326.89470	         1.40370e+58
          1327.70100	         1.12822e+58
          1328.50730	         8.36402e+57
          1329.31360	         9.86412e+57
          1330.11990	         1.02460e+58
          1330.92620	         8.10359e+57
          1331.73250	         1.07820e+58
          1332.53880	         1.02740e+58
          1333.34510	         8.94142e+57
          1334.15140	         9.77633e+57
          1334.95770	         9.70068e+57
          1335.76400	         1.15602e+58
          1336.57030	         1.15080e+58
          1337.37660	         1.04741e+58
          1338.18290	         1.13222e+58
          1338.98920	         1.21928e+58
          1339.79550	         1.11729e+58
          1340.60180	         1.06880e+58
          1341.40810	         1.28201e+58
          1342.21440	         1.17336e+58
          1343.02070	         1.22828e+58
          1343.82700	         1.27057e+58
          1344.63330	         1.15441e+58
          1345.43960	         1.26716e+58
          1346.24590	         1.15386e+58
          1347.05220	         1.10096e+58
          1347.85850	         9.93358e+57
          1348.66480	         1.05235e+58
          1349.47110	         1.26050e+58
          1350.27740	         9.39551e+57
          1351.08370	         9.88083e+57
          1351.89000	         1.27813e+58
          1352.69630	         1.21259e+58
          1353.50260	         1.10197e+58
          1354.30890	         1.11874e+58
          1355.11520	         1.21794e+58
          1355.92150	         1.23006e+58
          1356.72780	         1.17063e+58
          1357.53410	         1.12951e+58
          1358.34040	         1.19593e+58
          1359.14670	         1.16106e+58
          1359.95300	         1.17914e+58
          1360.75930	         1.18609e+58
          1361.56560	         1.19981e+58
          1362.37190	         1.18084e+58
          1363.17820	         9.90476e+57
          1363.98450	         1.04045e+58
          1364.79080	         1.29449e+58
          1365.59710	         1.41948e+58
          1366.40340	         1.32469e+58
          1367.20970	         1.19131e+58
          1368.01600	         9.93011e+57
          1368.82230	         9.42393e+57
          1369.62860	         1.14988e+58
          1370.43490	         1.01151e+58
          1371.24120	         9.47203e+57
          1372.04750	         1.02450e+58
          1372.85380	         1.17860e+58
          1373.66010	         1.27750e+58
          1374.46640	         1.11561e+58
          1375.27270	         1.03425e+58
          1376.07900	         1.00141e+58
          1376.88530	         1.03795e+58
          1377.69160	         1.00805e+58
          1378.49790	         8.08498e+57
          1379.30420	         7.69865e+57
          1380.11050	         9.83255e+57
          1380.91680	         9.01156e+57
          1381.72310	         8.59830e+57
          1382.52940	         9.74424e+57
          1383.33570	         9.51902e+57
          1384.14200	         1.04290e+58
          1384.94830	         1.09524e+58
          1385.75460	         1.08290e+58
          1386.56090	         1.08743e+58
          1387.36720	         1.00249e+58
          1388.17350	         1.32965e+58
          1388.97980	         1.15172e+58
          1389.78610	         9.02240e+57
          1390.59240	         9.17968e+57
          1391.39870	         8.06143e+57
          1392.20500	         8.19771e+57
          1393.01130	         8.58845e+57
          1393.81760	         9.28342e+57
          1394.62390	         8.33336e+57
          1395.43020	         7.57315e+57
          1396.23650	         6.54578e+57
          1397.04280	         6.87401e+57
          1397.84910	         9.09219e+57
          1398.65540	         1.01787e+58
          1399.46170	         9.89371e+57
          1400.26800	         8.13178e+57
          1401.07430	         6.85824e+57
          1401.88060	         8.10216e+57
          1402.68690	         9.55793e+57
          1403.49320	         8.96299e+57
          1404.29950	         9.22617e+57
          1405.10580	         1.08678e+58
          1405.91210	         1.12786e+58
          1406.71840	         1.09879e+58
          1407.52470	         1.07410e+58
          1408.33100	         1.02331e+58
          1409.13730	         1.16429e+58
          1409.94360	         1.18915e+58
          1410.74990	         1.16897e+58
          1411.55620	         1.00628e+58
          1412.36250	         9.10367e+57
          1413.16880	         1.03102e+58
          1413.97510	         8.48655e+57
          1414.78140	         9.26089e+57
          1415.58770	         1.16395e+58
          1416.39400	         1.01767e+58
          1417.20030	         1.10766e+58
          1418.00660	         1.15605e+58
          1418.81290	         1.06786e+58
          1419.61920	         1.14124e+58
          1420.42550	         1.28265e+58
          1421.23180	         1.26254e+58
          1422.03810	         1.20697e+58
          1422.84440	         9.42612e+57
          1423.65070	         1.14584e+58
          1424.45700	         1.12803e+58
          1425.26330	         7.85273e+57
          1426.06960	         7.13601e+57
          1426.87590	         8.92794e+57
          1427.68220	         9.56193e+57
          1428.48850	         9.48489e+57
          1429.29480	         1.07073e+58
          1430.10110	         9.24273e+57
          1430.90740	         8.61017e+57
          1431.71370	         9.57455e+57
          1432.52000	         1.01217e+58
          1433.32630	         9.63081e+57
          1434.13260	         8.88112e+57
          1434.93890	         8.45840e+57
          1435.74520	         9.16606e+57
          1436.55150	         9.47018e+57
          1437.35780	         9.27430e+57
          1438.16410	         9.78637e+57
          1438.97040	         9.80840e+57
          1439.77670	         9.57566e+57
          1440.58300	         9.06791e+57
          1441.38930	         9.47596e+57
          1442.19560	         1.02636e+58
          1443.00190	         9.71561e+57
          1443.80820	         1.09044e+58
          1444.61450	         1.03656e+58
          1445.42080	         9.73327e+57
          1446.22710	         1.07795e+58
          1447.03340	         9.45450e+57
          1447.83970	         1.01633e+58
          1448.64600	         1.17661e+58
          1449.45230	         1.07913e+58
          1450.25860	         1.01002e+58
          1451.06490	         9.24462e+57
          1451.87120	         7.51134e+57
          1452.67750	         6.83624e+57
          1453.48380	         8.46403e+57
          1454.29010	         8.11710e+57
          1455.09640	         6.99277e+57
          1455.90270	         8.60996e+57
          1456.70900	         9.11787e+57
          1457.51530	         1.04381e+58
          1458.32160	         1.19052e+58
          1459.12790	         1.14762e+58
          1459.93420	         1.05201e+58
          1460.74050	         8.62955e+57
          1461.54680	         9.50282e+57
          1462.35310	         8.15126e+57
          1463.15940	         9.79514e+57
          1463.96570	         1.19735e+58
          1464.77200	         1.13849e+58
          1465.57830	         1.12808e+58
          1466.38460	         1.01574e+58
          1467.19090	         8.59190e+57
          1467.99720	         8.91251e+57
          1468.80350	         9.47616e+57
          1469.60980	         9.60499e+57
          1470.41610	         9.67267e+57
          1471.22240	         8.62806e+57
          1472.02870	         9.15008e+57
          1472.83500	         9.92037e+57
          1473.64130	         9.63881e+57
          1474.44760	         9.94388e+57
          1475.25390	         9.14580e+57
          1476.06020	         9.49280e+57
          1476.86650	         9.72194e+57
          1477.67280	         8.52023e+57
          1478.47910	         7.96537e+57
          1479.28540	         8.75174e+57
          1480.09170	         8.76683e+57
          1480.89800	         8.26846e+57
          1481.70430	         7.94152e+57
          1482.51060	         8.49832e+57
          1483.31690	         7.87289e+57
          1484.12320	         8.06037e+57
          1484.92950	         7.70548e+57
          1485.73580	         7.97842e+57
          1486.54210	         8.18938e+57
          1487.34840	         8.75764e+57
          1488.15470	         9.06807e+57
          1488.96100	         9.15911e+57
          1489.76730	         8.97218e+57
          1490.57360	         8.06435e+57
          1491.37990	         7.36288e+57
          1492.18620	         8.06382e+57
          1492.99250	         8.47567e+57
          1493.79880	         7.95101e+57
          1494.60510	         8.42933e+57
          1495.41140	         7.84154e+57
          1496.21770	         7.44298e+57
          1497.02400	         1.06889e+58
          1497.83030	         9.92666e+57
          1498.63660	         6.71031e+57
          1499.44290	         6.71834e+57
          1500.24920	         8.20646e+57
          1501.05550	         8.26105e+57
          1501.86180	         8.94638e+57
          1502.66810	         9.92888e+57
          1503.47440	         9.34736e+57
          1504.28070	         8.59501e+57
          1505.08700	         9.41560e+57
          1505.89330	         9.85131e+57
          1506.69960	         8.67261e+57
          1507.50590	         9.61737e+57
          1508.31220	         9.40211e+57
          1509.11850	         9.32263e+57
          1509.92480	         9.40031e+57
          1510.73110	         8.29894e+57
          1511.53740	         7.78567e+57
          1512.34370	         7.88552e+57
          1513.15000	         8.60815e+57
          1513.95630	         9.51696e+57
          1514.76260	         9.72975e+57
          1515.56890	         8.35367e+57
          1516.37520	         8.73479e+57
          1517.18150	         8.88953e+57
          1517.98780	         7.00053e+57
          1518.79410	         7.91610e+57
          1519.60040	         9.19817e+57
          1520.40670	         1.05332e+58
          1521.21300	         1.01711e+58
          1522.01930	         8.58690e+57
          1522.82560	         8.55952e+57
          1523.63190	         9.61406e+57
          1524.43820	         8.41955e+57
          1525.24450	         6.72884e+57
          1526.05080	         6.33159e+57
          1526.85710	         6.23597e+57
          1527.66340	         6.57976e+57
          1528.46970	         7.29507e+57
          1529.27600	         7.52151e+57
          1530.08230	         7.78039e+57
          1530.88860	         7.91333e+57
          1531.69490	         8.06135e+57
          1532.50120	         8.47790e+57
          1533.30750	         8.85857e+57
          1534.11380	         9.57314e+57
          1534.92010	         9.85926e+57
          1535.72640	         9.36569e+57
          1536.53270	         9.76533e+57
          1537.33900	         9.36771e+57
          1538.14530	         9.27161e+57
          1538.95160	         9.47166e+57
          1539.75790	         7.64965e+57
          1540.56420	         7.85787e+57
          1541.37050	         8.07734e+57
          1542.17680	         7.72537e+57
          1542.98310	         7.58747e+57
          1543.78940	         8.43647e+57
          1544.59570	         8.15978e+57
          1545.40200	         7.67867e+57
          1546.20830	         9.39647e+57
          1547.01460	         1.10491e+58
          1547.82090	         1.15313e+58
          1548.62720	         1.18678e+58
          1549.43350	         1.22820e+58
          1550.23980	         1.16584e+58
          1551.04610	         1.24901e+58
          1551.85240	         1.20624e+58
          1552.65870	         1.18202e+58
          1553.46500	         1.03367e+58
          1554.27130	         1.00000e+58
          1555.07760	         1.01730e+58
          1555.88390	         9.19013e+57
          1556.69020	         9.14061e+57
          1557.49650	         8.91274e+57
          1558.30280	         8.29301e+57
          1559.10910	         8.10812e+57
          1559.91540	         9.05558e+57
          1560.72170	         9.07696e+57
          1561.52800	         9.31438e+57
          1562.33430	         9.19385e+57
          1563.14060	         7.59682e+57
          1563.94690	         7.74156e+57
          1564.75320	         9.01070e+57
          1565.55950	         7.83715e+57
          1566.36580	         7.71337e+57
          1567.17210	         8.70481e+57
          1567.97840	         9.46030e+57
          1568.78470	         9.44427e+57
          1569.59100	         9.48808e+57
          1570.39730	         8.77678e+57
          1571.20360	         7.71832e+57
          1572.00990	         7.76650e+57
          1572.81620	         8.68901e+57
          1573.62250	         9.45528e+57
          1574.42880	         8.91849e+57
          1575.23510	         6.79306e+57
          1576.04140	         7.69948e+57
          1576.84770	         8.87835e+57
          1577.65400	         8.59566e+57
          1578.46030	         9.61957e+57
          1579.26660	         1.05001e+58
          1580.07290	         9.72202e+57
          1580.87920	         7.57512e+57
          1581.68550	         8.08071e+57
          1582.49180	         8.97420e+57
          1583.29810	         8.39380e+57
          1584.10440	         8.33213e+57
          1584.91070	         8.29439e+57
          1585.71700	         8.05913e+57
          1586.52330	         8.58917e+57
          1587.32960	         8.66723e+57
          1588.13590	         9.29734e+57
          1588.94220	         9.34890e+57
          1589.74850	         9.20815e+57
          1590.55480	         9.18096e+57
          1591.36110	         8.46404e+57
          1592.16740	         8.39479e+57
          1592.97370	         7.98335e+57
          1593.78000	         8.89114e+57
          1594.58630	         9.69379e+57
          1595.39260	         8.94257e+57
          1596.19890	         9.15518e+57
          1597.00520	         9.87534e+57
          1597.81150	         8.92608e+57
          1598.61780	         7.46743e+57
          1599.42410	         7.36756e+57
          1600.23040	         6.62033e+57
          1601.03670	         7.53710e+57
          1601.84300	         7.46580e+57
          1602.64930	         8.28781e+57
          1603.45560	         9.19796e+57
          1604.26190	         8.53171e+57
          1605.06820	         7.90596e+57
          1605.87450	         7.36552e+57
          1606.68080	         7.89604e+57
          1607.48710	         7.03002e+57
          1608.29340	         6.14016e+57
          1609.09970	         7.09331e+57
          1609.90600	         8.04346e+57
          1610.71230	         7.18611e+57
          1611.51860	         6.34045e+57
          1612.32490	         7.16872e+57
          1613.13120	         8.91885e+57
          1613.93750	         8.36881e+57
          1614.74380	         8.00725e+57
          1615.55010	         8.26352e+57
          1616.35640	         8.85171e+57
          1617.16270	         1.02237e+58
          1617.96900	         1.01292e+58
          1618.77530	         8.64068e+57
          1619.58160	         7.85669e+57
          1620.38790	         8.39176e+57
          1621.19420	         8.87098e+57
          1622.00050	         8.32879e+57
          1622.80680	         8.29254e+57
          1623.61310	         8.25398e+57
          1624.41940	         6.97359e+57
          1625.22570	         8.97224e+57
          1626.03200	         9.09552e+57
          1626.83830	         8.49667e+57
          1627.64460	         7.71881e+57
          1628.45090	         7.46512e+57
          1629.25720	         9.98013e+57
          1630.06350	         1.00666e+58
          1630.86980	         6.52711e+57
          1631.67610	         7.91049e+57
          1632.48240	         9.17868e+57
          1633.28870	         7.97042e+57
          1634.09500	         8.72776e+57
          1634.90130	         1.04160e+58
          1635.70760	         9.55561e+57
          1636.51390	         8.57839e+57
          1637.32020	         8.08293e+57
          1638.12650	         8.71276e+57
          1638.93280	         1.03222e+58
          1639.73910	         1.04202e+58
          1640.54540	         8.91381e+57
          1641.35170	         8.17507e+57
          1642.15800	         9.37309e+57
          1642.96430	         8.75528e+57
          1643.77060	         7.25375e+57
          1644.57690	         6.64099e+57
          1645.38320	         7.33106e+57
          1646.18950	         7.35817e+57
          1646.99580	         8.72925e+57
          1647.80210	         8.27311e+57
          1648.60840	         7.93729e+57
          1649.41470	         9.50832e+57
          1650.22100	         7.94163e+57
          1651.02730	         7.31375e+57
          1651.83360	         7.08821e+57
          1652.63990	         7.31893e+57
          1653.44620	         9.02385e+57
          1654.25250	         7.70315e+57
          1655.05880	         7.14463e+57
          1655.86510	         7.51719e+57
          1656.67140	         8.62756e+57
          1657.47770	         8.60823e+57
          1658.28400	         8.53464e+57
          1659.09030	         9.12127e+57
          1659.89660	         9.88751e+57
          1660.70290	         1.11670e+58
          1661.50920	         9.81831e+57
          1662.31550	         8.03923e+57
          1663.12180	         8.65149e+57
          1663.92810	         9.97132e+57
          1664.73440	         1.18668e+58
          1665.54070	         1.33143e+58
          1666.34700	         1.34993e+58
          1667.15330	         1.15265e+58
          1667.95960	         8.92413e+57
          1668.76590	         7.01757e+57
          1669.57220	         7.16708e+57
          1670.37850	         7.88982e+57
          1671.18480	         8.33880e+57
          1671.99110	         7.76790e+57
          1672.79740	         7.02418e+57
          1673.60370	         6.55652e+57
          1674.41000	         6.92500e+57
          1675.21630	         7.30317e+57
          1676.02260	         7.58369e+57
          1676.82890	         6.50675e+57
          1677.63520	         7.01641e+57
          1678.44150	         8.12923e+57
          1679.24780	         9.26426e+57
          1680.05410	         8.33542e+57
          1680.86040	         6.45526e+57
          1681.66670	         6.71561e+57
          1682.47300	         8.17720e+57
          1683.27930	         8.13966e+57
          1684.08560	         8.48911e+57
          1684.89190	         8.22779e+57
          1685.69820	         6.36655e+57
          1686.50450	         5.42102e+57
          1687.31080	         7.32684e+57
          1688.11710	         8.41928e+57
          1688.92340	         7.30674e+57
          1689.72970	         7.53978e+57
          1690.53600	         7.28607e+57
          1691.34230	         6.93801e+57
          1692.14860	         7.90194e+57
          1692.95490	         7.18242e+57
          1693.76120	         6.58095e+57
          1694.56750	         6.67790e+57
          1695.37380	         9.06709e+57
          1696.18010	         9.06849e+57
          1696.98640	         8.53812e+57
          1697.79270	         9.05513e+57
          1698.59900	         8.18921e+57
          1699.40530	         6.75843e+57
          1700.21160	         7.18340e+57
          1701.01790	         8.66525e+57
          1701.82420	         7.20302e+57
          1702.63050	         7.47414e+57
          1703.43680	         9.71992e+57
          1704.24310	         1.05242e+58
          1705.04940	         7.60006e+57
          1705.85570	         6.29610e+57
          1706.66200	         8.45859e+57
          1707.46830	         9.38833e+57
          1708.27460	         8.16537e+57
          1709.08090	         6.03294e+57
          1709.88720	         5.73332e+57
          1710.69350	         6.85487e+57
          1711.49980	         7.02609e+57
          1712.30610	         7.22449e+57
          1713.11240	         8.67981e+57
          1713.91870	         9.49751e+57
          1714.72500	         8.72752e+57
          1715.53130	         8.74621e+57
          1716.33760	         8.51437e+57
          1717.14390	         7.42298e+57
          1717.95020	         9.23020e+57
          1718.75650	         9.57499e+57
          1719.56280	         8.73081e+57
          1720.36910	         7.73239e+57
          1721.17540	         7.62646e+57
          1721.98170	         6.64067e+57
          1722.78800	         6.25045e+57
          1723.59430	         7.52569e+57
          1724.40060	         8.43635e+57
          1725.20690	         8.69201e+57
          1726.01320	         8.15287e+57
          1726.81950	         8.16381e+57
          1727.62580	         8.05157e+57
          1728.43210	         7.63451e+57
          1729.23840	         7.86368e+57
          1730.04470	         8.04693e+57
          1730.85100	         8.73807e+57
          1731.65730	         8.60440e+57
          1732.46360	         8.82976e+57
          1733.26990	         7.71976e+57
          1734.07620	         6.65733e+57
          1734.88250	         7.25571e+57
          1735.68880	         7.39605e+57
          1736.49510	         8.48828e+57
          1737.30140	         8.52703e+57
          1738.10770	         7.20538e+57
          1738.91400	         8.05046e+57
          1739.72030	         7.05704e+57
          1740.52660	         5.85300e+57
          1741.33290	         6.01883e+57
          1742.13920	         6.64830e+57
          1742.94550	         7.68906e+57
          1743.75180	         7.31919e+57
          1744.55810	         7.10374e+57
          1745.36440	         7.32363e+57
          1746.17070	         5.64792e+57
          1746.97700	         5.55068e+57
          1747.78330	         6.88429e+57
          1748.58960	         6.90884e+57
          1749.39590	         7.21035e+57
          1750.20220	         7.96080e+57
          1751.00850	         5.74325e+57
          1751.81480	         5.52711e+57
          1752.62110	         6.90562e+57
          1753.42740	         8.45726e+57
          1754.23370	         7.07873e+57
          1755.04000	         6.91892e+57
          1755.84630	         7.93826e+57
          1756.65260	         9.37678e+57
          1757.45890	         9.43734e+57
          1758.26520	         8.25366e+57
          1759.07150	         8.59720e+57
          1759.87780	         8.01392e+57
          1760.68410	         7.56334e+57
          1761.49040	         8.26651e+57
          1762.29670	         7.63585e+57
          1763.10300	         8.68093e+57
          1763.90930	         8.63153e+57
          1764.71560	         7.66788e+57
          1765.52190	         7.17054e+57
          1766.32820	         7.41596e+57
          1767.13450	         7.16359e+57
          1767.94080	         7.34150e+57
          1768.74710	         8.17005e+57
          1769.55340	         6.59938e+57
          1770.35970	         5.63684e+57
          1771.16600	         7.03377e+57
          1771.97230	         7.89445e+57
          1772.77860	         7.75403e+57
          1773.58490	         7.36051e+57
          1774.39120	         6.16487e+57
          1775.19750	         6.19147e+57
          1776.00380	         6.95307e+57
          1776.81010	         6.99092e+57
          1777.61640	         5.72768e+57
          1778.42270	         7.14215e+57
          1779.22900	         8.20094e+57
          1780.03530	         7.36662e+57
          1780.84160	         6.71179e+57
          1781.64790	         8.29170e+57
          1782.45420	         8.36252e+57
          1783.26050	         6.26384e+57
          1784.06680	         7.14221e+57
          1784.87310	         7.17055e+57
          1785.67940	         7.37827e+57
          1786.48570	         7.23602e+57
          1787.29200	         6.95343e+57
          1788.09830	         5.93432e+57
          1788.90460	         5.28820e+57
          1789.71090	         5.59982e+57
          1790.51720	         4.90753e+57
          1791.32350	         6.25108e+57
          1792.12980	         8.62812e+57
          1792.93610	         8.52147e+57
          1793.74240	         7.57555e+57
          1794.54870	         8.10520e+57
          1795.35500	         8.60059e+57
          1796.16130	         7.77745e+57
          1796.96760	         6.17806e+57
          1797.77390	         6.67095e+57
          1798.58020	         7.25941e+57
          1799.38650	         7.09597e+57
          1800.19280	         6.86922e+57
          1800.99910	         7.43201e+57
          1801.80540	         7.66142e+57
          1802.61170	         7.81961e+57
          1803.41800	         8.68032e+57
          1804.22430	         7.12248e+57
          1805.03060	         6.97772e+57
          1805.83690	         7.21396e+57
          1806.64320	         7.42091e+57
          1807.44950	         7.66560e+57
          1808.25580	         6.64349e+57
          1809.06210	         7.74406e+57
          1809.86840	         7.40124e+57
          1810.67470	         7.92853e+57
          1811.48100	         9.18146e+57
          1812.28730	         8.50619e+57
          1813.09360	         6.90813e+57
          1813.89990	         7.32533e+57
          1814.70620	         7.06065e+57
          1815.51250	         7.87031e+57
          1816.31880	         7.97275e+57
          1817.12510	         7.90418e+57
          1817.93140	         7.55467e+57
          1818.73770	         7.17464e+57
          1819.54400	         8.68830e+57
          1820.35030	         8.75268e+57
          1821.15660	         6.27835e+57
          1821.96290	         7.30542e+57
          1822.76920	         8.21179e+57
          1823.57550	         7.49972e+57
          1824.38180	         6.98446e+57
          1825.18810	         7.65798e+57
          1825.99440	         8.01385e+57
          1826.80070	         7.48390e+57
          1827.60700	         5.97800e+57
          1828.41330	         5.76473e+57
          1829.21960	         6.72230e+57
          1830.02590	         6.40586e+57
          1830.83220	         8.18287e+57
          1831.63850	         7.52156e+57
          1832.44480	         5.87831e+57
          1833.25110	         6.71763e+57
          1834.05740	         8.35055e+57
          1834.86370	         7.96817e+57
          1835.67000	         6.38513e+57
          1836.47630	         7.83389e+57
          1837.28260	         9.61676e+57
          1838.08890	         9.59366e+57
          1838.89520	         8.56971e+57
          1839.70150	         6.60043e+57
          1840.50780	         6.62716e+57
          1841.31410	         7.75138e+57
          1842.12040	         7.86207e+57
          1842.92670	         7.58393e+57
          1843.73300	         7.24078e+57
          1844.53930	         7.12020e+57
          1845.34560	         6.95404e+57
          1846.15190	         6.87891e+57
          1846.95820	         7.53353e+57
          1847.76450	         7.95027e+57
          1848.57080	         6.92804e+57
          1849.37710	         7.69904e+57
          1850.18340	         7.95779e+57
          1850.98970	         7.66274e+57
          1851.79600	         8.37364e+57
          1852.60230	         8.15948e+57
          1853.40860	         7.41743e+57
          1854.21490	         7.77986e+57
          1855.02120	         6.86565e+57
          1855.82750	         4.83108e+57
          1856.63380	         5.29753e+57
          1857.44010	         6.63587e+57
          1858.24640	         7.51819e+57
          1859.05270	         7.00423e+57
          1859.85900	         6.35219e+57
          1860.66530	         6.02794e+57
          1861.47160	         7.11475e+57
          1862.27790	         7.03308e+57
          1863.08420	         8.07124e+57
          1863.89050	         7.73886e+57
          1864.69680	         7.66299e+57
          1865.50310	         7.91056e+57
          1866.30940	         7.02618e+57
          1867.11570	         6.44731e+57
          1867.92200	         8.53744e+57
          1868.72830	         7.72749e+57
          1869.53460	         6.58979e+57
          1870.34090	         6.65544e+57
          1871.14720	         7.61234e+57
          1871.95350	         7.07576e+57
          1872.75980	         8.00545e+57
          1873.56610	         8.19031e+57
          1874.37240	         6.03542e+57
          1875.17870	         4.96874e+57
          1875.98500	         7.20505e+57
          1876.79130	         7.98447e+57
          1877.59760	         8.28569e+57
          1878.40390	         6.73657e+57
          1879.21020	         6.67557e+57
          1880.01650	         6.93866e+57
          1880.82280	         8.08164e+57
          1881.62910	         9.32808e+57
          1882.43540	         9.33885e+57
          1883.24170	         8.02648e+57
          1884.04800	         6.52288e+57
          1884.85430	         7.70181e+57
          1885.66060	         8.46222e+57
          1886.46690	         9.03651e+57
          1887.27320	         8.16281e+57
          1888.07950	         6.70304e+57
          1888.88580	         7.73919e+57
          1889.69210	         9.09907e+57
          1890.49840	         9.11986e+57
          1891.30470	         7.00506e+57
          1892.11100	         7.13326e+57
          1892.91730	         7.18878e+57
          1893.72360	         5.79016e+57
          1894.52990	         6.40972e+57
          1895.33620	         8.12101e+57
          1896.14250	         7.67496e+57
          1896.94880	         6.95276e+57
          1897.75510	         5.12684e+57
          1898.56140	         6.59415e+57
          1899.36770	         8.71242e+57
          1900.17400	         7.02720e+57
          1900.98030	         6.35248e+57
          1901.78660	         7.23748e+57
          1902.59290	         7.77278e+57
          1903.39920	         9.41679e+57
          1904.20550	         9.11986e+57
          1905.01180	         8.19736e+57
          1905.81810	         9.57147e+57
          1906.62440	         1.21391e+58
          1907.43070	         1.50173e+58
          1908.23700	         1.59068e+58
          1909.04330	         1.40709e+58
          1909.84960	         1.12784e+58
          1910.65590	         1.03236e+58
          1911.46220	         1.06183e+58
          1912.26850	         8.04557e+57
          1913.07480	         6.09508e+57
          1913.88110	         6.00205e+57
          1914.68740	         5.71856e+57
          1915.49370	         5.74687e+57
          1916.30000	         5.44245e+57
          1917.10630	         6.81768e+57
          1917.91260	         6.94423e+57
          1918.71890	         6.11694e+57
          1919.52520	         6.03975e+57
          1920.33150	         6.30440e+57
          1921.13780	         6.13849e+57
          1921.94410	         8.33113e+57
          1922.75040	         8.41608e+57
          1923.55670	         7.06359e+57
          1924.36300	         7.45189e+57
          1925.16930	         6.76213e+57
          1925.97560	         6.51540e+57
          1926.78190	         6.23598e+57
          1927.58820	         5.95310e+57
          1928.39450	         6.34198e+57
          1929.20080	         5.55816e+57
          1930.00710	         5.33103e+57
          1930.81340	         6.87833e+57
          1931.61970	         6.18293e+57
          1932.42600	         7.66434e+57
          1933.23230	         8.72408e+57
          1934.03860	         6.34173e+57
          1934.84490	         4.80330e+57
          1935.65120	         8.44475e+57
          1936.45750	         8.58541e+57
          1937.26380	         6.71202e+57
          1938.07010	         7.64543e+57
          1938.87640	         8.13684e+57
          1939.68270	         8.58332e+57
          1940.48900	         8.43615e+57
          1941.29530	         8.45585e+57
          1942.10160	         7.08150e+57
          1942.90790	         6.68421e+57
          1943.71420	         6.38633e+57
          1944.52050	         6.14270e+57
          1945.32680	         5.79877e+57
          1946.13310	         6.63285e+57
          1946.93940	         8.03481e+57
          1947.74570	         7.41460e+57
          1948.55200	         5.71720e+57
          1949.35830	         6.67816e+57
          1950.16460	         6.22769e+57
          1950.97090	         6.08146e+57
          1951.77720	         6.91628e+57
          1952.58350	         7.71990e+57
          1953.38980	         6.60946e+57
          1954.19610	         5.09442e+57
          1955.00240	         5.04408e+57
          1955.80870	         5.78135e+57
          1956.61500	         5.32230e+57
          1957.42130	         5.40525e+57
          1958.22760	         6.57174e+57
          1959.03390	         7.60644e+57
          1959.84020	         8.07867e+57
          1960.64650	         6.49175e+57
          1961.45280	         5.75898e+57
          1962.25910	         6.64963e+57
          1963.06540	         6.52430e+57
          1963.87170	         5.84299e+57
          1964.67800	         7.97890e+57
          1965.48430	         7.35311e+57
          1966.29060	         7.66817e+57
          1967.09690	         7.33893e+57
          1967.90320	         6.20745e+57
          1968.70950	         6.67490e+57
          1969.51580	         6.64636e+57
          1970.32210	         7.45814e+57
          1971.12840	         6.60316e+57
          1971.93470	         5.26342e+57
          1972.74100	         4.82438e+57
          1973.54730	         6.18923e+57
          1974.35360	         6.33290e+57
          1975.15990	         6.80448e+57
          1975.96620	         7.14447e+57
          1976.77250	         7.57964e+57
          1977.57880	         7.38686e+57
          1978.38510	         6.13382e+57
          1979.19140	         7.57297e+57
          1979.99770	         7.44148e+57
          1980.80400	         7.51983e+57
          1981.61030	         7.21028e+57
          1982.41660	         5.93564e+57
          1983.22290	         5.16180e+57
          1984.02920	         5.58697e+57
          1984.83550	         6.25777e+57
          1985.64180	         6.63256e+57
          1986.44810	         6.96930e+57
          1987.25440	         5.07064e+57
          1988.06070	         6.16402e+57
          1988.86700	         7.14478e+57
          1989.67330	         6.97221e+57
          1990.47960	         6.68621e+57
          1991.28590	         6.08100e+57
          1992.09220	         6.40366e+57
          1992.89850	         5.51983e+57
          1993.70480	         4.75989e+57
          1994.51110	         4.79459e+57
          1995.31740	         4.35295e+57
          1996.12370	         4.58577e+57
          1996.93000	         6.20522e+57
          1997.73630	         7.76671e+57
          1998.54260	         7.09714e+57
          1999.34890	         6.06860e+57
          2000.15520	         6.33917e+57
          2000.96150	         6.67589e+57
          2001.76780	         5.74035e+57
          2002.57410	         5.18294e+57
          2003.38040	         5.57108e+57
          2004.18670	         5.74452e+57
          2004.99300	         5.88861e+57
          2005.79930	         7.26219e+57
          2006.60560	         6.50568e+57
          2007.41190	         5.76873e+57
          2008.21820	         6.75784e+57
          2009.02450	         7.34666e+57
          2009.83080	         6.91720e+57
          2010.63710	         7.01290e+57
          2011.44340	         7.11466e+57
          2012.24970	         6.98442e+57
          2013.05600	         7.83639e+57
          2013.86230	         6.74633e+57
          2014.66860	         5.52791e+57
          2015.47490	         6.15725e+57
          2016.28120	         5.74309e+57
          2017.08750	         6.04701e+57
          2017.89380	         6.19342e+57
          2018.70010	         6.56476e+57
          2019.50640	         6.90875e+57
          2020.31270	         6.01421e+57
          2021.11900	         6.73227e+57
          2021.92530	         7.12341e+57
          2022.73160	         7.33255e+57
          2023.53790	         8.08923e+57
          2024.34420	         6.30754e+57
          2025.15050	         5.51050e+57
          2025.95680	         5.12994e+57
          2026.76310	         6.14151e+57
          2027.56940	         5.57620e+57
          2028.37570	         6.48557e+57
          2029.18200	         6.19420e+57
          2029.98830	         6.10474e+57
          2030.79460	         6.74028e+57
          2031.60090	         5.20414e+57
          2032.40720	         5.51563e+57
          2033.21350	         5.70431e+57
          2034.01980	         4.85820e+57
          2034.82610	         4.89620e+57
          2035.63240	         5.19035e+57
          2036.43870	         6.15347e+57
          2037.24500	         7.24970e+57
          2038.05130	         7.16797e+57
          2038.85760	         5.42622e+57
          2039.66390	         5.76598e+57
          2040.47020	         6.63596e+57
          2041.27650	         5.40121e+57
          2042.08280	         3.74463e+57
          2042.88910	         5.41579e+57
          2043.69540	         5.65732e+57
          2044.50170	         6.91406e+57
          2045.30800	         5.97874e+57
          2046.11430	         4.00061e+57
          2046.92060	         5.67975e+57
          2047.72690	         7.56776e+57
          2048.53320	         6.61843e+57
          2049.33950	         5.65082e+57
          2050.14580	         6.38905e+57
          2050.95210	         7.93970e+57
          2051.75840	         8.13169e+57
          2052.56470	         6.01898e+57
          2053.37100	         4.57839e+57
          2054.17730	         5.24815e+57
          2054.98360	         4.84057e+57
          2055.78990	         3.67233e+57
          2056.59620	         3.20883e+57
          2057.40250	         5.36856e+57
          2058.20880	         5.76837e+57
          2059.01510	         5.82484e+57
          2059.82140	         7.29245e+57
          2060.62770	         9.69945e+57
          2061.43400	         1.59653e+58
          2062.24030	         1.32259e+58
          2063.04660	         3.67545e+57
          2063.85290	        -1.68658e+56
          2064.65920	        -4.83446e+57
          2065.46550	        -1.00539e+58
          2066.27180	        -7.45610e+57
          2067.07810	         3.27850e+57
          2067.88440	         5.64176e+57
          2068.69070	         5.98151e+57
          2069.49700	         5.23678e+57
          2070.30330	         3.60216e+57
          2071.10960	         7.37703e+57
          2071.91590	         6.40024e+57
          2072.72220	         3.49014e+57
          2073.52850	         4.08810e+57
          2074.33480	         5.08533e+57
          2075.14110	         5.45892e+57
          2075.94740	         3.71259e+57
          2076.75370	         3.93322e+57
          2077.56000	         4.84169e+57
          2078.36630	         4.91432e+57
          2079.17260	         5.38631e+57
          2079.97890	         5.17007e+57
          2080.78520	         4.67797e+57
          2081.59150	         5.36430e+57
          2082.39780	         5.54281e+57
          2083.20410	         2.17259e+57
          2084.01040	         1.97065e+57
          2084.81670	         3.76798e+57
          2085.62300	         5.17710e+57
          2086.42930	         4.76376e+57
          2087.23560	         4.81072e+57
          2088.04190	         4.19646e+57
          2088.84820	         4.67746e+57
          2089.65450	         1.68289e+57
          2090.46080	         3.51507e+56
          2091.26710	         1.78308e+57
          2092.07340	         2.90987e+57
          2092.87970	         2.07412e+57
          2093.68600	        -6.94556e+56
          2094.49230	        -1.37436e+57
          2095.29860	         3.74536e+57
          2096.10490	         3.89284e+57
          2096.91120	         1.97612e+57
          2097.71750	         3.07410e+57
          2098.52380	         3.68845e+56
          2099.33010	         2.08074e+57
          2100.13640	         4.08810e+57
          2100.94270	         2.48959e+57
          2101.74900	         2.68058e+57
          2102.55530	         3.29565e+57
          2103.36160	         3.57429e+57
          2104.16790	         3.31882e+57
          2104.97420	         2.58862e+57
          2105.78050	         2.76035e+57
          2106.58680	         1.64710e+57
          2107.39310	         6.30770e+56
          2108.19940	         2.39450e+57
          2109.00570	        -2.00018e+57
          2109.81200	        -2.00838e+57
          2110.61830	        -8.96159e+56
          2111.42460	        -1.15475e+57
          2112.23090	        -4.78820e+55
          2113.03720	        -5.41654e+56
          2113.84350	        -2.14806e+57
          2114.64980	        -7.02688e+56
          2115.45610	         2.48575e+55
          2116.26240	        -1.12195e+57
          2117.06870	         2.01171e+57
          2117.87500	        -6.30791e+56
          2118.68130	        -2.38162e+56
          2119.48760	         2.48994e+57
          2120.29390	         4.86642e+56
          2121.10020	        -4.57102e+56
          2121.90650	         1.84858e+57
          2122.71280	         9.78803e+55
          2123.51910	        -8.46156e+56
          2124.32540	        -4.83536e+56
          2125.13170	        -9.10778e+56
          2125.93800	         4.10424e+57
          2126.74430	        -9.84019e+56
          2127.55060	        -8.45792e+57
          2128.35690	        -9.12248e+57
          2129.16320	        -5.61534e+57
          2129.96950	        -8.07816e+57
          2130.77580	        -3.87862e+57
          2131.58210	         9.71256e+56
          2132.38840	         1.02735e+57
          2133.19470	         1.50422e+57
          2134.00100	         2.62479e+57
          2134.80730	        -1.11208e+58
          2135.61360	        -5.29941e+57
          2136.41990	         1.06115e+58
          2137.22620	         1.24866e+58
          2138.03250	         2.46544e+57
          2138.83880	        -3.17726e+57
          2139.64510	        -1.88799e+57
          2140.45140	        -4.68610e+57
          2141.25770	        -1.22252e+58
          2142.06400	        -6.29926e+57
          2142.87030	         4.12753e+57
          2143.67660	         1.29761e+58
          2144.48290	         6.34204e+57
          2145.28920	         1.64578e+58
          2146.09550	        -9.55554e+57
          2146.90180	        -9.61792e+57
          2147.70810	        -4.02684e+57
          2148.51440	         3.00585e+57
          2149.32070	        -1.13970e+58
          2150.12700	        -1.26367e+58
          2150.93330	         2.30719e+57
          2151.73960	        -2.24184e+57
          2152.54590	         6.98366e+57
          2153.35220	         4.52377e+57
          2154.15850	         4.30849e+57
          2154.96480	         1.17783e+58
          2155.77110	         2.73371e+57
          2156.57740	        -2.72616e+57
          2157.38370	         4.72934e+57
          2158.19000	        -3.43525e+57
          2158.99630	        -4.78584e+57
          2159.80260	        -1.30559e+58
          2160.60890	        -1.45019e+57
          2161.41520	         2.19353e+57
          2162.22150	        -1.01572e+58
          2163.02780	        -5.55462e+57
          2163.83410	        -9.92546e+57
          2164.64040	        -1.35964e+58
          2165.44670	        -9.86409e+57
          2166.25300	        -5.27250e+57
          2167.05930	         4.06918e+57
          2167.86560	        -5.35329e+57
          2168.67190	        -4.21310e+57
          2169.47820	        -3.44135e+57
          2170.28450	        -7.80898e+57
          2171.09080	        -4.66430e+57
          2171.89710	        -1.10577e+57
          2172.70340	         4.85518e+56
          2173.50970	        -5.26890e+57
          2174.31600	        -1.01039e+57
          2175.12230	         2.81619e+57
          2175.92860	        -3.62674e+57
          2176.73490	        -3.22731e+57
          2177.54120	        -3.73236e+57
          2178.34750	        -5.17276e+57
          2179.15380	                 nan
          2179.96010	                 nan
          2180.76640	                 nan
          2181.57270	                 nan
          2182.37900	                 nan
          2183.18530	                 nan
          2183.99160	                 nan
          2184.79790	                 nan
          2185.60420	                 nan
          2186.41050	                 nan
          2187.21680	                 nan
          2188.02310	                 nan
          2188.82940	                 nan
          2189.63570	                 nan
          2190.44200	                 nan
          2191.24830	                 nan
          2192.05460	                 nan
          2192.86090	                 nan
          2193.66720	                 nan
          2194.47350	                 nan
          2195.27980	                 nan
          2196.08610	                 nan
          2196.89240	                 nan
          2197.69870	                 nan
          2198.50500	                 nan
          2199.31130	                 nan
          2200.11760	                 nan
          2200.92390	                 nan
          2201.73020	                 nan
          2202.53650	                 nan
          2203.34280	                 nan
          2204.14910	                 nan
          2204.95540	                 nan
          2205.76170	                 nan
          2206.56800	                 nan
          2207.37430	                 nan
          2208.18060	                 nan
          2208.98690	                 nan
          2209.79320	                 nan
          2210.59950	                 nan
          2211.40580	                 nan
          2212.21210	                 nan
          2213.01840	                 nan
          2213.82470	                 nan
          2214.63100	                 nan
          2215.43730	         0.00000e+00
