#sample_183_stacked_spectrum_rest_UV-bands_median_H-alpha_noDC.txt
#median Lum: 1.70285e+42
#Rest-frame wavelength (A) | Luminosity (erg/s/A)
#
          1110.00000	         0.00000e+00
          1110.80630	         2.24400e+59
          1111.61260	        -2.00300e+59
          1112.41890	         1.81917e+59
          1113.22520	        -1.92001e+58
          1114.03150	        -9.23705e+58
          1114.83780	         2.40425e+59
          1115.64410	         1.22738e+59
          1116.45040	         2.62408e+59
          1117.25670	         1.40378e+59
          1118.06300	         6.65301e+58
          1118.86930	        -2.31869e+58
          1119.67560	         2.69920e+57
          1120.48190	        -3.64584e+57
          1121.28820	        -1.74969e+59
          1122.09450	        -4.21898e+58
          1122.90080	        -6.72327e+58
          1123.70710	         4.95494e+57
          1124.51340	         4.11126e+58
          1125.31970	         1.23825e+58
          1126.12600	        -5.71646e+57
          1126.93230	        -3.99783e+58
          1127.73860	        -2.16775e+58
          1128.54490	         7.29036e+58
          1129.35120	         1.92109e+58
          1130.15750	        -4.27405e+58
          1130.96380	        -2.47075e+58
          1131.77010	         5.34434e+58
          1132.57640	         6.38446e+58
          1133.38270	         2.87282e+58
          1134.18900	         1.06541e+58
          1134.99530	         1.13888e+58
          1135.80160	         8.72815e+57
          1136.60790	         4.72462e+57
          1137.41420	         2.33630e+58
          1138.22050	         3.29385e+58
          1139.02680	         4.53242e+58
          1139.83310	         2.62315e+58
          1140.63940	         2.44427e+58
          1141.44570	         8.18375e+57
          1142.25200	        -6.09514e+57
          1143.05830	         3.16255e+58
          1143.86460	         3.86757e+58
          1144.67090	         5.76135e+57
          1145.47720	         1.85349e+58
          1146.28350	         1.57092e+58
          1147.08980	         2.05982e+58
          1147.89610	         1.72608e+58
          1148.70240	         2.20573e+58
          1149.50870	         1.88852e+58
          1150.31500	         1.73364e+58
          1151.12130	         2.84136e+57
          1151.92760	        -3.71353e+57
          1152.73390	        -1.02183e+58
          1153.54020	         6.97534e+56
          1154.34650	         1.86337e+58
          1155.15280	         2.37410e+58
          1155.95910	         6.08430e+57
          1156.76540	         1.11781e+58
          1157.57170	        -4.20003e+57
          1158.37800	        -1.10807e+57
          1159.18430	        -3.49109e+57
          1159.99060	         6.69182e+57
          1160.79690	        -2.42440e+57
          1161.60320	         6.40175e+57
          1162.40950	         1.34483e+58
          1163.21580	         1.58007e+58
          1164.02210	         1.61610e+58
          1164.82840	         9.01149e+57
          1165.63470	         1.75563e+58
          1166.44100	         3.54105e+58
          1167.24730	         3.19180e+58
          1168.05360	         1.11582e+58
          1168.85990	         6.81407e+57
          1169.66620	         5.71317e+57
          1170.47250	         1.27260e+58
          1171.27880	         1.24315e+58
          1172.08510	         1.21890e+58
          1172.89140	         1.31159e+58
          1173.69770	         7.60244e+57
          1174.50400	         1.09206e+58
          1175.31030	         1.39905e+58
          1176.11660	         1.52434e+58
          1176.92290	         1.47429e+58
          1177.72920	         1.70776e+58
          1178.53550	         7.54863e+57
          1179.34180	         6.82276e+57
          1180.14810	         7.54393e+57
          1180.95440	         9.88195e+57
          1181.76070	         8.46074e+57
          1182.56700	         7.52259e+57
          1183.37330	         5.68097e+57
          1184.17960	         1.17503e+58
          1184.98590	         7.90111e+57
          1185.79220	         9.15406e+57
          1186.59850	         1.48565e+58
          1187.40480	         1.21644e+58
          1188.21110	         1.46662e+58
          1189.01740	         6.68331e+57
          1189.82370	         9.40226e+57
          1190.63000	         6.71495e+57
          1191.43630	         1.13569e+58
          1192.24260	         1.18251e+58
          1193.04890	         1.19685e+58
          1193.85520	         1.14254e+58
          1194.66150	         6.79627e+57
          1195.46780	         1.03887e+58
          1196.27410	         1.34764e+58
          1197.08040	         5.37376e+57
          1197.88670	         1.22508e+58
          1198.69300	         1.44286e+58
          1199.49930	         1.27981e+58
          1200.30560	         1.07698e+58
          1201.11190	         1.09266e+58
          1201.91820	         1.20360e+58
          1202.72450	         6.68495e+57
          1203.53080	         1.48330e+58
          1204.33710	         8.20501e+57
          1205.14340	         6.97778e+57
          1205.94970	         6.05106e+57
          1206.75600	         7.32664e+57
          1207.56230	         9.23791e+57
          1208.36860	         9.03111e+57
          1209.17490	         2.94124e+57
          1209.98120	         3.73912e+57
          1210.78750	         1.18018e+58
          1211.59380	         1.64417e+58
          1212.40010	         1.86085e+58
          1213.20640	         2.20276e+58
          1214.01270	         1.92043e+58
          1214.81900	         2.31002e+58
          1215.62530	         4.41998e+58
          1216.43160	         9.03661e+58
          1217.23790	         1.53859e+59
          1218.04420	         1.15997e+59
          1218.85050	         9.08507e+58
          1219.65680	         5.91475e+58
          1220.46310	         3.20985e+58
          1221.26940	         2.17993e+58
          1222.07570	         1.24002e+58
          1222.88200	         1.07749e+58
          1223.68830	         6.52031e+57
          1224.49460	         6.05498e+57
          1225.30090	         7.21519e+57
          1226.10720	         7.00194e+57
          1226.91350	         9.30739e+57
          1227.71980	         5.36502e+57
          1228.52610	         7.52578e+57
          1229.33240	         7.97159e+57
          1230.13870	         7.85068e+57
          1230.94500	         5.30899e+57
          1231.75130	         6.80031e+57
          1232.55760	         7.99078e+57
          1233.36390	         8.29467e+57
          1234.17020	         5.83479e+57
          1234.97650	         7.19657e+57
          1235.78280	         7.47888e+57
          1236.58910	         8.30408e+57
          1237.39540	         1.07356e+58
          1238.20170	         9.90531e+57
          1239.00800	         1.28259e+58
          1239.81430	         1.42672e+58
          1240.62060	         9.91905e+57
          1241.42690	         1.04685e+58
          1242.23320	         1.04772e+58
          1243.03950	         6.50219e+57
          1243.84580	         6.19100e+57
          1244.65210	         9.47495e+57
          1245.45840	         1.26228e+58
          1246.26470	         8.88057e+57
          1247.07100	         5.90626e+57
          1247.87730	         3.84433e+57
          1248.68360	         5.42820e+57
          1249.48990	         7.50906e+57
          1250.29620	         5.57458e+57
          1251.10250	         5.72277e+57
          1251.90880	         6.03625e+57
          1252.71510	         5.47394e+57
          1253.52140	         5.78966e+57
          1254.32770	         1.06393e+58
          1255.13400	         1.13269e+58
          1255.94030	         8.05552e+57
          1256.74660	         7.87345e+57
          1257.55290	         1.02606e+58
          1258.35920	         8.42570e+57
          1259.16550	         4.77736e+57
          1259.97180	         4.00661e+57
          1260.77810	         6.41567e+57
          1261.58440	         1.05555e+58
          1262.39070	         8.82471e+57
          1263.19700	         8.84374e+57
          1264.00330	         7.47016e+57
          1264.80960	         9.30574e+57
          1265.61590	         1.37773e+58
          1266.42220	         1.39458e+58
          1267.22850	         9.79263e+57
          1268.03480	         1.30854e+58
          1268.84110	         1.55326e+58
          1269.64740	         1.22586e+58
          1270.45370	         1.16636e+58
          1271.26000	         1.14081e+58
          1272.06630	         1.12277e+58
          1272.87260	         1.50035e+58
          1273.67890	         1.44009e+58
          1274.48520	         9.92730e+57
          1275.29150	         1.14023e+58
          1276.09780	         1.12061e+58
          1276.90410	         1.46001e+58
          1277.71040	         1.49812e+58
          1278.51670	         1.19729e+58
          1279.32300	         1.42329e+58
          1280.12930	         1.30348e+58
          1280.93560	         9.38391e+57
          1281.74190	         1.01642e+58
          1282.54820	         1.22001e+58
          1283.35450	         1.25775e+58
          1284.16080	         1.29270e+58
          1284.96710	         1.29758e+58
          1285.77340	         1.00686e+58
          1286.57970	         8.78079e+57
          1287.38600	         1.39307e+58
          1288.19230	         1.62714e+58
          1288.99860	         1.58718e+58
          1289.80490	         1.35210e+58
          1290.61120	         1.38929e+58
          1291.41750	         1.60761e+58
          1292.22380	         1.45234e+58
          1293.03010	         1.11147e+58
          1293.83640	         1.36714e+58
          1294.64270	         1.26829e+58
          1295.44900	         8.03453e+57
          1296.25530	         9.31640e+57
          1297.06160	         1.13234e+58
          1297.86790	         1.13438e+58
          1298.67420	         8.49799e+57
          1299.48050	         8.58667e+57
          1300.28680	         1.09394e+58
          1301.09310	         8.81199e+57
          1301.89940	         4.43980e+57
          1302.70570	         4.92230e+57
          1303.51200	         5.20552e+57
          1304.31830	         9.26632e+57
          1305.12460	         1.07610e+58
          1305.93090	         1.02859e+58
          1306.73720	         1.25328e+58
          1307.54350	         1.49478e+58
          1308.34980	         1.56220e+58
          1309.15610	         1.50894e+58
          1309.96240	         1.47482e+58
          1310.76870	         1.29300e+58
          1311.57500	         8.03717e+57
          1312.38130	         7.99467e+57
          1313.18760	         1.36692e+58
          1313.99390	         1.58983e+58
          1314.80020	         1.55785e+58
          1315.60650	         1.34033e+58
          1316.41280	         1.06934e+58
          1317.21910	         1.06840e+58
          1318.02540	         1.15810e+58
          1318.83170	         1.16416e+58
          1319.63800	         1.11041e+58
          1320.44430	         1.19377e+58
          1321.25060	         1.27968e+58
          1322.05690	         1.21185e+58
          1322.86320	         1.26090e+58
          1323.66950	         1.27548e+58
          1324.47580	         1.19108e+58
          1325.28210	         1.13951e+58
          1326.08840	         1.23882e+58
          1326.89470	         1.29696e+58
          1327.70100	         1.05017e+58
          1328.50730	         7.79507e+57
          1329.31360	         8.66798e+57
          1330.11990	         8.47640e+57
          1330.92620	         9.28242e+57
          1331.73250	         1.15897e+58
          1332.53880	         9.25045e+57
          1333.34510	         9.33793e+57
          1334.15140	         1.02472e+58
          1334.95770	         1.10744e+58
          1335.76400	         1.07765e+58
          1336.57030	         1.00818e+58
          1337.37660	         1.13025e+58
          1338.18290	         1.13792e+58
          1338.98920	         1.13240e+58
          1339.79550	         1.19650e+58
          1340.60180	         1.29194e+58
          1341.40810	         1.37596e+58
          1342.21440	         1.25642e+58
          1343.02070	         1.16857e+58
          1343.82700	         1.31395e+58
          1344.63330	         1.33743e+58
          1345.43960	         1.43143e+58
          1346.24590	         1.18523e+58
          1347.05220	         1.07932e+58
          1347.85850	         1.01333e+58
          1348.66480	         1.15521e+58
          1349.47110	         1.17632e+58
          1350.27740	         1.10995e+58
          1351.08370	         1.13642e+58
          1351.89000	         1.13475e+58
          1352.69630	         1.14737e+58
          1353.50260	         1.07211e+58
          1354.30890	         1.10338e+58
          1355.11520	         1.17646e+58
          1355.92150	         1.10413e+58
          1356.72780	         1.02490e+58
          1357.53410	         9.84684e+57
          1358.34040	         1.13621e+58
          1359.14670	         1.03669e+58
          1359.95300	         1.09923e+58
          1360.75930	         1.11355e+58
          1361.56560	         1.14249e+58
          1362.37190	         1.27200e+58
          1363.17820	         1.22418e+58
          1363.98450	         1.34784e+58
          1364.79080	         1.26028e+58
          1365.59710	         1.20270e+58
          1366.40340	         1.33698e+58
          1367.20970	         1.16890e+58
          1368.01600	         1.08210e+58
          1368.82230	         1.05115e+58
          1369.62860	         1.08007e+58
          1370.43490	         9.42390e+57
          1371.24120	         9.80298e+57
          1372.04750	         8.91415e+57
          1372.85380	         1.16538e+58
          1373.66010	         1.22658e+58
          1374.46640	         1.11776e+58
          1375.27270	         1.07795e+58
          1376.07900	         8.57749e+57
          1376.88530	         8.77211e+57
          1377.69160	         9.27262e+57
          1378.49790	         7.18763e+57
          1379.30420	         7.37695e+57
          1380.11050	         9.36900e+57
          1380.91680	         8.58235e+57
          1381.72310	         7.94147e+57
          1382.52940	         8.10567e+57
          1383.33570	         8.02268e+57
          1384.14200	         9.16691e+57
          1384.94830	         1.09630e+58
          1385.75460	         1.17744e+58
          1386.56090	         1.17083e+58
          1387.36720	         1.16328e+58
          1388.17350	         1.30907e+58
          1388.97980	         1.16637e+58
          1389.78610	         1.05578e+58
          1390.59240	         9.30236e+57
          1391.39870	         7.68087e+57
          1392.20500	         7.61730e+57
          1393.01130	         7.92335e+57
          1393.81760	         7.74141e+57
          1394.62390	         6.59036e+57
          1395.43020	         5.89320e+57
          1396.23650	         5.88252e+57
          1397.04280	         6.95041e+57
          1397.84910	         7.49627e+57
          1398.65540	         7.18795e+57
          1399.46170	         8.49154e+57
          1400.26800	         7.88021e+57
          1401.07430	         7.42629e+57
          1401.88060	         8.09778e+57
          1402.68690	         8.82204e+57
          1403.49320	         9.47315e+57
          1404.29950	         7.81274e+57
          1405.10580	         1.07774e+58
          1405.91210	         1.14442e+58
          1406.71840	         1.06068e+58
          1407.52470	         1.06494e+58
          1408.33100	         1.00096e+58
          1409.13730	         1.09002e+58
          1409.94360	         1.13239e+58
          1410.74990	         1.09470e+58
          1411.55620	         9.88630e+57
          1412.36250	         8.79001e+57
          1413.16880	         8.26347e+57
          1413.97510	         7.98385e+57
          1414.78140	         9.06483e+57
          1415.58770	         1.09884e+58
          1416.39400	         1.01137e+58
          1417.20030	         1.05129e+58
          1418.00660	         1.02945e+58
          1418.81290	         9.52590e+57
          1419.61920	         9.59626e+57
          1420.42550	         1.21747e+58
          1421.23180	         1.36237e+58
          1422.03810	         1.18783e+58
          1422.84440	         1.15047e+58
          1423.65070	         1.35214e+58
          1424.45700	         1.26772e+58
          1425.26330	         1.02253e+58
          1426.06960	         9.31515e+57
          1426.87590	         9.79567e+57
          1427.68220	         1.05646e+58
          1428.48850	         1.11941e+58
          1429.29480	         1.04122e+58
          1430.10110	         9.28112e+57
          1430.90740	         9.29240e+57
          1431.71370	         9.44244e+57
          1432.52000	         9.95691e+57
          1433.32630	         8.43634e+57
          1434.13260	         7.62782e+57
          1434.93890	         8.66187e+57
          1435.74520	         8.84992e+57
          1436.55150	         9.42124e+57
          1437.35780	         9.70846e+57
          1438.16410	         8.79760e+57
          1438.97040	         9.21007e+57
          1439.77670	         9.38943e+57
          1440.58300	         9.59244e+57
          1441.38930	         9.92520e+57
          1442.19560	         1.03667e+58
          1443.00190	         9.87023e+57
          1443.80820	         1.15481e+58
          1444.61450	         1.06788e+58
          1445.42080	         8.50282e+57
          1446.22710	         1.06050e+58
          1447.03340	         1.07807e+58
          1447.83970	         1.09555e+58
          1448.64600	         1.13439e+58
          1449.45230	         1.11013e+58
          1450.25860	         1.06021e+58
          1451.06490	         8.87485e+57
          1451.87120	         8.03098e+57
          1452.67750	         8.02927e+57
          1453.48380	         9.00693e+57
          1454.29010	         7.83849e+57
          1455.09640	         7.32209e+57
          1455.90270	         9.45414e+57
          1456.70900	         8.96291e+57
          1457.51530	         9.07344e+57
          1458.32160	         1.22256e+58
          1459.12790	         1.23758e+58
          1459.93420	         9.29476e+57
          1460.74050	         8.38585e+57
          1461.54680	         8.57430e+57
          1462.35310	         8.86820e+57
          1463.15940	         9.65853e+57
          1463.96570	         1.02616e+58
          1464.77200	         1.18202e+58
          1465.57830	         1.14078e+58
          1466.38460	         9.29981e+57
          1467.19090	         8.87369e+57
          1467.99720	         9.02090e+57
          1468.80350	         8.95421e+57
          1469.60980	         9.06524e+57
          1470.41610	         1.10000e+58
          1471.22240	         1.05992e+58
          1472.02870	         1.01029e+58
          1472.83500	         1.05087e+58
          1473.64130	         9.62801e+57
          1474.44760	         8.40818e+57
          1475.25390	         8.32393e+57
          1476.06020	         8.58856e+57
          1476.86650	         8.12791e+57
          1477.67280	         7.62262e+57
          1478.47910	         7.62761e+57
          1479.28540	         8.15458e+57
          1480.09170	         8.21555e+57
          1480.89800	         7.40491e+57
          1481.70430	         8.18311e+57
          1482.51060	         8.08268e+57
          1483.31690	         8.17828e+57
          1484.12320	         8.63271e+57
          1484.92950	         7.97275e+57
          1485.73580	         8.59349e+57
          1486.54210	         8.39711e+57
          1487.34840	         8.09899e+57
          1488.15470	         8.31530e+57
          1488.96100	         8.98566e+57
          1489.76730	         9.15681e+57
          1490.57360	         8.65820e+57
          1491.37990	         7.65665e+57
          1492.18620	         8.15722e+57
          1492.99250	         8.84429e+57
          1493.79880	         8.30801e+57
          1494.60510	         8.62772e+57
          1495.41140	         8.45471e+57
          1496.21770	         8.52405e+57
          1497.02400	         1.01055e+58
          1497.83030	         8.02072e+57
          1498.63660	         7.59830e+57
          1499.44290	         8.48756e+57
          1500.24920	         7.98145e+57
          1501.05550	         8.45076e+57
          1501.86180	         8.41185e+57
          1502.66810	         8.89173e+57
          1503.47440	         9.23665e+57
          1504.28070	         8.93657e+57
          1505.08700	         9.80023e+57
          1505.89330	         9.68303e+57
          1506.69960	         8.90035e+57
          1507.50590	         9.08326e+57
          1508.31220	         9.14987e+57
          1509.11850	         9.49236e+57
          1509.92480	         1.00624e+58
          1510.73110	         9.70153e+57
          1511.53740	         7.93275e+57
          1512.34370	         6.63608e+57
          1513.15000	         8.78346e+57
          1513.95630	         9.78820e+57
          1514.76260	         8.59075e+57
          1515.56890	         8.80967e+57
          1516.37520	         9.19838e+57
          1517.18150	         8.96384e+57
          1517.98780	         7.75058e+57
          1518.79410	         7.70791e+57
          1519.60040	         7.77427e+57
          1520.40670	         8.94947e+57
          1521.21300	         9.86042e+57
          1522.01930	         8.32773e+57
          1522.82560	         8.68279e+57
          1523.63190	         9.44738e+57
          1524.43820	         7.87747e+57
          1525.24450	         6.17778e+57
          1526.05080	         5.95037e+57
          1526.85710	         6.32893e+57
          1527.66340	         6.89057e+57
          1528.46970	         7.91093e+57
          1529.27600	         8.16291e+57
          1530.08230	         7.22181e+57
          1530.88860	         7.14702e+57
          1531.69490	         8.07625e+57
          1532.50120	         9.24792e+57
          1533.30750	         9.41254e+57
          1534.11380	         9.53605e+57
          1534.92010	         9.68014e+57
          1535.72640	         1.01922e+58
          1536.53270	         1.00132e+58
          1537.33900	         8.35681e+57
          1538.14530	         8.26092e+57
          1538.95160	         9.22749e+57
          1539.75790	         8.80454e+57
          1540.56420	         8.97001e+57
          1541.37050	         8.93708e+57
          1542.17680	         8.18597e+57
          1542.98310	         7.19916e+57
          1543.78940	         6.85809e+57
          1544.59570	         7.37132e+57
          1545.40200	         7.38748e+57
          1546.20830	         9.23879e+57
          1547.01460	         1.06870e+58
          1547.82090	         1.15938e+58
          1548.62720	         1.20211e+58
          1549.43350	         1.20817e+58
          1550.23980	         1.05518e+58
          1551.04610	         1.20539e+58
          1551.85240	         1.23753e+58
          1552.65870	         1.19150e+58
          1553.46500	         9.70931e+57
          1554.27130	         1.01813e+58
          1555.07760	         1.02073e+58
          1555.88390	         8.95887e+57
          1556.69020	         8.63492e+57
          1557.49650	         9.04749e+57
          1558.30280	         8.69194e+57
          1559.10910	         9.16960e+57
          1559.91540	         9.11374e+57
          1560.72170	         8.02025e+57
          1561.52800	         8.50575e+57
          1562.33430	         8.99351e+57
          1563.14060	         8.87927e+57
          1563.94690	         8.88671e+57
          1564.75320	         8.17682e+57
          1565.55950	         6.72470e+57
          1566.36580	         6.68668e+57
          1567.17210	         8.67038e+57
          1567.97840	         1.00697e+58
          1568.78470	         9.31315e+57
          1569.59100	         8.14883e+57
          1570.39730	         8.30800e+57
          1571.20360	         7.69000e+57
          1572.00990	         7.36383e+57
          1572.81620	         7.84156e+57
          1573.62250	         8.96653e+57
          1574.42880	         8.92319e+57
          1575.23510	         7.36794e+57
          1576.04140	         7.92171e+57
          1576.84770	         8.84053e+57
          1577.65400	         8.28112e+57
          1578.46030	         9.62667e+57
          1579.26660	         9.88093e+57
          1580.07290	         8.48812e+57
          1580.87920	         7.42974e+57
          1581.68550	         7.92500e+57
          1582.49180	         8.61118e+57
          1583.29810	         7.88704e+57
          1584.10440	         8.14531e+57
          1584.91070	         8.61844e+57
          1585.71700	         8.74704e+57
          1586.52330	         8.33200e+57
          1587.32960	         8.14800e+57
          1588.13590	         8.04671e+57
          1588.94220	         8.45063e+57
          1589.74850	         8.77122e+57
          1590.55480	         9.48488e+57
          1591.36110	         8.32229e+57
          1592.16740	         8.55829e+57
          1592.97370	         9.02092e+57
          1593.78000	         8.82530e+57
          1594.58630	         9.16852e+57
          1595.39260	         8.18834e+57
          1596.19890	         8.87784e+57
          1597.00520	         9.17216e+57
          1597.81150	         8.02826e+57
          1598.61780	         6.85431e+57
          1599.42410	         6.65784e+57
          1600.23040	         6.71855e+57
          1601.03670	         7.97358e+57
          1601.84300	         8.37027e+57
          1602.64930	         8.58125e+57
          1603.45560	         8.96671e+57
          1604.26190	         7.71558e+57
          1605.06820	         7.98667e+57
          1605.87450	         8.29019e+57
          1606.68080	         7.25929e+57
          1607.48710	         6.24035e+57
          1608.29340	         6.55442e+57
          1609.09970	         7.80843e+57
          1609.90600	         8.53160e+57
          1610.71230	         7.16397e+57
          1611.51860	         6.32155e+57
          1612.32490	         6.93974e+57
          1613.13120	         8.74576e+57
          1613.93750	         8.97269e+57
          1614.74380	         8.37856e+57
          1615.55010	         8.58434e+57
          1616.35640	         9.75334e+57
          1617.16270	         1.01134e+58
          1617.96900	         1.00692e+58
          1618.77530	         9.58623e+57
          1619.58160	         8.15806e+57
          1620.38790	         7.49956e+57
          1621.19420	         8.93922e+57
          1622.00050	         8.88955e+57
          1622.80680	         8.08241e+57
          1623.61310	         8.05203e+57
          1624.41940	         8.67463e+57
          1625.22570	         9.73604e+57
          1626.03200	         9.92779e+57
          1626.83830	         8.16758e+57
          1627.64460	         6.94110e+57
          1628.45090	         6.70691e+57
          1629.25720	         9.73095e+57
          1630.06350	         9.26159e+57
          1630.86980	         5.99158e+57
          1631.67610	         7.68774e+57
          1632.48240	         9.14782e+57
          1633.28870	         9.61888e+57
          1634.09500	         1.02415e+58
          1634.90130	         9.56860e+57
          1635.70760	         8.61795e+57
          1636.51390	         7.16141e+57
          1637.32020	         7.61764e+57
          1638.12650	         9.70991e+57
          1638.93280	         1.00091e+58
          1639.73910	         9.97696e+57
          1640.54540	         9.34724e+57
          1641.35170	         8.26654e+57
          1642.15800	         8.89214e+57
          1642.96430	         8.76865e+57
          1643.77060	         8.56152e+57
          1644.57690	         7.86445e+57
          1645.38320	         7.48112e+57
          1646.18950	         7.62760e+57
          1646.99580	         8.69612e+57
          1647.80210	         7.32924e+57
          1648.60840	         6.60968e+57
          1649.41470	         7.43977e+57
          1650.22100	         7.02349e+57
          1651.02730	         6.72953e+57
          1651.83360	         7.57355e+57
          1652.63990	         7.86976e+57
          1653.44620	         8.52385e+57
          1654.25250	         7.92191e+57
          1655.05880	         7.11680e+57
          1655.86510	         8.35680e+57
          1656.67140	         8.75890e+57
          1657.47770	         8.51820e+57
          1658.28400	         9.53363e+57
          1659.09030	         9.32318e+57
          1659.89660	         9.60788e+57
          1660.70290	         9.24405e+57
          1661.50920	         9.28849e+57
          1662.31550	         9.54872e+57
          1663.12180	         9.11426e+57
          1663.92810	         1.01659e+58
          1664.73440	         1.06919e+58
          1665.54070	         1.18328e+58
          1666.34700	         1.24806e+58
          1667.15330	         1.20590e+58
          1667.95960	         9.75144e+57
          1668.76590	         7.42682e+57
          1669.57220	         7.04253e+57
          1670.37850	         7.69519e+57
          1671.18480	         8.67516e+57
          1671.99110	         7.67378e+57
          1672.79740	         6.51439e+57
          1673.60370	         6.60559e+57
          1674.41000	         7.35055e+57
          1675.21630	         7.80527e+57
          1676.02260	         7.55919e+57
          1676.82890	         7.24845e+57
          1677.63520	         7.03688e+57
          1678.44150	         7.11890e+57
          1679.24780	         7.89901e+57
          1680.05410	         7.49919e+57
          1680.86040	         6.83885e+57
          1681.66670	         7.17756e+57
          1682.47300	         7.89959e+57
          1683.27930	         8.05269e+57
          1684.08560	         8.47955e+57
          1684.89190	         8.14749e+57
          1685.69820	         6.00727e+57
          1686.50450	         4.85944e+57
          1687.31080	         6.35104e+57
          1688.11710	         7.00892e+57
          1688.92340	         5.73641e+57
          1689.72970	         6.00745e+57
          1690.53600	         6.12463e+57
          1691.34230	         5.90629e+57
          1692.14860	         7.10189e+57
          1692.95490	         7.42999e+57
          1693.76120	         7.20085e+57
          1694.56750	         7.50124e+57
          1695.37380	         8.76539e+57
          1696.18010	         9.04494e+57
          1696.98640	         9.52744e+57
          1697.79270	         8.36282e+57
          1698.59900	         7.48704e+57
          1699.40530	         7.20913e+57
          1700.21160	         7.11995e+57
          1701.01790	         7.68085e+57
          1701.82420	         7.04527e+57
          1702.63050	         7.45283e+57
          1703.43680	         9.18021e+57
          1704.24310	         1.01800e+58
          1705.04940	         8.73169e+57
          1705.85570	         8.06286e+57
          1706.66200	         8.42038e+57
          1707.46830	         7.94704e+57
          1708.27460	         7.09078e+57
          1709.08090	         6.05214e+57
          1709.88720	         6.27959e+57
          1710.69350	         6.51477e+57
          1711.49980	         6.30498e+57
          1712.30610	         7.21138e+57
          1713.11240	         9.13526e+57
          1713.91870	         8.15827e+57
          1714.72500	         7.07769e+57
          1715.53130	         7.80549e+57
          1716.33760	         7.73408e+57
          1717.14390	         8.62436e+57
          1717.95020	         9.73745e+57
          1718.75650	         8.44490e+57
          1719.56280	         8.38672e+57
          1720.36910	         7.24468e+57
          1721.17540	         6.82915e+57
          1721.98170	         6.86222e+57
          1722.78800	         6.14147e+57
          1723.59430	         7.17059e+57
          1724.40060	         8.48618e+57
          1725.20690	         7.62538e+57
          1726.01320	         7.67984e+57
          1726.81950	         8.83697e+57
          1727.62580	         7.66938e+57
          1728.43210	         7.59553e+57
          1729.23840	         8.28760e+57
          1730.04470	         8.94914e+57
          1730.85100	         8.00683e+57
          1731.65730	         7.61184e+57
          1732.46360	         7.79341e+57
          1733.26990	         7.25464e+57
          1734.07620	         7.34036e+57
          1734.88250	         7.73846e+57
          1735.68880	         7.45333e+57
          1736.49510	         7.55788e+57
          1737.30140	         7.92173e+57
          1738.10770	         6.86118e+57
          1738.91400	         7.44743e+57
          1739.72030	         7.30453e+57
          1740.52660	         6.40381e+57
          1741.33290	         6.87843e+57
          1742.13920	         6.89279e+57
          1742.94550	         7.16866e+57
          1743.75180	         7.47245e+57
          1744.55810	         7.37835e+57
          1745.36440	         7.16475e+57
          1746.17070	         6.10593e+57
          1746.97700	         5.82297e+57
          1747.78330	         6.80268e+57
          1748.58960	         7.12525e+57
          1749.39590	         7.43518e+57
          1750.20220	         7.03664e+57
          1751.00850	         6.59965e+57
          1751.81480	         7.17380e+57
          1752.62110	         7.66142e+57
          1753.42740	         7.32498e+57
          1754.23370	         5.97781e+57
          1755.04000	         7.15072e+57
          1755.84630	         8.59557e+57
          1756.65260	         9.48281e+57
          1757.45890	         9.26307e+57
          1758.26520	         7.95176e+57
          1759.07150	         9.27154e+57
          1759.87780	         7.92142e+57
          1760.68410	         8.58119e+57
          1761.49040	         9.19898e+57
          1762.29670	         5.94933e+57
          1763.10300	         6.47520e+57
          1763.90930	         8.06674e+57
          1764.71560	         8.50431e+57
          1765.52190	         7.53034e+57
          1766.32820	         8.84013e+57
          1767.13450	         8.73118e+57
          1767.94080	         6.84667e+57
          1768.74710	         7.17180e+57
          1769.55340	         7.50737e+57
          1770.35970	         6.92794e+57
          1771.16600	         7.10589e+57
          1771.97230	         8.31253e+57
          1772.77860	         8.75326e+57
          1773.58490	         7.02085e+57
          1774.39120	         6.12790e+57
          1775.19750	         6.10588e+57
          1776.00380	         6.41016e+57
          1776.81010	         6.68719e+57
          1777.61640	         7.27633e+57
          1778.42270	         8.18807e+57
          1779.22900	         7.52027e+57
          1780.03530	         6.95600e+57
          1780.84160	         7.60344e+57
          1781.64790	         7.91219e+57
          1782.45420	         7.29544e+57
          1783.26050	         6.40981e+57
          1784.06680	         6.64957e+57
          1784.87310	         8.43640e+57
          1785.67940	         7.86606e+57
          1786.48570	         7.25026e+57
          1787.29200	         6.64364e+57
          1788.09830	         5.96570e+57
          1788.90460	         5.38615e+57
          1789.71090	         5.35903e+57
          1790.51720	         5.58437e+57
          1791.32350	         7.38277e+57
          1792.12980	         7.97067e+57
          1792.93610	         7.16702e+57
          1793.74240	         6.96546e+57
          1794.54870	         8.17681e+57
          1795.35500	         7.91538e+57
          1796.16130	         7.29615e+57
          1796.96760	         5.30222e+57
          1797.77390	         6.24019e+57
          1798.58020	         6.45600e+57
          1799.38650	         5.89559e+57
          1800.19280	         6.56553e+57
          1800.99910	         6.99825e+57
          1801.80540	         6.95412e+57
          1802.61170	         8.41229e+57
          1803.41800	         8.83854e+57
          1804.22430	         7.11440e+57
          1805.03060	         6.49762e+57
          1805.83690	         6.64353e+57
          1806.64320	         7.03910e+57
          1807.44950	         7.75997e+57
          1808.25580	         7.13372e+57
          1809.06210	         8.13139e+57
          1809.86840	         7.29182e+57
          1810.67470	         8.27752e+57
          1811.48100	         9.56727e+57
          1812.28730	         9.00560e+57
          1813.09360	         6.78339e+57
          1813.89990	         7.25106e+57
          1814.70620	         7.99218e+57
          1815.51250	         8.66660e+57
          1816.31880	         8.55897e+57
          1817.12510	         7.04910e+57
          1817.93140	         6.50620e+57
          1818.73770	         7.12177e+57
          1819.54400	         9.32396e+57
          1820.35030	         8.40501e+57
          1821.15660	         6.45676e+57
          1821.96290	         6.91735e+57
          1822.76920	         6.93363e+57
          1823.57550	         6.42775e+57
          1824.38180	         6.79382e+57
          1825.18810	         8.35122e+57
          1825.99440	         8.52685e+57
          1826.80070	         7.28002e+57
          1827.60700	         6.75702e+57
          1828.41330	         6.38985e+57
          1829.21960	         6.18148e+57
          1830.02590	         6.83656e+57
          1830.83220	         7.85564e+57
          1831.63850	         8.14331e+57
          1832.44480	         8.04523e+57
          1833.25110	         8.31761e+57
          1834.05740	         8.50442e+57
          1834.86370	         7.35865e+57
          1835.67000	         6.34924e+57
          1836.47630	         7.18280e+57
          1837.28260	         8.61846e+57
          1838.08890	         8.93497e+57
          1838.89520	         9.00338e+57
          1839.70150	         7.84667e+57
          1840.50780	         6.50086e+57
          1841.31410	         6.51045e+57
          1842.12040	         6.51455e+57
          1842.92670	         7.53513e+57
          1843.73300	         7.28720e+57
          1844.53930	         7.36439e+57
          1845.34560	         8.15896e+57
          1846.15190	         8.26719e+57
          1846.95820	         8.27519e+57
          1847.76450	         7.47871e+57
          1848.57080	         5.78620e+57
          1849.37710	         6.14358e+57
          1850.18340	         7.25533e+57
          1850.98970	         7.47755e+57
          1851.79600	         8.37398e+57
          1852.60230	         6.68951e+57
          1853.40860	         5.99252e+57
          1854.21490	         7.60402e+57
          1855.02120	         5.98729e+57
          1855.82750	         4.43951e+57
          1856.63380	         5.69825e+57
          1857.44010	         6.57570e+57
          1858.24640	         7.90796e+57
          1859.05270	         7.65390e+57
          1859.85900	         5.72179e+57
          1860.66530	         5.22588e+57
          1861.47160	         6.06886e+57
          1862.27790	         6.80270e+57
          1863.08420	         7.46727e+57
          1863.89050	         8.74256e+57
          1864.69680	         7.98633e+57
          1865.50310	         7.61903e+57
          1866.30940	         5.77940e+57
          1867.11570	         5.42306e+57
          1867.92200	         7.32900e+57
          1868.72830	         7.20464e+57
          1869.53460	         6.98871e+57
          1870.34090	         7.71294e+57
          1871.14720	         8.51551e+57
          1871.95350	         7.36968e+57
          1872.75980	         7.76044e+57
          1873.56610	         6.90490e+57
          1874.37240	         5.87852e+57
          1875.17870	         6.07861e+57
          1875.98500	         7.16266e+57
          1876.79130	         7.41322e+57
          1877.59760	         6.41548e+57
          1878.40390	         5.80979e+57
          1879.21020	         5.72451e+57
          1880.01650	         6.57695e+57
          1880.82280	         8.27518e+57
          1881.62910	         9.07880e+57
          1882.43540	         9.83284e+57
          1883.24170	         8.55511e+57
          1884.04800	         6.71145e+57
          1884.85430	         6.37104e+57
          1885.66060	         7.32282e+57
          1886.46690	         7.84105e+57
          1887.27320	         7.58309e+57
          1888.07950	         5.72412e+57
          1888.88580	         6.32331e+57
          1889.69210	         8.95060e+57
          1890.49840	         8.69571e+57
          1891.30470	         7.55171e+57
          1892.11100	         8.74036e+57
          1892.91730	         8.59994e+57
          1893.72360	         8.31900e+57
          1894.52990	         7.59161e+57
          1895.33620	         7.82741e+57
          1896.14250	         7.16988e+57
          1896.94880	         6.24260e+57
          1897.75510	         3.62257e+57
          1898.56140	         5.72334e+57
          1899.36770	         9.17988e+57
          1900.17400	         7.79722e+57
          1900.98030	         7.40329e+57
          1901.78660	         8.02623e+57
          1902.59290	         8.20584e+57
          1903.39920	         8.84471e+57
          1904.20550	         8.49039e+57
          1905.01180	         9.34591e+57
          1905.81810	         1.05384e+58
          1906.62440	         1.24438e+58
          1907.43070	         1.50456e+58
          1908.23700	         1.65660e+58
          1909.04330	         1.26941e+58
          1909.84960	         1.05837e+58
          1910.65590	         1.03180e+58
          1911.46220	         8.95804e+57
          1912.26850	         7.22540e+57
          1913.07480	         6.05398e+57
          1913.88110	         5.83275e+57
          1914.68740	         5.52275e+57
          1915.49370	         5.21199e+57
          1916.30000	         5.73246e+57
          1917.10630	         5.52747e+57
          1917.91260	         7.14617e+57
          1918.71890	         6.69471e+57
          1919.52520	         6.20622e+57
          1920.33150	         6.77122e+57
          1921.13780	         7.13033e+57
          1921.94410	         8.77304e+57
          1922.75040	         8.73212e+57
          1923.55670	         7.95301e+57
          1924.36300	         7.81504e+57
          1925.16930	         6.44870e+57
          1925.97560	         4.60706e+57
          1926.78190	         4.55591e+57
          1927.58820	         5.60795e+57
          1928.39450	         6.14196e+57
          1929.20080	         5.62309e+57
          1930.00710	         6.84708e+57
          1930.81340	         8.36198e+57
          1931.61970	         8.38016e+57
          1932.42600	         8.24259e+57
          1933.23230	         9.22334e+57
          1934.03860	         8.03326e+57
          1934.84490	         6.86234e+57
          1935.65120	         8.67412e+57
          1936.45750	         8.53639e+57
          1937.26380	         7.16699e+57
          1938.07010	         6.96141e+57
          1938.87640	         6.25429e+57
          1939.68270	         7.97440e+57
          1940.48900	         8.22339e+57
          1941.29530	         7.26724e+57
          1942.10160	         7.09548e+57
          1942.90790	         6.97454e+57
          1943.71420	         6.28731e+57
          1944.52050	         5.21461e+57
          1945.32680	         5.80120e+57
          1946.13310	         6.24626e+57
          1946.93940	         7.00180e+57
          1947.74570	         7.24270e+57
          1948.55200	         5.59054e+57
          1949.35830	         6.51808e+57
          1950.16460	         5.40306e+57
          1950.97090	         4.94096e+57
          1951.77720	         6.43124e+57
          1952.58350	         7.72186e+57
          1953.38980	         5.76654e+57
          1954.19610	         4.57739e+57
          1955.00240	         4.59739e+57
          1955.80870	         5.96939e+57
          1956.61500	         5.79733e+57
          1957.42130	         6.03344e+57
          1958.22760	         6.67206e+57
          1959.03390	         7.27453e+57
          1959.84020	         8.03561e+57
          1960.64650	         7.86229e+57
          1961.45280	         6.42938e+57
          1962.25910	         5.92517e+57
          1963.06540	         5.93942e+57
          1963.87170	         5.96554e+57
          1964.67800	         6.89439e+57
          1965.48430	         5.63256e+57
          1966.29060	         6.16268e+57
          1967.09690	         8.20822e+57
          1967.90320	         7.79803e+57
          1968.70950	         6.76268e+57
          1969.51580	         6.07659e+57
          1970.32210	         7.38810e+57
          1971.12840	         6.55674e+57
          1971.93470	         4.79417e+57
          1972.74100	         5.38692e+57
          1973.54730	         7.26974e+57
          1974.35360	         7.68187e+57
          1975.15990	         8.01646e+57
          1975.96620	         6.46903e+57
          1976.77250	         7.39820e+57
          1977.57880	         7.93663e+57
          1978.38510	         6.51157e+57
          1979.19140	         6.19076e+57
          1979.99770	         7.81571e+57
          1980.80400	         7.64222e+57
          1981.61030	         7.33561e+57
          1982.41660	         6.13393e+57
          1983.22290	         5.78419e+57
          1984.02920	         5.65443e+57
          1984.83550	         6.02892e+57
          1985.64180	         7.60025e+57
          1986.44810	         7.15855e+57
          1987.25440	         6.05810e+57
          1988.06070	         5.52203e+57
          1988.86700	         5.87885e+57
          1989.67330	         6.35242e+57
          1990.47960	         6.71776e+57
          1991.28590	         6.92147e+57
          1992.09220	         6.92284e+57
          1992.89850	         6.02193e+57
          1993.70480	         5.08327e+57
          1994.51110	         4.75802e+57
          1995.31740	         4.45957e+57
          1996.12370	         5.33043e+57
          1996.93000	         6.13206e+57
          1997.73630	         8.18430e+57
          1998.54260	         7.83048e+57
          1999.34890	         8.01950e+57
          2000.15520	         8.12322e+57
          2000.96150	         5.38923e+57
          2001.76780	         5.84271e+57
          2002.57410	         4.71290e+57
          2003.38040	         5.46402e+57
          2004.18670	         6.84962e+57
          2004.99300	         6.62870e+57
          2005.79930	         7.48472e+57
          2006.60560	         6.77027e+57
          2007.41190	         5.59159e+57
          2008.21820	         6.32564e+57
          2009.02450	         6.13796e+57
          2009.83080	         6.17516e+57
          2010.63710	         6.52367e+57
          2011.44340	         6.87759e+57
          2012.24970	         7.07545e+57
          2013.05600	         6.82023e+57
          2013.86230	         6.28090e+57
          2014.66860	         5.71961e+57
          2015.47490	         6.74178e+57
          2016.28120	         6.79552e+57
          2017.08750	         5.61991e+57
          2017.89380	         5.99974e+57
          2018.70010	         6.41580e+57
          2019.50640	         5.28828e+57
          2020.31270	         6.30000e+57
          2021.11900	         8.60629e+57
          2021.92530	         7.62182e+57
          2022.73160	         7.94453e+57
          2023.53790	         6.24380e+57
          2024.34420	         6.54736e+57
          2025.15050	         4.52849e+57
          2025.95680	         5.27629e+57
          2026.76310	         6.09348e+57
          2027.56940	         6.12322e+57
          2028.37570	         6.73224e+57
          2029.18200	         6.73665e+57
          2029.98830	         6.14896e+57
          2030.79460	         6.33395e+57
          2031.60090	         6.35144e+57
          2032.40720	         5.94257e+57
          2033.21350	         6.21550e+57
          2034.01980	         5.13467e+57
          2034.82610	         3.61579e+57
          2035.63240	         5.04152e+57
          2036.43870	         5.70009e+57
          2037.24500	         5.64781e+57
          2038.05130	         5.95987e+57
          2038.85760	         5.82326e+57
          2039.66390	         5.97672e+57
          2040.47020	         5.71622e+57
          2041.27650	         5.89702e+57
          2042.08280	         5.42686e+57
          2042.88910	         5.75654e+57
          2043.69540	         6.23913e+57
          2044.50170	         5.72865e+57
          2045.30800	         4.98057e+57
          2046.11430	         5.43435e+57
          2046.92060	         5.83263e+57
          2047.72690	         6.83179e+57
          2048.53320	         5.65718e+57
          2049.33950	         4.80636e+57
          2050.14580	         5.28562e+57
          2050.95210	         6.04468e+57
          2051.75840	         6.95962e+57
          2052.56470	         4.39168e+57
          2053.37100	         4.23876e+57
          2054.17730	         5.77783e+57
          2054.98360	         6.85625e+57
          2055.78990	         5.04687e+57
          2056.59620	         3.41831e+57
          2057.40250	         5.15331e+57
          2058.20880	         6.42365e+57
          2059.01510	         6.48343e+57
          2059.82140	         8.06318e+57
          2060.62770	         1.15695e+58
          2061.43400	         1.63123e+58
          2062.24030	         1.01868e+58
          2063.04660	         5.28578e+57
          2063.85290	         3.19338e+57
          2064.65920	        -6.16624e+56
          2065.46550	        -8.37292e+57
          2066.27180	        -7.37727e+57
          2067.07810	         3.25495e+57
          2067.88440	         5.66903e+57
          2068.69070	         6.99299e+57
          2069.49700	         5.84601e+57
          2070.30330	         4.46722e+57
          2071.10960	         5.59322e+57
          2071.91590	         6.99215e+57
          2072.72220	         3.91893e+57
          2073.52850	         4.75616e+57
          2074.33480	         4.39151e+57
          2075.14110	         5.90336e+57
          2075.94740	         5.78883e+57
          2076.75370	         5.38451e+57
          2077.56000	         5.98499e+57
          2078.36630	         4.65841e+57
          2079.17260	         5.30265e+57
          2079.97890	         6.69773e+57
          2080.78520	         5.02738e+57
          2081.59150	         4.86758e+57
          2082.39780	         5.24535e+57
          2083.20410	         2.67396e+57
          2084.01040	         2.77962e+57
          2084.81670	         3.86195e+57
          2085.62300	         1.97007e+57
          2086.42930	         2.74268e+57
          2087.23560	         3.96693e+57
          2088.04190	         4.42883e+57
          2088.84820	         3.64360e+57
          2089.65450	         7.14417e+56
          2090.46080	         1.09545e+57
          2091.26710	         1.22272e+57
          2092.07340	         1.26096e+57
          2092.87970	         7.15431e+56
          2093.68600	        -1.17216e+57
          2094.49230	         2.57156e+57
          2095.29860	         5.44038e+57
          2096.10490	         1.68285e+57
          2096.91120	         2.75716e+57
          2097.71750	         6.60936e+56
          2098.52380	         7.80578e+56
          2099.33010	         1.55952e+57
          2100.13640	         2.88613e+57
          2100.94270	         4.37496e+57
          2101.74900	         4.87718e+57
          2102.55530	         4.80646e+57
          2103.36160	         4.62984e+56
          2104.16790	         5.82781e+56
          2104.97420	         2.39076e+56
          2105.78050	        -4.99240e+56
          2106.58680	        -6.97741e+56
          2107.39310	        -3.34066e+57
          2108.19940	        -2.30607e+57
          2109.00570	        -3.37471e+57
          2109.81200	        -3.35890e+57
          2110.61830	        -3.56111e+56
          2111.42460	        -2.84003e+56
          2112.23090	         5.73220e+55
          2113.03720	         1.97464e+57
          2113.84350	         4.79743e+56
          2114.64980	        -5.97464e+56
          2115.45610	        -2.56548e+57
          2116.26240	        -4.06585e+57
          2117.06870	        -2.00394e+57
          2117.87500	        -1.47070e+57
          2118.68130	         2.06800e+57
          2119.48760	         2.94744e+57
          2120.29390	         3.61656e+57
          2121.10020	        -9.17364e+56
          2121.90650	        -2.12105e+57
          2122.71280	        -3.12077e+57
          2123.51910	         2.37213e+57
          2124.32540	         1.86587e+57
          2125.13170	         3.20804e+57
          2125.93800	         6.01356e+57
          2126.74430	        -3.91449e+57
          2127.55060	        -1.16787e+58
          2128.35690	        -3.94285e+57
          2129.16320	        -5.65273e+57
          2129.96950	        -5.99624e+57
          2130.77580	        -1.89833e+57
          2131.58210	        -3.01301e+57
          2132.38840	        -3.37909e+57
          2133.19470	        -1.81210e+56
          2134.00100	         7.80527e+56
          2134.80730	         4.15318e+57
          2135.61360	         1.12468e+58
          2136.41990	         5.06312e+57
          2137.22620	        -3.65412e+57
          2138.03250	         1.17084e+57
          2138.83880	        -8.20032e+57
          2139.64510	        -4.87427e+57
          2140.45140	        -4.36264e+57
          2141.25770	        -1.29179e+58
          2142.06400	        -8.73878e+57
          2142.87030	        -4.35801e+57
          2143.67660	         8.77476e+57
          2144.48290	         1.66191e+58
          2145.28920	         9.63549e+57
          2146.09550	        -4.88572e+57
          2146.90180	        -4.90006e+57
          2147.70810	        -6.22248e+56
          2148.51440	        -2.20676e+57
          2149.32070	        -5.50094e+57
          2150.12700	        -1.11384e+58
          2150.93330	        -3.03914e+57
          2151.73960	         3.02499e+57
          2152.54590	         2.86918e+57
          2153.35220	         1.08965e+57
          2154.15850	         8.47383e+56
          2154.96480	        -7.07016e+57
          2155.77110	        -1.37171e+58
          2156.57740	        -1.00595e+58
          2157.38370	         1.44646e+57
          2158.19000	         1.06382e+57
          2158.99630	        -4.93360e+57
          2159.80260	        -1.51670e+58
          2160.60890	        -1.34062e+58
          2161.41520	        -5.61707e+57
          2162.22150	         8.37228e+57
          2163.02780	         9.90191e+56
          2163.83410	         4.72206e+56
          2164.64040	         3.38531e+57
          2165.44670	        -7.03259e+57
          2166.25300	        -5.01839e+57
          2167.05930	        -8.09952e+57
          2167.86560	        -1.70018e+58
          2168.67190	        -1.11307e+58
          2169.47820	        -1.22935e+57
          2170.28450	        -1.72024e+58
          2171.09080	         3.65868e+56
          2171.89710	        -6.45087e+56
          2172.70340	         7.88054e+57
          2173.50970	        -5.31248e+57
          2174.31600	        -6.15463e+57
          2175.12230	        -2.87640e+57
          2175.92860	        -7.70585e+57
          2176.73490	        -8.23882e+57
          2177.54120	        -6.95154e+57
          2178.34750	        -4.42357e+57
          2179.15380	                 nan
          2179.96010	                 nan
          2180.76640	                 nan
          2181.57270	                 nan
          2182.37900	                 nan
          2183.18530	                 nan
          2183.99160	                 nan
          2184.79790	                 nan
          2185.60420	                 nan
          2186.41050	                 nan
          2187.21680	                 nan
          2188.02310	                 nan
          2188.82940	                 nan
          2189.63570	                 nan
          2190.44200	                 nan
          2191.24830	                 nan
          2192.05460	                 nan
          2192.86090	                 nan
          2193.66720	                 nan
          2194.47350	                 nan
          2195.27980	                 nan
          2196.08610	                 nan
          2196.89240	                 nan
          2197.69870	                 nan
          2198.50500	                 nan
          2199.31130	                 nan
          2200.11760	                 nan
          2200.92390	                 nan
          2201.73020	                 nan
          2202.53650	                 nan
          2203.34280	                 nan
          2204.14910	                 nan
          2204.95540	                 nan
          2205.76170	                 nan
          2206.56800	                 nan
          2207.37430	                 nan
          2208.18060	                 nan
          2208.98690	                 nan
          2209.79320	                 nan
          2210.59950	                 nan
          2211.40580	                 nan
          2212.21210	                 nan
          2213.01840	                 nan
          2213.82470	                 nan
          2214.63100	                 nan
          2215.43730	         0.00000e+00
