#sample_359_stacked_spectrum_rest_UV-bands_median_H-alpha_noDC.txt
#median Lum: 1.71069e+42
#Rest-frame wavelength (A) | Luminosity (erg/s/A)
#
          1110.00000	         0.00000e+00
          1110.80630	         5.01912e+59
          1111.61260	         2.55811e+59
          1112.41890	         5.41349e+59
          1113.22520	         8.91174e+58
          1114.03150	        -1.91570e+59
          1114.83780	         8.42303e+58
          1115.64410	         3.93182e+59
          1116.45040	         3.09295e+59
          1117.25670	         7.52587e+58
          1118.06300	         9.22547e+58
          1118.86930	        -6.62850e+57
          1119.67560	         9.49615e+58
          1120.48190	         1.08107e+58
          1121.28820	        -1.51229e+59
          1122.09450	        -3.50115e+58
          1122.90080	        -3.32411e+57
          1123.70710	         7.41406e+58
          1124.51340	         1.08610e+59
          1125.31970	         1.81856e+58
          1126.12600	        -2.26150e+58
          1126.93230	        -4.97570e+58
          1127.73860	         1.56664e+57
          1128.54490	         2.39358e+58
          1129.35120	         1.91779e+58
          1130.15750	         1.77236e+58
          1130.96380	        -3.24208e+58
          1131.77010	         3.54817e+58
          1132.57640	         4.01036e+58
          1133.38270	         5.66396e+58
          1134.18900	         2.33502e+58
          1134.99530	         9.96890e+57
          1135.80160	         4.61231e+58
          1136.60790	         2.55511e+58
          1137.41420	         4.80145e+57
          1138.22050	         2.81903e+58
          1139.02680	         4.05289e+58
          1139.83310	         4.03588e+58
          1140.63940	         1.48305e+58
          1141.44570	         5.12100e+57
          1142.25200	         7.81469e+57
          1143.05830	         9.68106e+57
          1143.86460	         1.55340e+58
          1144.67090	         3.05173e+58
          1145.47720	         2.52172e+58
          1146.28350	         7.52664e+57
          1147.08980	         1.07614e+58
          1147.89610	         1.77275e+58
          1148.70240	         2.53790e+58
          1149.50870	         1.92005e+58
          1150.31500	         1.11673e+58
          1151.12130	         1.80710e+57
          1151.92760	         6.17220e+57
          1152.73390	         7.14098e+57
          1153.54020	         1.15156e+58
          1154.34650	         1.52931e+58
          1155.15280	         1.28288e+58
          1155.95910	         7.55883e+57
          1156.76540	         1.24408e+58
          1157.57170	         4.34814e+57
          1158.37800	        -9.26654e+57
          1159.18430	        -9.45514e+56
          1159.99060	         2.87414e+57
          1160.79690	         5.28134e+57
          1161.60320	         1.97383e+58
          1162.40950	         2.12102e+58
          1163.21580	         1.90835e+58
          1164.02210	         1.28291e+58
          1164.82840	         1.23240e+58
          1165.63470	         1.55093e+58
          1166.44100	         2.92858e+58
          1167.24730	         2.01230e+58
          1168.05360	         6.39619e+57
          1168.85990	         1.09639e+58
          1169.66620	         1.99695e+58
          1170.47250	         1.88142e+58
          1171.27880	         7.01175e+57
          1172.08510	         9.11569e+57
          1172.89140	         1.26634e+58
          1173.69770	         2.04060e+57
          1174.50400	         1.49681e+58
          1175.31030	         1.89144e+58
          1176.11660	         1.17836e+58
          1176.92290	         7.43150e+57
          1177.72920	         1.65792e+58
          1178.53550	         1.26050e+58
          1179.34180	         7.35539e+57
          1180.14810	         9.18299e+57
          1180.95440	         1.40064e+58
          1181.76070	         1.01005e+58
          1182.56700	         8.24428e+57
          1183.37330	         7.78966e+57
          1184.17960	         1.29437e+58
          1184.98590	         1.34792e+58
          1185.79220	         1.00557e+58
          1186.59850	         1.19589e+58
          1187.40480	         1.29898e+58
          1188.21110	         1.68518e+58
          1189.01740	         6.94885e+57
          1189.82370	         4.85197e+57
          1190.63000	         9.62204e+57
          1191.43630	         1.10699e+58
          1192.24260	         7.51835e+57
          1193.04890	         1.16858e+58
          1193.85520	         1.22298e+58
          1194.66150	         6.60649e+57
          1195.46780	         1.64959e+58
          1196.27410	         1.67603e+58
          1197.08040	         1.14044e+58
          1197.88670	         1.59446e+58
          1198.69300	         1.29603e+58
          1199.49930	         1.12602e+58
          1200.30560	         1.08540e+58
          1201.11190	         1.14767e+58
          1201.91820	         1.16461e+58
          1202.72450	         1.04135e+58
          1203.53080	         1.32284e+58
          1204.33710	         1.12297e+58
          1205.14340	         5.62186e+57
          1205.94970	         5.52905e+57
          1206.75600	         4.96602e+57
          1207.56230	         5.22926e+57
          1208.36860	         4.50656e+57
          1209.17490	         4.55860e+57
          1209.98120	         1.91936e+57
          1210.78750	         6.72903e+57
          1211.59380	         1.39235e+58
          1212.40010	         2.20714e+58
          1213.20640	         1.97563e+58
          1214.01270	         1.80010e+58
          1214.81900	         2.33855e+58
          1215.62530	         4.48818e+58
          1216.43160	         8.90465e+58
          1217.23790	         1.49584e+59
          1218.04420	         1.16306e+59
          1218.85050	         8.49662e+58
          1219.65680	         5.60440e+58
          1220.46310	         3.34185e+58
          1221.26940	         2.15623e+58
          1222.07570	         1.13032e+58
          1222.88200	         1.06738e+58
          1223.68830	         1.33387e+58
          1224.49460	         7.58893e+57
          1225.30090	         6.44310e+57
          1226.10720	         6.17793e+57
          1226.91350	         8.15777e+57
          1227.71980	         9.46147e+57
          1228.52610	         1.12029e+58
          1229.33240	         9.20184e+57
          1230.13870	         8.30389e+57
          1230.94500	         8.65676e+57
          1231.75130	         8.09485e+57
          1232.55760	         9.45400e+57
          1233.36390	         7.69825e+57
          1234.17020	         8.64868e+57
          1234.97650	         5.20553e+57
          1235.78280	         6.35799e+57
          1236.58910	         1.03718e+58
          1237.39540	         1.22589e+58
          1238.20170	         1.00115e+58
          1239.00800	         1.20248e+58
          1239.81430	         1.41761e+58
          1240.62060	         1.29675e+58
          1241.42690	         1.15757e+58
          1242.23320	         1.24921e+58
          1243.03950	         8.63251e+57
          1243.84580	         8.33160e+57
          1244.65210	         1.05027e+58
          1245.45840	         8.42752e+57
          1246.26470	         7.06567e+57
          1247.07100	         5.98020e+57
          1247.87730	         4.62506e+57
          1248.68360	         2.35008e+57
          1249.48990	         9.90084e+57
          1250.29620	         1.39232e+58
          1251.10250	         9.29523e+57
          1251.90880	         4.92080e+57
          1252.71510	         7.48963e+57
          1253.52140	         8.73730e+57
          1254.32770	         8.28961e+57
          1255.13400	         1.05694e+58
          1255.94030	         1.16124e+58
          1256.74660	         1.00664e+58
          1257.55290	         9.87557e+57
          1258.35920	         8.56985e+57
          1259.16550	         6.93210e+57
          1259.97180	         7.55521e+57
          1260.77810	         9.38624e+57
          1261.58440	         9.99492e+57
          1262.39070	         8.28216e+57
          1263.19700	         9.59578e+57
          1264.00330	         8.07110e+57
          1264.80960	         8.97404e+57
          1265.61590	         1.16581e+58
          1266.42220	         1.20177e+58
          1267.22850	         9.56480e+57
          1268.03480	         1.27246e+58
          1268.84110	         1.55974e+58
          1269.64740	         1.33913e+58
          1270.45370	         1.37665e+58
          1271.26000	         1.18424e+58
          1272.06630	         1.07547e+58
          1272.87260	         1.11907e+58
          1273.67890	         1.22735e+58
          1274.48520	         1.55602e+58
          1275.29150	         1.39769e+58
          1276.09780	         1.20475e+58
          1276.90410	         1.53012e+58
          1277.71040	         1.41290e+58
          1278.51670	         1.24998e+58
          1279.32300	         1.14898e+58
          1280.12930	         1.13693e+58
          1280.93560	         1.08282e+58
          1281.74190	         1.37218e+58
          1282.54820	         1.51562e+58
          1283.35450	         1.21547e+58
          1284.16080	         1.20846e+58
          1284.96710	         1.21176e+58
          1285.77340	         9.45763e+57
          1286.57970	         1.10136e+58
          1287.38600	         1.69127e+58
          1288.19230	         1.79623e+58
          1288.99860	         1.51381e+58
          1289.80490	         1.20280e+58
          1290.61120	         1.23738e+58
          1291.41750	         1.42662e+58
          1292.22380	         1.19536e+58
          1293.03010	         9.84167e+57
          1293.83640	         1.17427e+58
          1294.64270	         1.24368e+58
          1295.44900	         8.57726e+57
          1296.25530	         7.26117e+57
          1297.06160	         1.00059e+58
          1297.86790	         1.02494e+58
          1298.67420	         8.33267e+57
          1299.48050	         1.10287e+58
          1300.28680	         1.31661e+58
          1301.09310	         1.07852e+58
          1301.89940	         4.65615e+57
          1302.70570	         5.37406e+57
          1303.51200	         8.84230e+57
          1304.31830	         1.02329e+58
          1305.12460	         1.01589e+58
          1305.93090	         1.09447e+58
          1306.73720	         1.37161e+58
          1307.54350	         1.45100e+58
          1308.34980	         1.57123e+58
          1309.15610	         1.76904e+58
          1309.96240	         1.73397e+58
          1310.76870	         1.33776e+58
          1311.57500	         1.09138e+58
          1312.38130	         1.12182e+58
          1313.18760	         1.58392e+58
          1313.99390	         1.81618e+58
          1314.80020	         1.56482e+58
          1315.60650	         1.31104e+58
          1316.41280	         1.01704e+58
          1317.21910	         9.85963e+57
          1318.02540	         1.15202e+58
          1318.83170	         1.30708e+58
          1319.63800	         1.29085e+58
          1320.44430	         1.32313e+58
          1321.25060	         1.16760e+58
          1322.05690	         1.23543e+58
          1322.86320	         1.33541e+58
          1323.66950	         1.13743e+58
          1324.47580	         9.24138e+57
          1325.28210	         1.04204e+58
          1326.08840	         1.19834e+58
          1326.89470	         1.25569e+58
          1327.70100	         1.17994e+58
          1328.50730	         9.40614e+57
          1329.31360	         1.11533e+58
          1330.11990	         1.12574e+58
          1330.92620	         8.95489e+57
          1331.73250	         1.11161e+58
          1332.53880	         1.13952e+58
          1333.34510	         1.01765e+58
          1334.15140	         7.97500e+57
          1334.95770	         8.77851e+57
          1335.76400	         9.77052e+57
          1336.57030	         9.30660e+57
          1337.37660	         1.05187e+58
          1338.18290	         1.16323e+58
          1338.98920	         1.15640e+58
          1339.79550	         1.24998e+58
          1340.60180	         1.30886e+58
          1341.40810	         1.31819e+58
          1342.21440	         1.24755e+58
          1343.02070	         1.27124e+58
          1343.82700	         1.33458e+58
          1344.63330	         1.21400e+58
          1345.43960	         1.33659e+58
          1346.24590	         1.22761e+58
          1347.05220	         1.31521e+58
          1347.85850	         9.19981e+57
          1348.66480	         8.85047e+57
          1349.47110	         1.17359e+58
          1350.27740	         1.12193e+58
          1351.08370	         1.06088e+58
          1351.89000	         1.09502e+58
          1352.69630	         1.25386e+58
          1353.50260	         1.22162e+58
          1354.30890	         1.20615e+58
          1355.11520	         1.18014e+58
          1355.92150	         1.10622e+58
          1356.72780	         9.13255e+57
          1357.53410	         9.04382e+57
          1358.34040	         1.13282e+58
          1359.14670	         1.22027e+58
          1359.95300	         1.22449e+58
          1360.75930	         1.25159e+58
          1361.56560	         1.09420e+58
          1362.37190	         1.00286e+58
          1363.17820	         1.04590e+58
          1363.98450	         1.21247e+58
          1364.79080	         1.36890e+58
          1365.59710	         1.24355e+58
          1366.40340	         1.19187e+58
          1367.20970	         1.06450e+58
          1368.01600	         1.14501e+58
          1368.82230	         1.04696e+58
          1369.62860	         8.75352e+57
          1370.43490	         8.43320e+57
          1371.24120	         1.05033e+58
          1372.04750	         9.32019e+57
          1372.85380	         9.75267e+57
          1373.66010	         1.11676e+58
          1374.46640	         1.11840e+58
          1375.27270	         1.07295e+58
          1376.07900	         9.11938e+57
          1376.88530	         8.66786e+57
          1377.69160	         8.73940e+57
          1378.49790	         7.87446e+57
          1379.30420	         8.04563e+57
          1380.11050	         1.09575e+58
          1380.91680	         1.03593e+58
          1381.72310	         8.03472e+57
          1382.52940	         8.37923e+57
          1383.33570	         8.30331e+57
          1384.14200	         8.88127e+57
          1384.94830	         1.00086e+58
          1385.75460	         1.04974e+58
          1386.56090	         9.99695e+57
          1387.36720	         9.48574e+57
          1388.17350	         1.24342e+58
          1388.97980	         1.22016e+58
          1389.78610	         9.91321e+57
          1390.59240	         8.71768e+57
          1391.39870	         8.33711e+57
          1392.20500	         9.67172e+57
          1393.01130	         8.08440e+57
          1393.81760	         6.84657e+57
          1394.62390	         6.56495e+57
          1395.43020	         7.22373e+57
          1396.23650	         7.04526e+57
          1397.04280	         7.39019e+57
          1397.84910	         9.14216e+57
          1398.65540	         9.79706e+57
          1399.46170	         1.04713e+58
          1400.26800	         8.35069e+57
          1401.07430	         7.17547e+57
          1401.88060	         7.57051e+57
          1402.68690	         9.78476e+57
          1403.49320	         1.06683e+58
          1404.29950	         8.63912e+57
          1405.10580	         9.52682e+57
          1405.91210	         1.00374e+58
          1406.71840	         1.02640e+58
          1407.52470	         1.02321e+58
          1408.33100	         1.01425e+58
          1409.13730	         1.12416e+58
          1409.94360	         1.14705e+58
          1410.74990	         1.26456e+58
          1411.55620	         1.12886e+58
          1412.36250	         9.67373e+57
          1413.16880	         8.74388e+57
          1413.97510	         7.58565e+57
          1414.78140	         9.47036e+57
          1415.58770	         1.26820e+58
          1416.39400	         1.19462e+58
          1417.20030	         1.08993e+58
          1418.00660	         1.06789e+58
          1418.81290	         1.09151e+58
          1419.61920	         1.13907e+58
          1420.42550	         1.24014e+58
          1421.23180	         1.31878e+58
          1422.03810	         1.18574e+58
          1422.84440	         1.20844e+58
          1423.65070	         1.40937e+58
          1424.45700	         1.24536e+58
          1425.26330	         9.78787e+57
          1426.06960	         9.76358e+57
          1426.87590	         1.03977e+58
          1427.68220	         1.07482e+58
          1428.48850	         1.10652e+58
          1429.29480	         1.14077e+58
          1430.10110	         1.14152e+58
          1430.90740	         9.04501e+57
          1431.71370	         9.06010e+57
          1432.52000	         9.79429e+57
          1433.32630	         8.31586e+57
          1434.13260	         7.78319e+57
          1434.93890	         8.21252e+57
          1435.74520	         9.58601e+57
          1436.55150	         9.90138e+57
          1437.35780	         9.46557e+57
          1438.16410	         8.88965e+57
          1438.97040	         8.58655e+57
          1439.77670	         8.41639e+57
          1440.58300	         8.74042e+57
          1441.38930	         9.25941e+57
          1442.19560	         9.98018e+57
          1443.00190	         9.68304e+57
          1443.80820	         1.01915e+58
          1444.61450	         9.57354e+57
          1445.42080	         9.72400e+57
          1446.22710	         1.10364e+58
          1447.03340	         9.77717e+57
          1447.83970	         1.06049e+58
          1448.64600	         9.93212e+57
          1449.45230	         9.76872e+57
          1450.25860	         1.11604e+58
          1451.06490	         9.51100e+57
          1451.87120	         8.84504e+57
          1452.67750	         8.60036e+57
          1453.48380	         9.25258e+57
          1454.29010	         8.83186e+57
          1455.09640	         7.70845e+57
          1455.90270	         8.04075e+57
          1456.70900	         7.21705e+57
          1457.51530	         9.18301e+57
          1458.32160	         1.29892e+58
          1459.12790	         1.18618e+58
          1459.93420	         9.60318e+57
          1460.74050	         8.02942e+57
          1461.54680	         8.64833e+57
          1462.35310	         8.53554e+57
          1463.15940	         8.57011e+57
          1463.96570	         1.07996e+58
          1464.77200	         1.18907e+58
          1465.57830	         1.03970e+58
          1466.38460	         9.98277e+57
          1467.19090	         1.00995e+58
          1467.99720	         9.24951e+57
          1468.80350	         9.61581e+57
          1469.60980	         9.96809e+57
          1470.41610	         1.05887e+58
          1471.22240	         9.61484e+57
          1472.02870	         9.49944e+57
          1472.83500	         9.64822e+57
          1473.64130	         9.35536e+57
          1474.44760	         1.05027e+58
          1475.25390	         1.01858e+58
          1476.06020	         9.54235e+57
          1476.86650	         9.43786e+57
          1477.67280	         8.57039e+57
          1478.47910	         7.54205e+57
          1479.28540	         7.31818e+57
          1480.09170	         8.63397e+57
          1480.89800	         9.89124e+57
          1481.70430	         9.26439e+57
          1482.51060	         7.86675e+57
          1483.31690	         7.36940e+57
          1484.12320	         7.03325e+57
          1484.92950	         7.58258e+57
          1485.73580	         8.48924e+57
          1486.54210	         9.20919e+57
          1487.34840	         9.18745e+57
          1488.15470	         8.82855e+57
          1488.96100	         7.97543e+57
          1489.76730	         8.54355e+57
          1490.57360	         8.63365e+57
          1491.37990	         7.48258e+57
          1492.18620	         8.23537e+57
          1492.99250	         8.59204e+57
          1493.79880	         8.66839e+57
          1494.60510	         8.48239e+57
          1495.41140	         6.92905e+57
          1496.21770	         8.55787e+57
          1497.02400	         1.03984e+58
          1497.83030	         8.38227e+57
          1498.63660	         6.57136e+57
          1499.44290	         6.88159e+57
          1500.24920	         8.47726e+57
          1501.05550	         8.76270e+57
          1501.86180	         8.39609e+57
          1502.66810	         9.44817e+57
          1503.47440	         8.50904e+57
          1504.28070	         7.16689e+57
          1505.08700	         9.23772e+57
          1505.89330	         1.04144e+58
          1506.69960	         8.31847e+57
          1507.50590	         8.12491e+57
          1508.31220	         8.15415e+57
          1509.11850	         7.92078e+57
          1509.92480	         9.33548e+57
          1510.73110	         9.80428e+57
          1511.53740	         8.11202e+57
          1512.34370	         7.33807e+57
          1513.15000	         9.08367e+57
          1513.95630	         9.72975e+57
          1514.76260	         9.00295e+57
          1515.56890	         8.79073e+57
          1516.37520	         8.63077e+57
          1517.18150	         7.65636e+57
          1517.98780	         7.33203e+57
          1518.79410	         6.69838e+57
          1519.60040	         8.42135e+57
          1520.40670	         9.82616e+57
          1521.21300	         9.35610e+57
          1522.01930	         8.34121e+57
          1522.82560	         8.90869e+57
          1523.63190	         1.05960e+58
          1524.43820	         9.05684e+57
          1525.24450	         6.96032e+57
          1526.05080	         6.46949e+57
          1526.85710	         6.07573e+57
          1527.66340	         6.59880e+57
          1528.46970	         7.80903e+57
          1529.27600	         7.20383e+57
          1530.08230	         7.27820e+57
          1530.88860	         8.60559e+57
          1531.69490	         8.90732e+57
          1532.50120	         9.11533e+57
          1533.30750	         1.04814e+58
          1534.11380	         1.05370e+58
          1534.92010	         8.87903e+57
          1535.72640	         9.59281e+57
          1536.53270	         9.40733e+57
          1537.33900	         8.55552e+57
          1538.14530	         8.73744e+57
          1538.95160	         9.51998e+57
          1539.75790	         9.91915e+57
          1540.56420	         9.12307e+57
          1541.37050	         7.78760e+57
          1542.17680	         7.15006e+57
          1542.98310	         8.37580e+57
          1543.78940	         9.02313e+57
          1544.59570	         8.04410e+57
          1545.40200	         8.43430e+57
          1546.20830	         9.09908e+57
          1547.01460	         9.32427e+57
          1547.82090	         1.18209e+58
          1548.62720	         1.23121e+58
          1549.43350	         1.25880e+58
          1550.23980	         1.06938e+58
          1551.04610	         1.17312e+58
          1551.85240	         1.19977e+58
          1552.65870	         1.27032e+58
          1553.46500	         1.17002e+58
          1554.27130	         9.80087e+57
          1555.07760	         9.19537e+57
          1555.88390	         7.62159e+57
          1556.69020	         8.43308e+57
          1557.49650	         8.92143e+57
          1558.30280	         9.67883e+57
          1559.10910	         9.02353e+57
          1559.91540	         8.81249e+57
          1560.72170	         8.34352e+57
          1561.52800	         9.12646e+57
          1562.33430	         9.32048e+57
          1563.14060	         8.48081e+57
          1563.94690	         8.06107e+57
          1564.75320	         8.11157e+57
          1565.55950	         6.73261e+57
          1566.36580	         7.08869e+57
          1567.17210	         8.94575e+57
          1567.97840	         9.53225e+57
          1568.78470	         9.34380e+57
          1569.59100	         1.00298e+58
          1570.39730	         8.73432e+57
          1571.20360	         7.38960e+57
          1572.00990	         7.22313e+57
          1572.81620	         8.49501e+57
          1573.62250	         9.34341e+57
          1574.42880	         8.81545e+57
          1575.23510	         8.18974e+57
          1576.04140	         9.03617e+57
          1576.84770	         9.29512e+57
          1577.65400	         9.12099e+57
          1578.46030	         9.37654e+57
          1579.26660	         1.10320e+58
          1580.07290	         9.94179e+57
          1580.87920	         7.30668e+57
          1581.68550	         6.63473e+57
          1582.49180	         7.87448e+57
          1583.29810	         7.20176e+57
          1584.10440	         8.68443e+57
          1584.91070	         9.04754e+57
          1585.71700	         8.39339e+57
          1586.52330	         8.92618e+57
          1587.32960	         8.18263e+57
          1588.13590	         9.19547e+57
          1588.94220	         8.95559e+57
          1589.74850	         9.23891e+57
          1590.55480	         9.54860e+57
          1591.36110	         8.59515e+57
          1592.16740	         8.94830e+57
          1592.97370	         8.67739e+57
          1593.78000	         9.42034e+57
          1594.58630	         1.04856e+58
          1595.39260	         8.88304e+57
          1596.19890	         8.57296e+57
          1597.00520	         9.09383e+57
          1597.81150	         8.34722e+57
          1598.61780	         7.17998e+57
          1599.42410	         6.80135e+57
          1600.23040	         7.06496e+57
          1601.03670	         7.42519e+57
          1601.84300	         7.13727e+57
          1602.64930	         8.22582e+57
          1603.45560	         8.99351e+57
          1604.26190	         7.76439e+57
          1605.06820	         7.74012e+57
          1605.87450	         7.30463e+57
          1606.68080	         5.94730e+57
          1607.48710	         5.25970e+57
          1608.29340	         6.43824e+57
          1609.09970	         7.53815e+57
          1609.90600	         7.91519e+57
          1610.71230	         7.00318e+57
          1611.51860	         6.58875e+57
          1612.32490	         6.73481e+57
          1613.13120	         8.16211e+57
          1613.93750	         9.15779e+57
          1614.74380	         9.00740e+57
          1615.55010	         8.49017e+57
          1616.35640	         9.30392e+57
          1617.16270	         1.00323e+58
          1617.96900	         1.04788e+58
          1618.77530	         9.03650e+57
          1619.58160	         9.07990e+57
          1620.38790	         8.80988e+57
          1621.19420	         9.00554e+57
          1622.00050	         7.91932e+57
          1622.80680	         8.85301e+57
          1623.61310	         8.88033e+57
          1624.41940	         8.84675e+57
          1625.22570	         9.88788e+57
          1626.03200	         8.77150e+57
          1626.83830	         7.71398e+57
          1627.64460	         6.77049e+57
          1628.45090	         6.31451e+57
          1629.25720	         9.68594e+57
          1630.06350	         9.69668e+57
          1630.86980	         6.94486e+57
          1631.67610	         7.86528e+57
          1632.48240	         8.76782e+57
          1633.28870	         8.57917e+57
          1634.09500	         9.35994e+57
          1634.90130	         1.20257e+58
          1635.70760	         1.12565e+58
          1636.51390	         7.81310e+57
          1637.32020	         7.57595e+57
          1638.12650	         9.48965e+57
          1638.93280	         9.78643e+57
          1639.73910	         1.11887e+58
          1640.54540	         1.05604e+58
          1641.35170	         7.55422e+57
          1642.15800	         7.82491e+57
          1642.96430	         8.56299e+57
          1643.77060	         8.99128e+57
          1644.57690	         8.45902e+57
          1645.38320	         8.94483e+57
          1646.18950	         8.00391e+57
          1646.99580	         8.67078e+57
          1647.80210	         8.15382e+57
          1648.60840	         8.31793e+57
          1649.41470	         9.08243e+57
          1650.22100	         7.76605e+57
          1651.02730	         7.40073e+57
          1651.83360	         6.72114e+57
          1652.63990	         7.73895e+57
          1653.44620	         9.40624e+57
          1654.25250	         8.82415e+57
          1655.05880	         7.91377e+57
          1655.86510	         8.34407e+57
          1656.67140	         7.92239e+57
          1657.47770	         8.08531e+57
          1658.28400	         8.41061e+57
          1659.09030	         8.89567e+57
          1659.89660	         9.26742e+57
          1660.70290	         9.88693e+57
          1661.50920	         9.77110e+57
          1662.31550	         8.38705e+57
          1663.12180	         8.04911e+57
          1663.92810	         9.36819e+57
          1664.73440	         1.12408e+58
          1665.54070	         1.22341e+58
          1666.34700	         1.22080e+58
          1667.15330	         1.10872e+58
          1667.95960	         9.07074e+57
          1668.76590	         7.43070e+57
          1669.57220	         7.04136e+57
          1670.37850	         7.34483e+57
          1671.18480	         7.75004e+57
          1671.99110	         7.18093e+57
          1672.79740	         7.25839e+57
          1673.60370	         7.38222e+57
          1674.41000	         7.14391e+57
          1675.21630	         6.64325e+57
          1676.02260	         7.12223e+57
          1676.82890	         7.40823e+57
          1677.63520	         7.22455e+57
          1678.44150	         7.42738e+57
          1679.24780	         9.15270e+57
          1680.05410	         9.20387e+57
          1680.86040	         7.06098e+57
          1681.66670	         6.63642e+57
          1682.47300	         7.73157e+57
          1683.27930	         9.00730e+57
          1684.08560	         9.73292e+57
          1684.89190	         8.67548e+57
          1685.69820	         5.28388e+57
          1686.50450	         5.64812e+57
          1687.31080	         5.48796e+57
          1688.11710	         7.71339e+57
          1688.92340	         7.62210e+57
          1689.72970	         6.75675e+57
          1690.53600	         7.03004e+57
          1691.34230	         7.29061e+57
          1692.14860	         7.38290e+57
          1692.95490	         7.56204e+57
          1693.76120	         7.03126e+57
          1694.56750	         7.65450e+57
          1695.37380	         1.01173e+58
          1696.18010	         9.51328e+57
          1696.98640	         8.75488e+57
          1697.79270	         9.57546e+57
          1698.59900	         9.09162e+57
          1699.40530	         8.09742e+57
          1700.21160	         7.87555e+57
          1701.01790	         8.97368e+57
          1701.82420	         8.02109e+57
          1702.63050	         8.80271e+57
          1703.43680	         9.40993e+57
          1704.24310	         9.43788e+57
          1705.04940	         9.03059e+57
          1705.85570	         7.22105e+57
          1706.66200	         6.85605e+57
          1707.46830	         7.81759e+57
          1708.27460	         7.53387e+57
          1709.08090	         6.71184e+57
          1709.88720	         7.18662e+57
          1710.69350	         6.88987e+57
          1711.49980	         6.85991e+57
          1712.30610	         7.35861e+57
          1713.11240	         8.66168e+57
          1713.91870	         7.77399e+57
          1714.72500	         7.13934e+57
          1715.53130	         8.21048e+57
          1716.33760	         6.98641e+57
          1717.14390	         6.93049e+57
          1717.95020	         8.43163e+57
          1718.75650	         9.51200e+57
          1719.56280	         1.02476e+58
          1720.36910	         8.27529e+57
          1721.17540	         8.17129e+57
          1721.98170	         6.93890e+57
          1722.78800	         6.64936e+57
          1723.59430	         7.20429e+57
          1724.40060	         8.55914e+57
          1725.20690	         8.35290e+57
          1726.01320	         8.60211e+57
          1726.81950	         8.03689e+57
          1727.62580	         7.93586e+57
          1728.43210	         6.86109e+57
          1729.23840	         6.68139e+57
          1730.04470	         7.18760e+57
          1730.85100	         8.18382e+57
          1731.65730	         7.55637e+57
          1732.46360	         8.27996e+57
          1733.26990	         8.33680e+57
          1734.07620	         8.09016e+57
          1734.88250	         7.89158e+57
          1735.68880	         7.50857e+57
          1736.49510	         7.12075e+57
          1737.30140	         6.95093e+57
          1738.10770	         6.82315e+57
          1738.91400	         7.49894e+57
          1739.72030	         7.56140e+57
          1740.52660	         6.20660e+57
          1741.33290	         5.78619e+57
          1742.13920	         5.99448e+57
          1742.94550	         7.26524e+57
          1743.75180	         8.06806e+57
          1744.55810	         8.05190e+57
          1745.36440	         6.96313e+57
          1746.17070	         5.92817e+57
          1746.97700	         6.15958e+57
          1747.78330	         7.28071e+57
          1748.58960	         6.79140e+57
          1749.39590	         6.83656e+57
          1750.20220	         6.70204e+57
          1751.00850	         5.06784e+57
          1751.81480	         5.66090e+57
          1752.62110	         6.66428e+57
          1753.42740	         7.49916e+57
          1754.23370	         7.03202e+57
          1755.04000	         7.95993e+57
          1755.84630	         8.27825e+57
          1756.65260	         8.19511e+57
          1757.45890	         8.21751e+57
          1758.26520	         6.74635e+57
          1759.07150	         7.63607e+57
          1759.87780	         6.88631e+57
          1760.68410	         7.91978e+57
          1761.49040	         8.40300e+57
          1762.29670	         5.89696e+57
          1763.10300	         7.13053e+57
          1763.90930	         8.35100e+57
          1764.71560	         8.99208e+57
          1765.52190	         7.56223e+57
          1766.32820	         8.41479e+57
          1767.13450	         9.03619e+57
          1767.94080	         7.99512e+57
          1768.74710	         7.69886e+57
          1769.55340	         7.54361e+57
          1770.35970	         7.06300e+57
          1771.16600	         8.29197e+57
          1771.97230	         9.11205e+57
          1772.77860	         9.23377e+57
          1773.58490	         7.46077e+57
          1774.39120	         6.21169e+57
          1775.19750	         6.59886e+57
          1776.00380	         6.84419e+57
          1776.81010	         6.54438e+57
          1777.61640	         7.26925e+57
          1778.42270	         7.34877e+57
          1779.22900	         6.50685e+57
          1780.03530	         6.36417e+57
          1780.84160	         7.72395e+57
          1781.64790	         8.27604e+57
          1782.45420	         7.45368e+57
          1783.26050	         6.88960e+57
          1784.06680	         7.33731e+57
          1784.87310	         7.96120e+57
          1785.67940	         7.73768e+57
          1786.48570	         7.17669e+57
          1787.29200	         6.83572e+57
          1788.09830	         6.40533e+57
          1788.90460	         5.81321e+57
          1789.71090	         5.38660e+57
          1790.51720	         5.48166e+57
          1791.32350	         7.55337e+57
          1792.12980	         8.94174e+57
          1792.93610	         8.73659e+57
          1793.74240	         7.15085e+57
          1794.54870	         7.46789e+57
          1795.35500	         8.19612e+57
          1796.16130	         8.31667e+57
          1796.96760	         6.55968e+57
          1797.77390	         6.87658e+57
          1798.58020	         7.47811e+57
          1799.38650	         6.99633e+57
          1800.19280	         7.63582e+57
          1800.99910	         8.76911e+57
          1801.80540	         8.18261e+57
          1802.61170	         8.57990e+57
          1803.41800	         9.18431e+57
          1804.22430	         8.21186e+57
          1805.03060	         7.10456e+57
          1805.83690	         7.20191e+57
          1806.64320	         7.62139e+57
          1807.44950	         7.05776e+57
          1808.25580	         8.16025e+57
          1809.06210	         8.38281e+57
          1809.86840	         7.40756e+57
          1810.67470	         7.83976e+57
          1811.48100	         8.11478e+57
          1812.28730	         8.93005e+57
          1813.09360	         8.31656e+57
          1813.89990	         6.94804e+57
          1814.70620	         6.60076e+57
          1815.51250	         7.75044e+57
          1816.31880	         9.26713e+57
          1817.12510	         9.16173e+57
          1817.93140	         7.14223e+57
          1818.73770	         6.61307e+57
          1819.54400	         8.80696e+57
          1820.35030	         9.41267e+57
          1821.15660	         7.02072e+57
          1821.96290	         7.02805e+57
          1822.76920	         7.88429e+57
          1823.57550	         7.36538e+57
          1824.38180	         7.63574e+57
          1825.18810	         7.88832e+57
          1825.99440	         8.39377e+57
          1826.80070	         8.55781e+57
          1827.60700	         7.17018e+57
          1828.41330	         6.10673e+57
          1829.21960	         7.11311e+57
          1830.02590	         8.01253e+57
          1830.83220	         8.26948e+57
          1831.63850	         7.38857e+57
          1832.44480	         6.79241e+57
          1833.25110	         7.68023e+57
          1834.05740	         9.11263e+57
          1834.86370	         7.85427e+57
          1835.67000	         6.02851e+57
          1836.47630	         7.36469e+57
          1837.28260	         8.59750e+57
          1838.08890	         8.64897e+57
          1838.89520	         8.69640e+57
          1839.70150	         8.36093e+57
          1840.50780	         7.35502e+57
          1841.31410	         7.79132e+57
          1842.12040	         7.78478e+57
          1842.92670	         7.36102e+57
          1843.73300	         7.05562e+57
          1844.53930	         6.51713e+57
          1845.34560	         6.26948e+57
          1846.15190	         6.81771e+57
          1846.95820	         7.86023e+57
          1847.76450	         8.16046e+57
          1848.57080	         6.20428e+57
          1849.37710	         6.52684e+57
          1850.18340	         8.86836e+57
          1850.98970	         8.51597e+57
          1851.79600	         7.32304e+57
          1852.60230	         6.62597e+57
          1853.40860	         7.13266e+57
          1854.21490	         7.72132e+57
          1855.02120	         5.58923e+57
          1855.82750	         4.29764e+57
          1856.63380	         6.31086e+57
          1857.44010	         7.38014e+57
          1858.24640	         7.34240e+57
          1859.05270	         6.61674e+57
          1859.85900	         5.84805e+57
          1860.66530	         6.40595e+57
          1861.47160	         7.50714e+57
          1862.27790	         7.21935e+57
          1863.08420	         7.67401e+57
          1863.89050	         8.03439e+57
          1864.69680	         7.12857e+57
          1865.50310	         7.27192e+57
          1866.30940	         5.87254e+57
          1867.11570	         5.56072e+57
          1867.92200	         6.68637e+57
          1868.72830	         7.44289e+57
          1869.53460	         7.37587e+57
          1870.34090	         8.18963e+57
          1871.14720	         8.66237e+57
          1871.95350	         7.57748e+57
          1872.75980	         7.59456e+57
          1873.56610	         7.07309e+57
          1874.37240	         6.99111e+57
          1875.17870	         5.73868e+57
          1875.98500	         6.11449e+57
          1876.79130	         7.43996e+57
          1877.59760	         7.23806e+57
          1878.40390	         6.81512e+57
          1879.21020	         7.36810e+57
          1880.01650	         7.58561e+57
          1880.82280	         8.06641e+57
          1881.62910	         8.62860e+57
          1882.43540	         1.01524e+58
          1883.24170	         8.18412e+57
          1884.04800	         6.57042e+57
          1884.85430	         7.19714e+57
          1885.66060	         7.04298e+57
          1886.46690	         7.83806e+57
          1887.27320	         8.54925e+57
          1888.07950	         7.09617e+57
          1888.88580	         6.58087e+57
          1889.69210	         7.74147e+57
          1890.49840	         6.73811e+57
          1891.30470	         7.41676e+57
          1892.11100	         7.95385e+57
          1892.91730	         8.19247e+57
          1893.72360	         7.65599e+57
          1894.52990	         6.78588e+57
          1895.33620	         7.17395e+57
          1896.14250	         6.86648e+57
          1896.94880	         5.51073e+57
          1897.75510	         4.70807e+57
          1898.56140	         5.39080e+57
          1899.36770	         7.99732e+57
          1900.17400	         7.98111e+57
          1900.98030	         6.90021e+57
          1901.78660	         7.55793e+57
          1902.59290	         7.44596e+57
          1903.39920	         8.10164e+57
          1904.20550	         9.61011e+57
          1905.01180	         8.91249e+57
          1905.81810	         9.97904e+57
          1906.62440	         1.32430e+58
          1907.43070	         1.53892e+58
          1908.23700	         1.49309e+58
          1909.04330	         1.28783e+58
          1909.84960	         1.12139e+58
          1910.65590	         9.89097e+57
          1911.46220	         9.34253e+57
          1912.26850	         8.43606e+57
          1913.07480	         5.96446e+57
          1913.88110	         5.46595e+57
          1914.68740	         5.84961e+57
          1915.49370	         6.28448e+57
          1916.30000	         6.57892e+57
          1917.10630	         7.26073e+57
          1917.91260	         6.55522e+57
          1918.71890	         6.29798e+57
          1919.52520	         5.77557e+57
          1920.33150	         5.13387e+57
          1921.13780	         6.71782e+57
          1921.94410	         8.16757e+57
          1922.75040	         7.61754e+57
          1923.55670	         7.28808e+57
          1924.36300	         7.66136e+57
          1925.16930	         6.36965e+57
          1925.97560	         5.65700e+57
          1926.78190	         4.87685e+57
          1927.58820	         6.54672e+57
          1928.39450	         6.10941e+57
          1929.20080	         4.79811e+57
          1930.00710	         7.65661e+57
          1930.81340	         7.93838e+57
          1931.61970	         5.79283e+57
          1932.42600	         8.37987e+57
          1933.23230	         8.75510e+57
          1934.03860	         6.41876e+57
          1934.84490	         6.47014e+57
          1935.65120	         7.26493e+57
          1936.45750	         9.51083e+57
          1937.26380	         6.27775e+57
          1938.07010	         7.03697e+57
          1938.87640	         7.21348e+57
          1939.68270	         8.15004e+57
          1940.48900	         8.37260e+57
          1941.29530	         8.26321e+57
          1942.10160	         7.12459e+57
          1942.90790	         6.73879e+57
          1943.71420	         6.87716e+57
          1944.52050	         5.80498e+57
          1945.32680	         6.31226e+57
          1946.13310	         7.17365e+57
          1946.93940	         8.06540e+57
          1947.74570	         7.81237e+57
          1948.55200	         7.26887e+57
          1949.35830	         5.50632e+57
          1950.16460	         5.22209e+57
          1950.97090	         6.53519e+57
          1951.77720	         7.80309e+57
          1952.58350	         7.76415e+57
          1953.38980	         5.62435e+57
          1954.19610	         4.34941e+57
          1955.00240	         5.07356e+57
          1955.80870	         6.47887e+57
          1956.61500	         5.88161e+57
          1957.42130	         6.18285e+57
          1958.22760	         6.55056e+57
          1959.03390	         7.11112e+57
          1959.84020	         7.84041e+57
          1960.64650	         6.40758e+57
          1961.45280	         5.56988e+57
          1962.25910	         6.63773e+57
          1963.06540	         6.43614e+57
          1963.87170	         5.80359e+57
          1964.67800	         5.60214e+57
          1965.48430	         6.27058e+57
          1966.29060	         5.17510e+57
          1967.09690	         7.89562e+57
          1967.90320	         7.63678e+57
          1968.70950	         7.49630e+57
          1969.51580	         5.94432e+57
          1970.32210	         6.13983e+57
          1971.12840	         6.90490e+57
          1971.93470	         4.95942e+57
          1972.74100	         4.85802e+57
          1973.54730	         6.02443e+57
          1974.35360	         7.09201e+57
          1975.15990	         8.74616e+57
          1975.96620	         7.90420e+57
          1976.77250	         7.81930e+57
          1977.57880	         7.97530e+57
          1978.38510	         6.83054e+57
          1979.19140	         7.53679e+57
          1979.99770	         8.40697e+57
          1980.80400	         7.37083e+57
          1981.61030	         5.65683e+57
          1982.41660	         5.83031e+57
          1983.22290	         5.82851e+57
          1984.02920	         4.87043e+57
          1984.83550	         6.13955e+57
          1985.64180	         6.59767e+57
          1986.44810	         7.38896e+57
          1987.25440	         5.01756e+57
          1988.06070	         6.06034e+57
          1988.86700	         7.35893e+57
          1989.67330	         6.60843e+57
          1990.47960	         6.53358e+57
          1991.28590	         6.99223e+57
          1992.09220	         6.41792e+57
          1992.89850	         5.91053e+57
          1993.70480	         5.95213e+57
          1994.51110	         5.96998e+57
          1995.31740	         5.28324e+57
          1996.12370	         4.20786e+57
          1996.93000	         5.00712e+57
          1997.73630	         7.68418e+57
          1998.54260	         7.56395e+57
          1999.34890	         8.18706e+57
          2000.15520	         7.22101e+57
          2000.96150	         6.68127e+57
          2001.76780	         5.94388e+57
          2002.57410	         5.53189e+57
          2003.38040	         6.17430e+57
          2004.18670	         6.53798e+57
          2004.99300	         6.53330e+57
          2005.79930	         7.49349e+57
          2006.60560	         7.06243e+57
          2007.41190	         6.76173e+57
          2008.21820	         6.30742e+57
          2009.02450	         6.54159e+57
          2009.83080	         6.78675e+57
          2010.63710	         5.49094e+57
          2011.44340	         6.72757e+57
          2012.24970	         7.20436e+57
          2013.05600	         5.94703e+57
          2013.86230	         5.73607e+57
          2014.66860	         5.97579e+57
          2015.47490	         7.01707e+57
          2016.28120	         6.50170e+57
          2017.08750	         6.41751e+57
          2017.89380	         6.67911e+57
          2018.70010	         8.09264e+57
          2019.50640	         7.92023e+57
          2020.31270	         7.01732e+57
          2021.11900	         7.26457e+57
          2021.92530	         7.35056e+57
          2022.73160	         8.10040e+57
          2023.53790	         7.48566e+57
          2024.34420	         6.39670e+57
          2025.15050	         6.55471e+57
          2025.95680	         6.21978e+57
          2026.76310	         6.90296e+57
          2027.56940	         6.98119e+57
          2028.37570	         7.22058e+57
          2029.18200	         6.18047e+57
          2029.98830	         6.39916e+57
          2030.79460	         6.89774e+57
          2031.60090	         7.33820e+57
          2032.40720	         5.97626e+57
          2033.21350	         5.33199e+57
          2034.01980	         4.82626e+57
          2034.82610	         5.68148e+57
          2035.63240	         4.98253e+57
          2036.43870	         5.37978e+57
          2037.24500	         5.77404e+57
          2038.05130	         5.33581e+57
          2038.85760	         4.95417e+57
          2039.66390	         6.43799e+57
          2040.47020	         5.11470e+57
          2041.27650	         5.78660e+57
          2042.08280	         5.55965e+57
          2042.88910	         5.58357e+57
          2043.69540	         5.67356e+57
          2044.50170	         6.27001e+57
          2045.30800	         6.98891e+57
          2046.11430	         4.77835e+57
          2046.92060	         5.50870e+57
          2047.72690	         6.92326e+57
          2048.53320	         5.57216e+57
          2049.33950	         6.65172e+57
          2050.14580	         6.85617e+57
          2050.95210	         6.91154e+57
          2051.75840	         8.76645e+57
          2052.56470	         5.91259e+57
          2053.37100	         4.43584e+57
          2054.17730	         5.11667e+57
          2054.98360	         5.20764e+57
          2055.78990	         4.24203e+57
          2056.59620	         2.71638e+57
          2057.40250	         5.33890e+57
          2058.20880	         6.71583e+57
          2059.01510	         6.50133e+57
          2059.82140	         6.35630e+57
          2060.62770	         1.14347e+58
          2061.43400	         1.44362e+58
          2062.24030	         1.20464e+58
          2063.04660	         3.67018e+57
          2063.85290	         3.47170e+57
          2064.65920	        -1.63433e+57
          2065.46550	        -6.63391e+57
          2066.27180	        -8.48219e+57
          2067.07810	         3.46215e+57
          2067.88440	         3.76374e+57
          2068.69070	         4.67924e+57
          2069.49700	         4.70824e+57
          2070.30330	         3.55373e+57
          2071.10960	         7.06852e+57
          2071.91590	         6.71070e+57
          2072.72220	         3.51614e+57
          2073.52850	         5.12551e+57
          2074.33480	         4.72700e+57
          2075.14110	         5.16233e+57
          2075.94740	         4.94167e+57
          2076.75370	         5.32373e+57
          2077.56000	         5.44708e+57
          2078.36630	         5.11897e+57
          2079.17260	         4.28347e+57
          2079.97890	         5.13067e+57
          2080.78520	         4.79897e+57
          2081.59150	         4.06781e+57
          2082.39780	         3.32560e+57
          2083.20410	         1.99811e+57
          2084.01040	         1.98339e+57
          2084.81670	         4.37969e+57
          2085.62300	         4.09124e+57
          2086.42930	         3.91107e+57
          2087.23560	         4.20226e+57
          2088.04190	         4.68537e+57
          2088.84820	         4.31513e+57
          2089.65450	         3.22946e+57
          2090.46080	         2.27859e+57
          2091.26710	         3.46966e+57
          2092.07340	         2.50509e+57
          2092.87970	         1.90307e+57
          2093.68600	        -1.46861e+56
          2094.49230	         5.81141e+56
          2095.29860	         6.39911e+57
          2096.10490	         8.14019e+56
          2096.91120	        -1.15187e+57
          2097.71750	         1.12267e+57
          2098.52380	         8.49366e+56
          2099.33010	         1.12783e+57
          2100.13640	         1.11178e+57
          2100.94270	         2.37338e+57
          2101.74900	         2.82417e+57
          2102.55530	         2.63944e+57
          2103.36160	         1.98557e+57
          2104.16790	         1.69544e+57
          2104.97420	        -1.73060e+57
          2105.78050	         1.15524e+56
          2106.58680	         2.84856e+57
          2107.39310	        -1.88548e+57
          2108.19940	        -1.26534e+57
          2109.00570	        -4.55462e+56
          2109.81200	         1.84623e+57
          2110.61830	         3.54872e+57
          2111.42460	         4.74724e+56
          2112.23090	        -2.71645e+57
          2113.03720	        -1.68905e+57
          2113.84350	         4.43631e+56
          2114.64980	         1.87762e+57
          2115.45610	        -1.99704e+57
          2116.26240	         1.59466e+57
          2117.06870	        -1.82902e+57
          2117.87500	        -3.56341e+57
          2118.68130	         1.81694e+57
          2119.48760	         3.39265e+57
          2120.29390	         5.48562e+57
          2121.10020	        -1.26239e+57
          2121.90650	        -5.46591e+57
          2122.71280	        -1.62726e+57
          2123.51910	         2.26791e+57
          2124.32540	        -3.15622e+57
          2125.13170	        -1.77612e+57
          2125.93800	         1.37345e+57
          2126.74430	        -4.63426e+56
          2127.55060	        -2.39133e+57
          2128.35690	        -2.15643e+57
          2129.16320	        -5.36617e+57
          2129.96950	         1.93094e+57
          2130.77580	        -8.46576e+56
          2131.58210	        -9.00425e+56
          2132.38840	        -5.97958e+56
          2133.19470	         1.25290e+57
          2134.00100	        -1.94005e+57
          2134.80730	        -3.71362e+57
          2135.61360	         4.89413e+57
          2136.41990	         1.02833e+58
          2137.22620	        -5.60534e+56
          2138.03250	        -2.53485e+57
          2138.83880	         9.24111e+56
          2139.64510	        -4.05707e+57
          2140.45140	        -6.69257e+57
          2141.25770	        -7.40401e+57
          2142.06400	        -3.61005e+57
          2142.87030	         2.63156e+57
          2143.67660	         1.31021e+58
          2144.48290	         1.45698e+58
          2145.28920	         1.00002e+58
          2146.09550	        -3.31034e+57
          2146.90180	        -3.98018e+57
          2147.70810	        -1.12981e+58
          2148.51440	        -6.70963e+57
          2149.32070	        -4.25263e+57
          2150.12700	        -1.25335e+58
          2150.93330	        -9.32028e+57
          2151.73960	         1.59870e+57
          2152.54590	        -6.53990e+57
          2153.35220	        -6.52826e+57
          2154.15850	        -8.54804e+57
          2154.96480	        -7.33409e+57
          2155.77110	        -6.35617e+57
          2156.57740	        -8.87995e+56
          2157.38370	         2.74765e+57
          2158.19000	        -7.65962e+57
          2158.99630	        -7.84658e+57
          2159.80260	        -2.06245e+58
          2160.60890	        -6.64669e+57
          2161.41520	        -2.48443e+57
          2162.22150	         8.36439e+56
          2163.02780	        -1.52324e+57
          2163.83410	        -4.26889e+57
          2164.64040	        -6.53873e+57
          2165.44670	        -8.67844e+57
          2166.25300	        -1.69674e+58
          2167.05930	        -1.38540e+58
          2167.86560	        -1.67369e+58
          2168.67190	        -9.58970e+57
          2169.47820	        -7.08171e+57
          2170.28450	        -4.92705e+57
          2171.09080	         2.50364e+57
          2171.89710	        -6.23663e+57
          2172.70340	         2.02310e+57
          2173.50970	        -6.63207e+57
          2174.31600	        -2.36431e+57
          2175.12230	        -3.05214e+57
          2175.92860	        -5.25517e+57
          2176.73490	        -8.92352e+57
          2177.54120	        -1.04545e+58
          2178.34750	        -4.78522e+57
          2179.15380	                 nan
          2179.96010	                 nan
          2180.76640	                 nan
          2181.57270	                 nan
          2182.37900	                 nan
          2183.18530	                 nan
          2183.99160	                 nan
          2184.79790	                 nan
          2185.60420	                 nan
          2186.41050	                 nan
          2187.21680	                 nan
          2188.02310	                 nan
          2188.82940	                 nan
          2189.63570	                 nan
          2190.44200	                 nan
          2191.24830	                 nan
          2192.05460	                 nan
          2192.86090	                 nan
          2193.66720	                 nan
          2194.47350	                 nan
          2195.27980	                 nan
          2196.08610	                 nan
          2196.89240	                 nan
          2197.69870	                 nan
          2198.50500	                 nan
          2199.31130	                 nan
          2200.11760	                 nan
          2200.92390	                 nan
          2201.73020	                 nan
          2202.53650	                 nan
          2203.34280	                 nan
          2204.14910	                 nan
          2204.95540	                 nan
          2205.76170	                 nan
          2206.56800	                 nan
          2207.37430	                 nan
          2208.18060	                 nan
          2208.98690	                 nan
          2209.79320	                 nan
          2210.59950	                 nan
          2211.40580	                 nan
          2212.21210	                 nan
          2213.01840	                 nan
          2213.82470	                 nan
          2214.63100	                 nan
          2215.43730	         0.00000e+00
