#sample_336_stacked_spectrum_rest_UV-bands_median_H-alpha_noDC.txt
#median Lum: 1.71647e+42
#Rest-frame wavelength (A) | Luminosity (erg/s/A)
#
          1110.00000	         0.00000e+00
          1110.80630	         2.65362e+59
          1111.61260	         2.50973e+59
          1112.41890	         7.01094e+58
          1113.22520	        -1.01257e+59
          1114.03150	        -2.71009e+59
          1114.83780	         1.90525e+59
          1115.64410	         1.68976e+59
          1116.45040	        -3.68786e+56
          1117.25670	        -9.70200e+58
          1118.06300	         1.70089e+59
          1118.86930	         1.48438e+58
          1119.67560	         6.73620e+58
          1120.48190	        -4.02715e+58
          1121.28820	        -9.65271e+58
          1122.09450	        -5.09680e+58
          1122.90080	        -3.31496e+57
          1123.70710	         3.99329e+58
          1124.51340	         1.11317e+59
          1125.31970	         4.18921e+58
          1126.12600	        -4.04252e+57
          1126.93230	        -2.61035e+58
          1127.73860	        -7.15950e+57
          1128.54490	        -2.47026e+58
          1129.35120	         1.55941e+58
          1130.15750	        -4.45679e+58
          1130.96380	        -2.89718e+58
          1131.77010	         7.91898e+57
          1132.57640	         1.48423e+58
          1133.38270	         3.87913e+58
          1134.18900	         3.82885e+58
          1134.99530	         3.11220e+58
          1135.80160	         1.80814e+58
          1136.60790	        -4.95909e+57
          1137.41420	        -1.86789e+58
          1138.22050	         4.23954e+58
          1139.02680	         3.67734e+58
          1139.83310	         1.81901e+58
          1140.63940	         2.30059e+58
          1141.44570	        -1.00229e+58
          1142.25200	        -1.05030e+58
          1143.05830	         3.16336e+58
          1143.86460	         4.47046e+58
          1144.67090	         9.80190e+57
          1145.47720	         2.43572e+57
          1146.28350	         1.48759e+58
          1147.08980	         1.36428e+58
          1147.89610	         1.99933e+58
          1148.70240	         2.41126e+58
          1149.50870	         3.03172e+58
          1150.31500	         5.41189e+57
          1151.12130	         6.71292e+57
          1151.92760	         3.40583e+57
          1152.73390	         2.58107e+57
          1153.54020	         1.63419e+56
          1154.34650	         2.05400e+58
          1155.15280	         2.27116e+58
          1155.95910	         1.18137e+58
          1156.76540	         3.15709e+57
          1157.57170	        -6.74426e+57
          1158.37800	         7.87696e+57
          1159.18430	        -1.21635e+57
          1159.99060	         3.85011e+57
          1160.79690	         5.30132e+57
          1161.60320	         1.91513e+58
          1162.40950	         2.17582e+58
          1163.21580	         1.86180e+58
          1164.02210	         5.88044e+57
          1164.82840	         7.47752e+57
          1165.63470	         2.17075e+58
          1166.44100	         2.92370e+58
          1167.24730	         1.79815e+58
          1168.05360	         8.00650e+57
          1168.85990	         7.03332e+57
          1169.66620	         1.13041e+58
          1170.47250	         2.14221e+57
          1171.27880	         1.86758e+57
          1172.08510	         2.13487e+58
          1172.89140	         2.55531e+58
          1173.69770	         4.50506e+57
          1174.50400	         1.18418e+58
          1175.31030	         1.35132e+58
          1176.11660	         1.48765e+58
          1176.92290	         9.25875e+57
          1177.72920	         1.30555e+58
          1178.53550	         1.01505e+58
          1179.34180	         1.04618e+58
          1180.14810	         6.10922e+57
          1180.95440	         1.09774e+58
          1181.76070	         9.09254e+57
          1182.56700	         7.63455e+57
          1183.37330	         4.66754e+57
          1184.17960	         1.40049e+58
          1184.98590	         1.17574e+58
          1185.79220	         6.79109e+57
          1186.59850	         9.32021e+57
          1187.40480	         8.69933e+57
          1188.21110	         1.49603e+58
          1189.01740	         9.23666e+57
          1189.82370	         1.16885e+58
          1190.63000	         1.23632e+58
          1191.43630	         1.10436e+58
          1192.24260	         1.34409e+58
          1193.04890	         1.46927e+58
          1193.85520	         1.39033e+58
          1194.66150	         6.50541e+57
          1195.46780	         9.81244e+57
          1196.27410	         1.44120e+58
          1197.08040	         1.04860e+58
          1197.88670	         1.51936e+58
          1198.69300	         1.47049e+58
          1199.49930	         1.60848e+58
          1200.30560	         1.40307e+58
          1201.11190	         9.58018e+57
          1201.91820	         1.04776e+58
          1202.72450	         7.40406e+57
          1203.53080	         1.29498e+58
          1204.33710	         6.97817e+57
          1205.14340	         6.34010e+57
          1205.94970	         6.94745e+57
          1206.75600	         6.04515e+57
          1207.56230	         7.56425e+57
          1208.36860	         9.70554e+57
          1209.17490	         2.33798e+57
          1209.98120	         3.51958e+57
          1210.78750	         9.30866e+57
          1211.59380	         1.40270e+58
          1212.40010	         1.69645e+58
          1213.20640	         1.67118e+58
          1214.01270	         2.02587e+58
          1214.81900	         2.73391e+58
          1215.62530	         4.86317e+58
          1216.43160	         9.21117e+58
          1217.23790	         1.53640e+59
          1218.04420	         1.15849e+59
          1218.85050	         8.35357e+58
          1219.65680	         5.54040e+58
          1220.46310	         3.46739e+58
          1221.26940	         2.63388e+58
          1222.07570	         1.65338e+58
          1222.88200	         1.15857e+58
          1223.68830	         8.13413e+57
          1224.49460	         6.18081e+57
          1225.30090	         4.74123e+57
          1226.10720	         5.96440e+57
          1226.91350	         7.73027e+57
          1227.71980	         1.00991e+58
          1228.52610	         1.03939e+58
          1229.33240	         5.12746e+57
          1230.13870	         6.61303e+57
          1230.94500	         9.69706e+57
          1231.75130	         7.97756e+57
          1232.55760	         8.09813e+57
          1233.36390	         9.22072e+57
          1234.17020	         8.47726e+57
          1234.97650	         7.75885e+57
          1235.78280	         7.28339e+57
          1236.58910	         9.88170e+57
          1237.39540	         1.13930e+58
          1238.20170	         1.13948e+58
          1239.00800	         1.35091e+58
          1239.81430	         1.57467e+58
          1240.62060	         1.29564e+58
          1241.42690	         1.14531e+58
          1242.23320	         1.27664e+58
          1243.03950	         9.61487e+57
          1243.84580	         8.26011e+57
          1244.65210	         1.03493e+58
          1245.45840	         9.50213e+57
          1246.26470	         7.07259e+57
          1247.07100	         6.82600e+57
          1247.87730	         6.68410e+57
          1248.68360	         4.14955e+57
          1249.48990	         5.20157e+57
          1250.29620	         8.51148e+57
          1251.10250	         7.87177e+57
          1251.90880	         5.53466e+57
          1252.71510	         5.53511e+57
          1253.52140	         6.01452e+57
          1254.32770	         1.09984e+58
          1255.13400	         1.52838e+58
          1255.94030	         1.29096e+58
          1256.74660	         1.00329e+58
          1257.55290	         8.85039e+57
          1258.35920	         7.20341e+57
          1259.16550	         6.03906e+57
          1259.97180	         6.53954e+57
          1260.77810	         9.78724e+57
          1261.58440	         1.29918e+58
          1262.39070	         8.11087e+57
          1263.19700	         7.00049e+57
          1264.00330	         8.23114e+57
          1264.80960	         9.11276e+57
          1265.61590	         1.47412e+58
          1266.42220	         1.32432e+58
          1267.22850	         1.04318e+58
          1268.03480	         1.47262e+58
          1268.84110	         1.41855e+58
          1269.64740	         1.34048e+58
          1270.45370	         1.48791e+58
          1271.26000	         1.45845e+58
          1272.06630	         1.44496e+58
          1272.87260	         1.30153e+58
          1273.67890	         1.28482e+58
          1274.48520	         1.33528e+58
          1275.29150	         1.25344e+58
          1276.09780	         1.24671e+58
          1276.90410	         1.60374e+58
          1277.71040	         1.38561e+58
          1278.51670	         1.12140e+58
          1279.32300	         1.30071e+58
          1280.12930	         1.35451e+58
          1280.93560	         1.27803e+58
          1281.74190	         1.26045e+58
          1282.54820	         1.31532e+58
          1283.35450	         1.34381e+58
          1284.16080	         1.31985e+58
          1284.96710	         1.31538e+58
          1285.77340	         1.16122e+58
          1286.57970	         1.21106e+58
          1287.38600	         1.51062e+58
          1288.19230	         1.82472e+58
          1288.99860	         1.36230e+58
          1289.80490	         8.53682e+57
          1290.61120	         1.17053e+58
          1291.41750	         1.34012e+58
          1292.22380	         1.01029e+58
          1293.03010	         1.01802e+58
          1293.83640	         1.24278e+58
          1294.64270	         9.09778e+57
          1295.44900	         5.97767e+57
          1296.25530	         9.24497e+57
          1297.06160	         1.14571e+58
          1297.86790	         1.08726e+58
          1298.67420	         1.06223e+58
          1299.48050	         1.23526e+58
          1300.28680	         1.00695e+58
          1301.09310	         7.01105e+57
          1301.89940	         4.76904e+57
          1302.70570	         5.80487e+57
          1303.51200	         6.96287e+57
          1304.31830	         9.43825e+57
          1305.12460	         1.17117e+58
          1305.93090	         1.13486e+58
          1306.73720	         1.09530e+58
          1307.54350	         1.39355e+58
          1308.34980	         1.55822e+58
          1309.15610	         1.44870e+58
          1309.96240	         1.56999e+58
          1310.76870	         1.49587e+58
          1311.57500	         1.19314e+58
          1312.38130	         1.32148e+58
          1313.18760	         1.67543e+58
          1313.99390	         1.69433e+58
          1314.80020	         1.71396e+58
          1315.60650	         1.51014e+58
          1316.41280	         1.12267e+58
          1317.21910	         1.07693e+58
          1318.02540	         1.10633e+58
          1318.83170	         1.15846e+58
          1319.63800	         1.24060e+58
          1320.44430	         1.15209e+58
          1321.25060	         1.17489e+58
          1322.05690	         1.19152e+58
          1322.86320	         1.10344e+58
          1323.66950	         9.94501e+57
          1324.47580	         9.23140e+57
          1325.28210	         1.13114e+58
          1326.08840	         1.12556e+58
          1326.89470	         1.18306e+58
          1327.70100	         1.09783e+58
          1328.50730	         7.47656e+57
          1329.31360	         9.23162e+57
          1330.11990	         9.76049e+57
          1330.92620	         8.60818e+57
          1331.73250	         1.00621e+58
          1332.53880	         9.90554e+57
          1333.34510	         1.01033e+58
          1334.15140	         9.05966e+57
          1334.95770	         8.38530e+57
          1335.76400	         9.94981e+57
          1336.57030	         1.13476e+58
          1337.37660	         1.21261e+58
          1338.18290	         1.28392e+58
          1338.98920	         1.20400e+58
          1339.79550	         1.08193e+58
          1340.60180	         1.19459e+58
          1341.40810	         1.29566e+58
          1342.21440	         1.09213e+58
          1343.02070	         1.04639e+58
          1343.82700	         1.20366e+58
          1344.63330	         1.20972e+58
          1345.43960	         1.16253e+58
          1346.24590	         1.16655e+58
          1347.05220	         1.17760e+58
          1347.85850	         1.14896e+58
          1348.66480	         1.11221e+58
          1349.47110	         1.22599e+58
          1350.27740	         1.16723e+58
          1351.08370	         1.09364e+58
          1351.89000	         1.06903e+58
          1352.69630	         1.11913e+58
          1353.50260	         1.22465e+58
          1354.30890	         1.31149e+58
          1355.11520	         1.30337e+58
          1355.92150	         1.22155e+58
          1356.72780	         1.04939e+58
          1357.53410	         1.08327e+58
          1358.34040	         1.09339e+58
          1359.14670	         1.06967e+58
          1359.95300	         1.26083e+58
          1360.75930	         1.25003e+58
          1361.56560	         1.21533e+58
          1362.37190	         1.20779e+58
          1363.17820	         1.09133e+58
          1363.98450	         1.20276e+58
          1364.79080	         1.34984e+58
          1365.59710	         1.33677e+58
          1366.40340	         1.17533e+58
          1367.20970	         1.11536e+58
          1368.01600	         1.04094e+58
          1368.82230	         9.20136e+57
          1369.62860	         1.06264e+58
          1370.43490	         9.09958e+57
          1371.24120	         8.81679e+57
          1372.04750	         7.74568e+57
          1372.85380	         1.00667e+58
          1373.66010	         1.15201e+58
          1374.46640	         1.05439e+58
          1375.27270	         1.09866e+58
          1376.07900	         9.60288e+57
          1376.88530	         7.53429e+57
          1377.69160	         7.89842e+57
          1378.49790	         7.37002e+57
          1379.30420	         8.49616e+57
          1380.11050	         1.01833e+58
          1380.91680	         8.92342e+57
          1381.72310	         7.51205e+57
          1382.52940	         7.52650e+57
          1383.33570	         7.77259e+57
          1384.14200	         8.58691e+57
          1384.94830	         9.68838e+57
          1385.75460	         9.12234e+57
          1386.56090	         9.39642e+57
          1387.36720	         9.42316e+57
          1388.17350	         1.19030e+58
          1388.97980	         1.08678e+58
          1389.78610	         7.83590e+57
          1390.59240	         7.57759e+57
          1391.39870	         8.02612e+57
          1392.20500	         9.48703e+57
          1393.01130	         7.98440e+57
          1393.81760	         6.08845e+57
          1394.62390	         6.98153e+57
          1395.43020	         7.08702e+57
          1396.23650	         6.62576e+57
          1397.04280	         8.02833e+57
          1397.84910	         8.73212e+57
          1398.65540	         8.22328e+57
          1399.46170	         9.80429e+57
          1400.26800	         7.77046e+57
          1401.07430	         7.17556e+57
          1401.88060	         8.59507e+57
          1402.68690	         1.01703e+58
          1403.49320	         9.54503e+57
          1404.29950	         9.88752e+57
          1405.10580	         1.10634e+58
          1405.91210	         1.13984e+58
          1406.71840	         1.04651e+58
          1407.52470	         9.85880e+57
          1408.33100	         1.03117e+58
          1409.13730	         1.16703e+58
          1409.94360	         1.12582e+58
          1410.74990	         1.09011e+58
          1411.55620	         1.06338e+58
          1412.36250	         8.81900e+57
          1413.16880	         8.46032e+57
          1413.97510	         8.44097e+57
          1414.78140	         8.63243e+57
          1415.58770	         1.04129e+58
          1416.39400	         1.05067e+58
          1417.20030	         1.05855e+58
          1418.00660	         1.04291e+58
          1418.81290	         1.16669e+58
          1419.61920	         9.37458e+57
          1420.42550	         1.07001e+58
          1421.23180	         1.32148e+58
          1422.03810	         1.28699e+58
          1422.84440	         1.26529e+58
          1423.65070	         1.27883e+58
          1424.45700	         1.02910e+58
          1425.26330	         8.31866e+57
          1426.06960	         8.89496e+57
          1426.87590	         9.31864e+57
          1427.68220	         1.02991e+58
          1428.48850	         1.14167e+58
          1429.29480	         1.07548e+58
          1430.10110	         1.02847e+58
          1430.90740	         1.04269e+58
          1431.71370	         9.50613e+57
          1432.52000	         8.60077e+57
          1433.32630	         8.10612e+57
          1434.13260	         8.92936e+57
          1434.93890	         9.17622e+57
          1435.74520	         9.56800e+57
          1436.55150	         9.76050e+57
          1437.35780	         9.40059e+57
          1438.16410	         9.95543e+57
          1438.97040	         9.39922e+57
          1439.77670	         8.24524e+57
          1440.58300	         7.62797e+57
          1441.38930	         8.11475e+57
          1442.19560	         9.69901e+57
          1443.00190	         1.02282e+58
          1443.80820	         1.02993e+58
          1444.61450	         9.31264e+57
          1445.42080	         8.57388e+57
          1446.22710	         1.11994e+58
          1447.03340	         1.17321e+58
          1447.83970	         1.05668e+58
          1448.64600	         1.07950e+58
          1449.45230	         1.07768e+58
          1450.25860	         9.66233e+57
          1451.06490	         9.36750e+57
          1451.87120	         8.82166e+57
          1452.67750	         8.05853e+57
          1453.48380	         8.89454e+57
          1454.29010	         8.57864e+57
          1455.09640	         8.24533e+57
          1455.90270	         9.24438e+57
          1456.70900	         8.94261e+57
          1457.51530	         1.03089e+58
          1458.32160	         1.31492e+58
          1459.12790	         1.21436e+58
          1459.93420	         1.02156e+58
          1460.74050	         9.07272e+57
          1461.54680	         8.91361e+57
          1462.35310	         8.25234e+57
          1463.15940	         9.00950e+57
          1463.96570	         1.12909e+58
          1464.77200	         1.18350e+58
          1465.57830	         1.10552e+58
          1466.38460	         9.58454e+57
          1467.19090	         8.80413e+57
          1467.99720	         9.71912e+57
          1468.80350	         1.01710e+58
          1469.60980	         1.02248e+58
          1470.41610	         1.04748e+58
          1471.22240	         1.01958e+58
          1472.02870	         9.96282e+57
          1472.83500	         1.02336e+58
          1473.64130	         9.97241e+57
          1474.44760	         9.75198e+57
          1475.25390	         9.20234e+57
          1476.06020	         1.00888e+58
          1476.86650	         1.03425e+58
          1477.67280	         8.77722e+57
          1478.47910	         7.89019e+57
          1479.28540	         7.83789e+57
          1480.09170	         9.19039e+57
          1480.89800	         9.41038e+57
          1481.70430	         9.62769e+57
          1482.51060	         8.89834e+57
          1483.31690	         8.63684e+57
          1484.12320	         7.82081e+57
          1484.92950	         8.34363e+57
          1485.73580	         9.49879e+57
          1486.54210	         1.01509e+58
          1487.34840	         9.83216e+57
          1488.15470	         7.82951e+57
          1488.96100	         8.29895e+57
          1489.76730	         1.03684e+58
          1490.57360	         9.49308e+57
          1491.37990	         8.01085e+57
          1492.18620	         8.84492e+57
          1492.99250	         9.21607e+57
          1493.79880	         8.82332e+57
          1494.60510	         9.09240e+57
          1495.41140	         8.47981e+57
          1496.21770	         8.12388e+57
          1497.02400	         9.50918e+57
          1497.83030	         9.76064e+57
          1498.63660	         7.71198e+57
          1499.44290	         6.76746e+57
          1500.24920	         7.18201e+57
          1501.05550	         8.55235e+57
          1501.86180	         8.76346e+57
          1502.66810	         9.73215e+57
          1503.47440	         1.01136e+58
          1504.28070	         8.99594e+57
          1505.08700	         9.39475e+57
          1505.89330	         9.28028e+57
          1506.69960	         8.75449e+57
          1507.50590	         8.49182e+57
          1508.31220	         8.12302e+57
          1509.11850	         8.27634e+57
          1509.92480	         9.96438e+57
          1510.73110	         9.72558e+57
          1511.53740	         7.87847e+57
          1512.34370	         7.20472e+57
          1513.15000	         8.62184e+57
          1513.95630	         1.00746e+58
          1514.76260	         9.49839e+57
          1515.56890	         8.36475e+57
          1516.37520	         7.47931e+57
          1517.18150	         7.16676e+57
          1517.98780	         6.51582e+57
          1518.79410	         6.81604e+57
          1519.60040	         8.88094e+57
          1520.40670	         1.00889e+58
          1521.21300	         9.95656e+57
          1522.01930	         8.89797e+57
          1522.82560	         8.74345e+57
          1523.63190	         1.08846e+58
          1524.43820	         9.57958e+57
          1525.24450	         7.08743e+57
          1526.05080	         6.62325e+57
          1526.85710	         6.81455e+57
          1527.66340	         7.45035e+57
          1528.46970	         8.61177e+57
          1529.27600	         8.25647e+57
          1530.08230	         8.00872e+57
          1530.88860	         7.72298e+57
          1531.69490	         8.49158e+57
          1532.50120	         8.59629e+57
          1533.30750	         8.97862e+57
          1534.11380	         9.78554e+57
          1534.92010	         9.89864e+57
          1535.72640	         1.01091e+58
          1536.53270	         1.08614e+58
          1537.33900	         8.59930e+57
          1538.14530	         7.93039e+57
          1538.95160	         8.65929e+57
          1539.75790	         8.50054e+57
          1540.56420	         9.32163e+57
          1541.37050	         9.03033e+57
          1542.17680	         7.33753e+57
          1542.98310	         6.99834e+57
          1543.78940	         7.46245e+57
          1544.59570	         7.76026e+57
          1545.40200	         8.57645e+57
          1546.20830	         9.28763e+57
          1547.01460	         1.11009e+58
          1547.82090	         1.10475e+58
          1548.62720	         1.14722e+58
          1549.43350	         1.13160e+58
          1550.23980	         1.05113e+58
          1551.04610	         1.25549e+58
          1551.85240	         1.17899e+58
          1552.65870	         1.07154e+58
          1553.46500	         9.80814e+57
          1554.27130	         1.08762e+58
          1555.07760	         1.03717e+58
          1555.88390	         8.26150e+57
          1556.69020	         8.38190e+57
          1557.49650	         8.22986e+57
          1558.30280	         7.86626e+57
          1559.10910	         8.29226e+57
          1559.91540	         9.09054e+57
          1560.72170	         8.86407e+57
          1561.52800	         8.76477e+57
          1562.33430	         8.83101e+57
          1563.14060	         8.14887e+57
          1563.94690	         8.57163e+57
          1564.75320	         8.13773e+57
          1565.55950	         6.62659e+57
          1566.36580	         7.12438e+57
          1567.17210	         8.37062e+57
          1567.97840	         8.90088e+57
          1568.78470	         9.09137e+57
          1569.59100	         8.66939e+57
          1570.39730	         8.70130e+57
          1571.20360	         7.30582e+57
          1572.00990	         7.41261e+57
          1572.81620	         8.83066e+57
          1573.62250	         1.03890e+58
          1574.42880	         1.03304e+58
          1575.23510	         8.01985e+57
          1576.04140	         8.41100e+57
          1576.84770	         9.81833e+57
          1577.65400	         9.39412e+57
          1578.46030	         8.91611e+57
          1579.26660	         1.01029e+58
          1580.07290	         9.82902e+57
          1580.87920	         8.86301e+57
          1581.68550	         8.65974e+57
          1582.49180	         9.10313e+57
          1583.29810	         7.63376e+57
          1584.10440	         8.07361e+57
          1584.91070	         9.25215e+57
          1585.71700	         8.42762e+57
          1586.52330	         8.32980e+57
          1587.32960	         8.67887e+57
          1588.13590	         8.64389e+57
          1588.94220	         8.36347e+57
          1589.74850	         9.58448e+57
          1590.55480	         9.44652e+57
          1591.36110	         7.99955e+57
          1592.16740	         8.17914e+57
          1592.97370	         8.85436e+57
          1593.78000	         1.01272e+58
          1594.58630	         9.98119e+57
          1595.39260	         9.02499e+57
          1596.19890	         8.36883e+57
          1597.00520	         8.35860e+57
          1597.81150	         8.15709e+57
          1598.61780	         7.68245e+57
          1599.42410	         7.06258e+57
          1600.23040	         7.49720e+57
          1601.03670	         7.66715e+57
          1601.84300	         7.04663e+57
          1602.64930	         8.68008e+57
          1603.45560	         8.57783e+57
          1604.26190	         8.60038e+57
          1605.06820	         7.96496e+57
          1605.87450	         7.68361e+57
          1606.68080	         7.68982e+57
          1607.48710	         6.94586e+57
          1608.29340	         6.50595e+57
          1609.09970	         7.78360e+57
          1609.90600	         7.85205e+57
          1610.71230	         6.78558e+57
          1611.51860	         7.76985e+57
          1612.32490	         7.25357e+57
          1613.13120	         7.96371e+57
          1613.93750	         7.97156e+57
          1614.74380	         8.58084e+57
          1615.55010	         9.26824e+57
          1616.35640	         9.77807e+57
          1617.16270	         9.82436e+57
          1617.96900	         1.06736e+58
          1618.77530	         9.80910e+57
          1619.58160	         9.14430e+57
          1620.38790	         9.06619e+57
          1621.19420	         9.18641e+57
          1622.00050	         8.48277e+57
          1622.80680	         8.26208e+57
          1623.61310	         9.09826e+57
          1624.41940	         8.63277e+57
          1625.22570	         8.89048e+57
          1626.03200	         7.50070e+57
          1626.83830	         7.41075e+57
          1627.64460	         6.90930e+57
          1628.45090	         5.71647e+57
          1629.25720	         8.28251e+57
          1630.06350	         1.01646e+58
          1630.86980	         6.28879e+57
          1631.67610	         6.85862e+57
          1632.48240	         8.64400e+57
          1633.28870	         8.76070e+57
          1634.09500	         9.88225e+57
          1634.90130	         9.67195e+57
          1635.70760	         8.14260e+57
          1636.51390	         7.57900e+57
          1637.32020	         7.95231e+57
          1638.12650	         9.85958e+57
          1638.93280	         9.96205e+57
          1639.73910	         1.06488e+58
          1640.54540	         1.07074e+58
          1641.35170	         9.30995e+57
          1642.15800	         9.18414e+57
          1642.96430	         8.18263e+57
          1643.77060	         7.28223e+57
          1644.57690	         7.29386e+57
          1645.38320	         8.00857e+57
          1646.18950	         7.80541e+57
          1646.99580	         9.29645e+57
          1647.80210	         8.42839e+57
          1648.60840	         8.10293e+57
          1649.41470	         8.23064e+57
          1650.22100	         7.26654e+57
          1651.02730	         7.30918e+57
          1651.83360	         7.54886e+57
          1652.63990	         7.76935e+57
          1653.44620	         8.84961e+57
          1654.25250	         8.56420e+57
          1655.05880	         7.83719e+57
          1655.86510	         8.80148e+57
          1656.67140	         8.23564e+57
          1657.47770	         7.97029e+57
          1658.28400	         8.70647e+57
          1659.09030	         9.40649e+57
          1659.89660	         9.47491e+57
          1660.70290	         9.77533e+57
          1661.50920	         9.35369e+57
          1662.31550	         8.91548e+57
          1663.12180	         8.68958e+57
          1663.92810	         9.16023e+57
          1664.73440	         1.08140e+58
          1665.54070	         1.21013e+58
          1666.34700	         1.32072e+58
          1667.15330	         1.17647e+58
          1667.95960	         8.23132e+57
          1668.76590	         6.87343e+57
          1669.57220	         7.76103e+57
          1670.37850	         8.55821e+57
          1671.18480	         8.24239e+57
          1671.99110	         7.66660e+57
          1672.79740	         7.89431e+57
          1673.60370	         7.95316e+57
          1674.41000	         7.46309e+57
          1675.21630	         6.77134e+57
          1676.02260	         6.72538e+57
          1676.82890	         7.19638e+57
          1677.63520	         6.71334e+57
          1678.44150	         7.91018e+57
          1679.24780	         8.39467e+57
          1680.05410	         7.73600e+57
          1680.86040	         5.86119e+57
          1681.66670	         5.82691e+57
          1682.47300	         7.03410e+57
          1683.27930	         8.29714e+57
          1684.08560	         9.21950e+57
          1684.89190	         7.79641e+57
          1685.69820	         5.04780e+57
          1686.50450	         5.08283e+57
          1687.31080	         7.41224e+57
          1688.11710	         8.37168e+57
          1688.92340	         7.45326e+57
          1689.72970	         6.75621e+57
          1690.53600	         7.11483e+57
          1691.34230	         7.37730e+57
          1692.14860	         8.48504e+57
          1692.95490	         8.48765e+57
          1693.76120	         7.45863e+57
          1694.56750	         6.70679e+57
          1695.37380	         7.73014e+57
          1696.18010	         8.62524e+57
          1696.98640	         8.25457e+57
          1697.79270	         7.86549e+57
          1698.59900	         7.80405e+57
          1699.40530	         6.88936e+57
          1700.21160	         6.23028e+57
          1701.01790	         7.32522e+57
          1701.82420	         6.90811e+57
          1702.63050	         7.41975e+57
          1703.43680	         9.42942e+57
          1704.24310	         9.17303e+57
          1705.04940	         7.86280e+57
          1705.85570	         8.04344e+57
          1706.66200	         8.05601e+57
          1707.46830	         7.96650e+57
          1708.27460	         7.53274e+57
          1709.08090	         6.76801e+57
          1709.88720	         6.53831e+57
          1710.69350	         7.22999e+57
          1711.49980	         6.49684e+57
          1712.30610	         7.71158e+57
          1713.11240	         9.49727e+57
          1713.91870	         7.75672e+57
          1714.72500	         8.34083e+57
          1715.53130	         8.98385e+57
          1716.33760	         7.58083e+57
          1717.14390	         7.96720e+57
          1717.95020	         9.02001e+57
          1718.75650	         8.55244e+57
          1719.56280	         8.50432e+57
          1720.36910	         8.22863e+57
          1721.17540	         7.94282e+57
          1721.98170	         6.06072e+57
          1722.78800	         6.60437e+57
          1723.59430	         6.98093e+57
          1724.40060	         7.80968e+57
          1725.20690	         8.48629e+57
          1726.01320	         7.45264e+57
          1726.81950	         8.28678e+57
          1727.62580	         8.37369e+57
          1728.43210	         7.30780e+57
          1729.23840	         7.63777e+57
          1730.04470	         8.23346e+57
          1730.85100	         8.21908e+57
          1731.65730	         7.67960e+57
          1732.46360	         7.40951e+57
          1733.26990	         7.71676e+57
          1734.07620	         7.33112e+57
          1734.88250	         7.78384e+57
          1735.68880	         7.27958e+57
          1736.49510	         7.52452e+57
          1737.30140	         7.23948e+57
          1738.10770	         6.49243e+57
          1738.91400	         6.65079e+57
          1739.72030	         7.24833e+57
          1740.52660	         6.17321e+57
          1741.33290	         6.24657e+57
          1742.13920	         6.33519e+57
          1742.94550	         6.93395e+57
          1743.75180	         7.78231e+57
          1744.55810	         7.65642e+57
          1745.36440	         6.29081e+57
          1746.17070	         6.01712e+57
          1746.97700	         6.58754e+57
          1747.78330	         7.26517e+57
          1748.58960	         6.97212e+57
          1749.39590	         6.58993e+57
          1750.20220	         6.60994e+57
          1751.00850	         6.50333e+57
          1751.81480	         6.18927e+57
          1752.62110	         7.53817e+57
          1753.42740	         8.10332e+57
          1754.23370	         6.51155e+57
          1755.04000	         7.07125e+57
          1755.84630	         7.72109e+57
          1756.65260	         8.46888e+57
          1757.45890	         8.62647e+57
          1758.26520	         6.77034e+57
          1759.07150	         8.45955e+57
          1759.87780	         8.58251e+57
          1760.68410	         7.57305e+57
          1761.49040	         8.01292e+57
          1762.29670	         5.78633e+57
          1763.10300	         6.93237e+57
          1763.90930	         8.13888e+57
          1764.71560	         6.77302e+57
          1765.52190	         6.69896e+57
          1766.32820	         9.43930e+57
          1767.13450	         9.29127e+57
          1767.94080	         7.47266e+57
          1768.74710	         6.67432e+57
          1769.55340	         7.56404e+57
          1770.35970	         7.15604e+57
          1771.16600	         7.37113e+57
          1771.97230	         8.36719e+57
          1772.77860	         8.67112e+57
          1773.58490	         7.20160e+57
          1774.39120	         5.97254e+57
          1775.19750	         5.75448e+57
          1776.00380	         6.55913e+57
          1776.81010	         6.36448e+57
          1777.61640	         5.24270e+57
          1778.42270	         6.28603e+57
          1779.22900	         6.18274e+57
          1780.03530	         5.43284e+57
          1780.84160	         7.03338e+57
          1781.64790	         8.13715e+57
          1782.45420	         6.92995e+57
          1783.26050	         5.81991e+57
          1784.06680	         6.95027e+57
          1784.87310	         7.54235e+57
          1785.67940	         7.32760e+57
          1786.48570	         6.88501e+57
          1787.29200	         6.32428e+57
          1788.09830	         6.61028e+57
          1788.90460	         7.23546e+57
          1789.71090	         5.92023e+57
          1790.51720	         5.70426e+57
          1791.32350	         7.10137e+57
          1792.12980	         9.24863e+57
          1792.93610	         7.67802e+57
          1793.74240	         7.03343e+57
          1794.54870	         7.56541e+57
          1795.35500	         8.72142e+57
          1796.16130	         8.05538e+57
          1796.96760	         7.19904e+57
          1797.77390	         7.68321e+57
          1798.58020	         7.65007e+57
          1799.38650	         6.94488e+57
          1800.19280	         7.64921e+57
          1800.99910	         7.12286e+57
          1801.80540	         6.90377e+57
          1802.61170	         7.71525e+57
          1803.41800	         8.17050e+57
          1804.22430	         7.28302e+57
          1805.03060	         7.34515e+57
          1805.83690	         7.99629e+57
          1806.64320	         7.97930e+57
          1807.44950	         7.79401e+57
          1808.25580	         6.91231e+57
          1809.06210	         7.81060e+57
          1809.86840	         7.19109e+57
          1810.67470	         7.53911e+57
          1811.48100	         9.01286e+57
          1812.28730	         8.64342e+57
          1813.09360	         8.13573e+57
          1813.89990	         8.40096e+57
          1814.70620	         7.73745e+57
          1815.51250	         8.47071e+57
          1816.31880	         8.62719e+57
          1817.12510	         7.51894e+57
          1817.93140	         7.26652e+57
          1818.73770	         7.34079e+57
          1819.54400	         8.14707e+57
          1820.35030	         9.27152e+57
          1821.15660	         7.63870e+57
          1821.96290	         6.36512e+57
          1822.76920	         6.46150e+57
          1823.57550	         6.84635e+57
          1824.38180	         7.33690e+57
          1825.18810	         7.21288e+57
          1825.99440	         8.74180e+57
          1826.80070	         8.65526e+57
          1827.60700	         7.12496e+57
          1828.41330	         7.12718e+57
          1829.21960	         6.61991e+57
          1830.02590	         6.61310e+57
          1830.83220	         7.87714e+57
          1831.63850	         7.60376e+57
          1832.44480	         6.65234e+57
          1833.25110	         8.10609e+57
          1834.05740	         8.40570e+57
          1834.86370	         7.14460e+57
          1835.67000	         6.30200e+57
          1836.47630	         7.61130e+57
          1837.28260	         8.50969e+57
          1838.08890	         8.53279e+57
          1838.89520	         8.20064e+57
          1839.70150	         7.69489e+57
          1840.50780	         7.56986e+57
          1841.31410	         7.54637e+57
          1842.12040	         7.39394e+57
          1842.92670	         7.13685e+57
          1843.73300	         6.96962e+57
          1844.53930	         6.50896e+57
          1845.34560	         6.37322e+57
          1846.15190	         7.70561e+57
          1846.95820	         7.65385e+57
          1847.76450	         7.06634e+57
          1848.57080	         5.55242e+57
          1849.37710	         7.07649e+57
          1850.18340	         8.29095e+57
          1850.98970	         8.46369e+57
          1851.79600	         8.28987e+57
          1852.60230	         6.26803e+57
          1853.40860	         6.69529e+57
          1854.21490	         7.37520e+57
          1855.02120	         5.75379e+57
          1855.82750	         4.50472e+57
          1856.63380	         6.28146e+57
          1857.44010	         8.65007e+57
          1858.24640	         7.03997e+57
          1859.05270	         6.90244e+57
          1859.85900	         5.74910e+57
          1860.66530	         6.36757e+57
          1861.47160	         6.55929e+57
          1862.27790	         6.90380e+57
          1863.08420	         7.91717e+57
          1863.89050	         7.22872e+57
          1864.69680	         6.72687e+57
          1865.50310	         7.31074e+57
          1866.30940	         7.20640e+57
          1867.11570	         7.55066e+57
          1867.92200	         7.10969e+57
          1868.72830	         7.16390e+57
          1869.53460	         7.84589e+57
          1870.34090	         7.77168e+57
          1871.14720	         8.02892e+57
          1871.95350	         7.52571e+57
          1872.75980	         7.22772e+57
          1873.56610	         6.11828e+57
          1874.37240	         5.49794e+57
          1875.17870	         5.96026e+57
          1875.98500	         7.84687e+57
          1876.79130	         7.30653e+57
          1877.59760	         6.66337e+57
          1878.40390	         5.68656e+57
          1879.21020	         5.69798e+57
          1880.01650	         6.77942e+57
          1880.82280	         7.58977e+57
          1881.62910	         9.14349e+57
          1882.43540	         9.75854e+57
          1883.24170	         8.28040e+57
          1884.04800	         6.34936e+57
          1884.85430	         7.45371e+57
          1885.66060	         8.37525e+57
          1886.46690	         8.66510e+57
          1887.27320	         8.32146e+57
          1888.07950	         6.84785e+57
          1888.88580	         7.26776e+57
          1889.69210	         9.09363e+57
          1890.49840	         8.52790e+57
          1891.30470	         8.48599e+57
          1892.11100	         9.13294e+57
          1892.91730	         9.07848e+57
          1893.72360	         9.26551e+57
          1894.52990	         8.10305e+57
          1895.33620	         6.97195e+57
          1896.14250	         6.47497e+57
          1896.94880	         6.26887e+57
          1897.75510	         5.11464e+57
          1898.56140	         4.89518e+57
          1899.36770	         6.96250e+57
          1900.17400	         6.92963e+57
          1900.98030	         7.12935e+57
          1901.78660	         7.18009e+57
          1902.59290	         6.67338e+57
          1903.39920	         7.89375e+57
          1904.20550	         8.65637e+57
          1905.01180	         9.07402e+57
          1905.81810	         9.81231e+57
          1906.62440	         1.18415e+58
          1907.43070	         1.39184e+58
          1908.23700	         1.50996e+58
          1909.04330	         1.38611e+58
          1909.84960	         1.13838e+58
          1910.65590	         9.76753e+57
          1911.46220	         9.55532e+57
          1912.26850	         7.91699e+57
          1913.07480	         6.23129e+57
          1913.88110	         6.01290e+57
          1914.68740	         6.01688e+57
          1915.49370	         5.41049e+57
          1916.30000	         6.36349e+57
          1917.10630	         6.94026e+57
          1917.91260	         7.50670e+57
          1918.71890	         7.29543e+57
          1919.52520	         6.22818e+57
          1920.33150	         6.13710e+57
          1921.13780	         7.41720e+57
          1921.94410	         9.33194e+57
          1922.75040	         8.68549e+57
          1923.55670	         8.33613e+57
          1924.36300	         8.23032e+57
          1925.16930	         6.44970e+57
          1925.97560	         5.90986e+57
          1926.78190	         5.44227e+57
          1927.58820	         5.97443e+57
          1928.39450	         5.89549e+57
          1929.20080	         5.02437e+57
          1930.00710	         7.27994e+57
          1930.81340	         8.50409e+57
          1931.61970	         6.26881e+57
          1932.42600	         6.88366e+57
          1933.23230	         7.89769e+57
          1934.03860	         6.57953e+57
          1934.84490	         5.67179e+57
          1935.65120	         7.80847e+57
          1936.45750	         7.56855e+57
          1937.26380	         7.13298e+57
          1938.07010	         6.63786e+57
          1938.87640	         6.55514e+57
          1939.68270	         7.19860e+57
          1940.48900	         7.88232e+57
          1941.29530	         8.07761e+57
          1942.10160	         8.87982e+57
          1942.90790	         7.83746e+57
          1943.71420	         5.85421e+57
          1944.52050	         5.54320e+57
          1945.32680	         5.76851e+57
          1946.13310	         6.35925e+57
          1946.93940	         7.62403e+57
          1947.74570	         7.44558e+57
          1948.55200	         6.09628e+57
          1949.35830	         6.96895e+57
          1950.16460	         6.56366e+57
          1950.97090	         7.05901e+57
          1951.77720	         7.56339e+57
          1952.58350	         7.94129e+57
          1953.38980	         6.68087e+57
          1954.19610	         5.21129e+57
          1955.00240	         5.73077e+57
          1955.80870	         6.64766e+57
          1956.61500	         6.96938e+57
          1957.42130	         7.35911e+57
          1958.22760	         7.59600e+57
          1959.03390	         7.74698e+57
          1959.84020	         8.09186e+57
          1960.64650	         7.40461e+57
          1961.45280	         6.70754e+57
          1962.25910	         6.48314e+57
          1963.06540	         6.19074e+57
          1963.87170	         5.49836e+57
          1964.67800	         6.94059e+57
          1965.48430	         5.97605e+57
          1966.29060	         5.68825e+57
          1967.09690	         6.67600e+57
          1967.90320	         7.24845e+57
          1968.70950	         7.81275e+57
          1969.51580	         6.80587e+57
          1970.32210	         6.40094e+57
          1971.12840	         6.10610e+57
          1971.93470	         4.29034e+57
          1972.74100	         4.63489e+57
          1973.54730	         6.40497e+57
          1974.35360	         7.14467e+57
          1975.15990	         8.15948e+57
          1975.96620	         6.86103e+57
          1976.77250	         6.86954e+57
          1977.57880	         7.81726e+57
          1978.38510	         6.55264e+57
          1979.19140	         6.51176e+57
          1979.99770	         7.77864e+57
          1980.80400	         7.97932e+57
          1981.61030	         7.21612e+57
          1982.41660	         5.79358e+57
          1983.22290	         6.68395e+57
          1984.02920	         5.51375e+57
          1984.83550	         5.05717e+57
          1985.64180	         6.55710e+57
          1986.44810	         7.31016e+57
          1987.25440	         6.81550e+57
          1988.06070	         5.39478e+57
          1988.86700	         5.98648e+57
          1989.67330	         7.16118e+57
          1990.47960	         6.98347e+57
          1991.28590	         7.16225e+57
          1992.09220	         6.53687e+57
          1992.89850	         6.12815e+57
          1993.70480	         5.87999e+57
          1994.51110	         5.97747e+57
          1995.31740	         5.16377e+57
          1996.12370	         4.26302e+57
          1996.93000	         5.88017e+57
          1997.73630	         8.04896e+57
          1998.54260	         8.07337e+57
          1999.34890	         6.38631e+57
          2000.15520	         7.00615e+57
          2000.96150	         7.33480e+57
          2001.76780	         5.73059e+57
          2002.57410	         4.68310e+57
          2003.38040	         5.49355e+57
          2004.18670	         6.72929e+57
          2004.99300	         6.46505e+57
          2005.79930	         6.21854e+57
          2006.60560	         6.43241e+57
          2007.41190	         6.10893e+57
          2008.21820	         6.38022e+57
          2009.02450	         6.33666e+57
          2009.83080	         6.39397e+57
          2010.63710	         6.54947e+57
          2011.44340	         7.33697e+57
          2012.24970	         8.19929e+57
          2013.05600	         7.59974e+57
          2013.86230	         5.19220e+57
          2014.66860	         6.05641e+57
          2015.47490	         6.50816e+57
          2016.28120	         6.56570e+57
          2017.08750	         5.58080e+57
          2017.89380	         6.16872e+57
          2018.70010	         6.12045e+57
          2019.50640	         6.03683e+57
          2020.31270	         7.39579e+57
          2021.11900	         6.59094e+57
          2021.92530	         6.74338e+57
          2022.73160	         8.53386e+57
          2023.53790	         7.78028e+57
          2024.34420	         5.97995e+57
          2025.15050	         5.82890e+57
          2025.95680	         5.82310e+57
          2026.76310	         6.59835e+57
          2027.56940	         6.36898e+57
          2028.37570	         5.68093e+57
          2029.18200	         5.92084e+57
          2029.98830	         6.47065e+57
          2030.79460	         6.19940e+57
          2031.60090	         6.06958e+57
          2032.40720	         4.84607e+57
          2033.21350	         5.02803e+57
          2034.01980	         5.51522e+57
          2034.82610	         4.82821e+57
          2035.63240	         4.78935e+57
          2036.43870	         5.33358e+57
          2037.24500	         6.51159e+57
          2038.05130	         5.81184e+57
          2038.85760	         4.92261e+57
          2039.66390	         6.46827e+57
          2040.47020	         6.20403e+57
          2041.27650	         5.23706e+57
          2042.08280	         5.25729e+57
          2042.88910	         5.11673e+57
          2043.69540	         5.83787e+57
          2044.50170	         6.26426e+57
          2045.30800	         5.74259e+57
          2046.11430	         6.46910e+57
          2046.92060	         7.31423e+57
          2047.72690	         7.08500e+57
          2048.53320	         5.91038e+57
          2049.33950	         4.90622e+57
          2050.14580	         5.77072e+57
          2050.95210	         6.93958e+57
          2051.75840	         6.78216e+57
          2052.56470	         5.95036e+57
          2053.37100	         4.89574e+57
          2054.17730	         4.51385e+57
          2054.98360	         4.86361e+57
          2055.78990	         3.51560e+57
          2056.59620	         3.09485e+57
          2057.40250	         5.14944e+57
          2058.20880	         6.72595e+57
          2059.01510	         6.06814e+57
          2059.82140	         6.35935e+57
          2060.62770	         1.01268e+58
          2061.43400	         1.64059e+58
          2062.24030	         1.43664e+58
          2063.04660	         9.42275e+56
          2063.85290	         1.39360e+57
          2064.65920	        -3.01941e+57
          2065.46550	        -9.00976e+57
          2066.27180	        -8.79095e+57
          2067.07810	         4.45299e+57
          2067.88440	         4.37058e+57
          2068.69070	         5.82165e+57
          2069.49700	         4.82165e+57
          2070.30330	         3.19992e+57
          2071.10960	         4.43183e+57
          2071.91590	         6.33091e+57
          2072.72220	         4.68004e+57
          2073.52850	         3.98093e+57
          2074.33480	         5.45343e+57
          2075.14110	         5.61006e+57
          2075.94740	         3.93668e+57
          2076.75370	         3.78084e+57
          2077.56000	         4.40940e+57
          2078.36630	         3.81009e+57
          2079.17260	         4.46374e+57
          2079.97890	         5.35403e+57
          2080.78520	         6.85819e+57
          2081.59150	         4.48788e+57
          2082.39780	         5.16503e+57
          2083.20410	         2.91468e+57
          2084.01040	         3.22043e+57
          2084.81670	         4.34520e+57
          2085.62300	         3.79554e+57
          2086.42930	         3.92693e+57
          2087.23560	         4.46279e+57
          2088.04190	         4.10566e+57
          2088.84820	         1.90317e+57
          2089.65450	         4.02560e+57
          2090.46080	         2.47465e+57
          2091.26710	         2.74729e+57
          2092.07340	         3.05525e+57
          2092.87970	         2.89947e+57
          2093.68600	        -9.27215e+55
          2094.49230	         8.80621e+56
          2095.29860	         6.06471e+57
          2096.10490	         3.86703e+57
          2096.91120	         2.19827e+57
          2097.71750	         4.26886e+56
          2098.52380	        -5.75698e+55
          2099.33010	         1.94225e+57
          2100.13640	         2.17084e+57
          2100.94270	         1.80521e+57
          2101.74900	         3.17660e+57
          2102.55530	         1.79645e+57
          2103.36160	         3.11110e+56
          2104.16790	         4.66811e+56
          2104.97420	         1.11104e+57
          2105.78050	         1.23896e+57
          2106.58680	         3.17105e+57
          2107.39310	        -9.94420e+56
          2108.19940	        -3.46832e+57
          2109.00570	        -1.57749e+57
          2109.81200	        -7.43386e+56
          2110.61830	         3.69519e+57
          2111.42460	         5.01153e+57
          2112.23090	         6.10773e+56
          2113.03720	         1.23506e+57
          2113.84350	        -1.85451e+56
          2114.64980	         4.58982e+57
          2115.45610	         9.37251e+56
          2116.26240	        -5.93368e+57
          2117.06870	         2.89755e+57
          2117.87500	        -2.96984e+57
          2118.68130	        -1.72911e+57
          2119.48760	         5.75071e+57
          2120.29390	         5.12091e+56
          2121.10020	        -3.29538e+57
          2121.90650	         1.74594e+57
          2122.71280	         3.24475e+57
          2123.51910	        -2.38459e+56
          2124.32540	         3.79717e+56
          2125.13170	         3.06481e+56
          2125.93800	         6.97865e+57
          2126.74430	         5.00183e+57
          2127.55060	        -4.83772e+57
          2128.35690	        -1.11032e+57
          2129.16320	        -8.18518e+57
          2129.96950	        -8.41155e+57
          2130.77580	        -3.76906e+57
          2131.58210	        -1.66392e+57
          2132.38840	        -1.46950e+57
          2133.19470	        -3.51563e+57
          2134.00100	        -3.81425e+55
          2134.80730	        -4.79930e+57
          2135.61360	         1.65272e+57
          2136.41990	         8.76980e+57
          2137.22620	         3.03770e+57
          2138.03250	        -2.57186e+57
          2138.83880	        -1.35768e+57
          2139.64510	        -5.41024e+56
          2140.45140	        -4.19787e+57
          2141.25770	        -6.48155e+57
          2142.06400	        -4.81014e+57
          2142.87030	         5.77751e+57
          2143.67660	        -3.56286e+57
          2144.48290	        -4.35633e+57
          2145.28920	         7.34644e+57
          2146.09550	        -7.66824e+57
          2146.90180	        -1.11748e+58
          2147.70810	        -9.42955e+57
          2148.51440	        -2.53463e+57
          2149.32070	        -9.85839e+57
          2150.12700	        -1.64587e+58
          2150.93330	        -6.52131e+57
          2151.73960	        -7.10689e+57
          2152.54590	        -3.45063e+57
          2153.35220	         6.18867e+57
          2154.15850	        -2.94948e+56
          2154.96480	         2.43489e+57
          2155.77110	        -7.17917e+57
          2156.57740	         4.45609e+57
          2157.38370	         1.04905e+58
          2158.19000	         3.16689e+55
          2158.99630	         6.63901e+57
          2159.80260	        -1.39952e+58
          2160.60890	        -1.15306e+58
          2161.41520	         5.89888e+57
          2162.22150	        -1.07374e+58
          2163.02780	        -5.87144e+57
          2163.83410	        -3.09447e+57
          2164.64040	        -8.95829e+57
          2165.44670	        -1.42606e+58
          2166.25300	        -1.41425e+58
          2167.05930	        -8.02371e+57
          2167.86560	        -1.35269e+58
          2168.67190	        -7.56649e+57
          2169.47820	        -9.78235e+57
          2170.28450	        -1.31876e+58
          2171.09080	        -3.70338e+57
          2171.89710	        -2.89524e+57
          2172.70340	         2.08578e+57
          2173.50970	        -2.07466e+58
          2174.31600	        -9.56024e+57
          2175.12230	         1.45061e+57
          2175.92860	        -1.89791e+57
          2176.73490	        -1.26706e+58
          2177.54120	        -9.76582e+57
          2178.34750	        -3.84746e+57
          2179.15380	                 nan
          2179.96010	                 nan
          2180.76640	                 nan
          2181.57270	                 nan
          2182.37900	                 nan
          2183.18530	                 nan
          2183.99160	                 nan
          2184.79790	                 nan
          2185.60420	                 nan
          2186.41050	                 nan
          2187.21680	                 nan
          2188.02310	                 nan
          2188.82940	                 nan
          2189.63570	                 nan
          2190.44200	                 nan
          2191.24830	                 nan
          2192.05460	                 nan
          2192.86090	                 nan
          2193.66720	                 nan
          2194.47350	                 nan
          2195.27980	                 nan
          2196.08610	                 nan
          2196.89240	                 nan
          2197.69870	                 nan
          2198.50500	                 nan
          2199.31130	                 nan
          2200.11760	                 nan
          2200.92390	                 nan
          2201.73020	                 nan
          2202.53650	                 nan
          2203.34280	                 nan
          2204.14910	                 nan
          2204.95540	                 nan
          2205.76170	                 nan
          2206.56800	                 nan
          2207.37430	                 nan
          2208.18060	                 nan
          2208.98690	                 nan
          2209.79320	                 nan
          2210.59950	                 nan
          2211.40580	                 nan
          2212.21210	                 nan
          2213.01840	                 nan
          2213.82470	                 nan
          2214.63100	                 nan
          2215.43730	         0.00000e+00
