#sample_148_stacked_spectrum_rest_UV-bands_median_H-alpha_noDC.txt
#median Lum: 1.66570e+42
#Rest-frame wavelength (A) | Luminosity (erg/s/A)
#
          1110.00000	         0.00000e+00
          1110.80630	        -2.26379e+59
          1111.61260	        -2.46262e+59
          1112.41890	        -4.13802e+59
          1113.22520	         6.28666e+58
          1114.03150	        -1.13812e+59
          1114.83780	         1.84555e+59
          1115.64410	         4.68499e+58
          1116.45040	         1.62012e+59
          1117.25670	         9.08970e+58
          1118.06300	         1.23251e+59
          1118.86930	         1.39851e+59
          1119.67560	         1.08436e+59
          1120.48190	        -1.84592e+58
          1121.28820	        -1.23428e+59
          1122.09450	         1.03146e+57
          1122.90080	         3.47044e+58
          1123.70710	         4.20987e+58
          1124.51340	         6.35899e+58
          1125.31970	         2.54476e+58
          1126.12600	        -1.92272e+57
          1126.93230	        -4.42058e+58
          1127.73860	        -7.37220e+58
          1128.54490	        -8.13939e+57
          1129.35120	        -8.38316e+56
          1130.15750	        -1.64220e+58
          1130.96380	        -4.51848e+58
          1131.77010	         3.07194e+58
          1132.57640	         3.04039e+58
          1133.38270	        -4.74244e+57
          1134.18900	         5.16618e+57
          1134.99530	        -1.84139e+57
          1135.80160	         1.68828e+58
          1136.60790	         2.23513e+58
          1137.41420	        -6.39761e+57
          1138.22050	         3.54213e+58
          1139.02680	         4.21274e+58
          1139.83310	         2.85092e+58
          1140.63940	         1.04932e+58
          1141.44570	        -2.42287e+58
          1142.25200	        -7.26766e+57
          1143.05830	         3.61211e+58
          1143.86460	         2.78491e+58
          1144.67090	         2.23305e+58
          1145.47720	         1.57165e+58
          1146.28350	         1.00946e+58
          1147.08980	         2.74327e+58
          1147.89610	         3.07098e+58
          1148.70240	         1.47686e+58
          1149.50870	         1.64086e+58
          1150.31500	         3.00706e+57
          1151.12130	         6.33320e+57
          1151.92760	         6.08402e+57
          1152.73390	         2.58220e+58
          1153.54020	         1.48066e+58
          1154.34650	         2.31015e+58
          1155.15280	         1.93656e+58
          1155.95910	         9.19329e+57
          1156.76540	         1.04657e+58
          1157.57170	        -3.22709e+57
          1158.37800	        -1.59228e+57
          1159.18430	        -3.29138e+57
          1159.99060	         4.58546e+57
          1160.79690	         2.96152e+57
          1161.60320	         1.09374e+58
          1162.40950	         1.73105e+58
          1163.21580	         1.74602e+58
          1164.02210	         1.06785e+58
          1164.82840	         9.10692e+57
          1165.63470	         1.52126e+58
          1166.44100	         2.72802e+58
          1167.24730	         1.87004e+58
          1168.05360	         6.79432e+57
          1168.85990	         1.21812e+58
          1169.66620	         1.45358e+58
          1170.47250	         1.59195e+58
          1171.27880	         2.16285e+58
          1172.08510	         1.85134e+58
          1172.89140	         8.93068e+57
          1173.69770	         3.02634e+57
          1174.50400	         1.26804e+58
          1175.31030	         1.74879e+58
          1176.11660	         1.60827e+58
          1176.92290	         1.37947e+58
          1177.72920	         1.08861e+58
          1178.53550	         6.87951e+57
          1179.34180	         1.21260e+57
          1180.14810	         4.05720e+57
          1180.95440	         7.10009e+57
          1181.76070	         9.59421e+57
          1182.56700	         1.00076e+58
          1183.37330	         8.09774e+57
          1184.17960	         1.25030e+58
          1184.98590	         9.55640e+57
          1185.79220	         5.54065e+57
          1186.59850	         1.47286e+58
          1187.40480	         1.32921e+58
          1188.21110	         1.15546e+58
          1189.01740	         8.16763e+57
          1189.82370	         4.28826e+57
          1190.63000	         1.02715e+58
          1191.43630	         1.54520e+58
          1192.24260	         7.46908e+57
          1193.04890	         1.04984e+58
          1193.85520	         9.26291e+57
          1194.66150	         2.32938e+57
          1195.46780	         1.11325e+58
          1196.27410	         1.92392e+58
          1197.08040	         1.13048e+58
          1197.88670	         1.13141e+58
          1198.69300	         1.53818e+58
          1199.49930	         1.74937e+58
          1200.30560	         1.38981e+58
          1201.11190	         1.14672e+58
          1201.91820	         6.15175e+57
          1202.72450	         5.69026e+57
          1203.53080	         1.32330e+58
          1204.33710	         1.04526e+58
          1205.14340	         3.58739e+57
          1205.94970	         4.62176e+57
          1206.75600	         3.36451e+57
          1207.56230	         1.44480e+57
          1208.36860	         8.14791e+57
          1209.17490	         3.60334e+57
          1209.98120	         5.80594e+57
          1210.78750	         7.04341e+57
          1211.59380	         1.00518e+58
          1212.40010	         1.58260e+58
          1213.20640	         1.84115e+58
          1214.01270	         1.80399e+58
          1214.81900	         2.63144e+58
          1215.62530	         4.55846e+58
          1216.43160	         9.18428e+58
          1217.23790	         1.52561e+59
          1218.04420	         1.14713e+59
          1218.85050	         8.57718e+58
          1219.65680	         5.92881e+58
          1220.46310	         3.32926e+58
          1221.26940	         2.14614e+58
          1222.07570	         1.27321e+58
          1222.88200	         8.93472e+57
          1223.68830	         7.46052e+57
          1224.49460	         8.05770e+57
          1225.30090	         6.57533e+57
          1226.10720	         6.91608e+57
          1226.91350	         6.74238e+57
          1227.71980	         9.25723e+57
          1228.52610	         1.30962e+58
          1229.33240	         9.18414e+57
          1230.13870	         6.38848e+57
          1230.94500	         6.12623e+57
          1231.75130	         6.01745e+57
          1232.55760	         6.83193e+57
          1233.36390	         9.09392e+57
          1234.17020	         8.23321e+57
          1234.97650	         8.74561e+57
          1235.78280	         5.90507e+57
          1236.58910	         7.38514e+57
          1237.39540	         1.01275e+58
          1238.20170	         7.98685e+57
          1239.00800	         1.10902e+58
          1239.81430	         1.41971e+58
          1240.62060	         9.75450e+57
          1241.42690	         1.03493e+58
          1242.23320	         1.20146e+58
          1243.03950	         8.77369e+57
          1243.84580	         7.70148e+57
          1244.65210	         9.23613e+57
          1245.45840	         1.00531e+58
          1246.26470	         7.59414e+57
          1247.07100	         5.28253e+57
          1247.87730	         7.71268e+57
          1248.68360	         2.40909e+57
          1249.48990	         6.22800e+57
          1250.29620	         9.63429e+57
          1251.10250	         7.94931e+57
          1251.90880	         5.17023e+57
          1252.71510	         6.53922e+57
          1253.52140	         8.98302e+57
          1254.32770	         1.02344e+58
          1255.13400	         1.14103e+58
          1255.94030	         9.82650e+57
          1256.74660	         9.89014e+57
          1257.55290	         1.26100e+58
          1258.35920	         1.16142e+58
          1259.16550	         8.06655e+57
          1259.97180	         5.86790e+57
          1260.77810	         6.58008e+57
          1261.58440	         8.41469e+57
          1262.39070	         7.49208e+57
          1263.19700	         7.75069e+57
          1264.00330	         1.00462e+58
          1264.80960	         1.10102e+58
          1265.61590	         1.36951e+58
          1266.42220	         1.40421e+58
          1267.22850	         1.00697e+58
          1268.03480	         1.25278e+58
          1268.84110	         1.41361e+58
          1269.64740	         1.21083e+58
          1270.45370	         1.20174e+58
          1271.26000	         1.12759e+58
          1272.06630	         1.32042e+58
          1272.87260	         1.36879e+58
          1273.67890	         1.32083e+58
          1274.48520	         1.14455e+58
          1275.29150	         1.15710e+58
          1276.09780	         9.71647e+57
          1276.90410	         1.33156e+58
          1277.71040	         1.35685e+58
          1278.51670	         1.38722e+58
          1279.32300	         1.53146e+58
          1280.12930	         1.36959e+58
          1280.93560	         1.16290e+58
          1281.74190	         1.22290e+58
          1282.54820	         1.42043e+58
          1283.35450	         1.30488e+58
          1284.16080	         1.31618e+58
          1284.96710	         1.35672e+58
          1285.77340	         1.20601e+58
          1286.57970	         1.30121e+58
          1287.38600	         1.64981e+58
          1288.19230	         1.63062e+58
          1288.99860	         1.27190e+58
          1289.80490	         1.20396e+58
          1290.61120	         1.41252e+58
          1291.41750	         1.49161e+58
          1292.22380	         1.12976e+58
          1293.03010	         9.65311e+57
          1293.83640	         1.06178e+58
          1294.64270	         1.05685e+58
          1295.44900	         6.20354e+57
          1296.25530	         6.35626e+57
          1297.06160	         8.37292e+57
          1297.86790	         7.36947e+57
          1298.67420	         8.99377e+57
          1299.48050	         1.06730e+58
          1300.28680	         1.05558e+58
          1301.09310	         8.99831e+57
          1301.89940	         3.37867e+57
          1302.70570	         4.70361e+57
          1303.51200	         6.79711e+57
          1304.31830	         9.72975e+57
          1305.12460	         1.03585e+58
          1305.93090	         1.11530e+58
          1306.73720	         1.20114e+58
          1307.54350	         1.35661e+58
          1308.34980	         1.44129e+58
          1309.15610	         1.56333e+58
          1309.96240	         1.75275e+58
          1310.76870	         1.42727e+58
          1311.57500	         1.09637e+58
          1312.38130	         1.18710e+58
          1313.18760	         1.43870e+58
          1313.99390	         1.67409e+58
          1314.80020	         1.77007e+58
          1315.60650	         1.42229e+58
          1316.41280	         1.06670e+58
          1317.21910	         1.02980e+58
          1318.02540	         1.06292e+58
          1318.83170	         1.18020e+58
          1319.63800	         1.20674e+58
          1320.44430	         1.15893e+58
          1321.25060	         1.18785e+58
          1322.05690	         1.24988e+58
          1322.86320	         1.26240e+58
          1323.66950	         1.16235e+58
          1324.47580	         9.91412e+57
          1325.28210	         9.46551e+57
          1326.08840	         1.06357e+58
          1326.89470	         1.26991e+58
          1327.70100	         1.28830e+58
          1328.50730	         9.60237e+57
          1329.31360	         8.23929e+57
          1330.11990	         8.62545e+57
          1330.92620	         9.50963e+57
          1331.73250	         1.14887e+58
          1332.53880	         9.41615e+57
          1333.34510	         8.96121e+57
          1334.15140	         9.77661e+57
          1334.95770	         9.84651e+57
          1335.76400	         1.01817e+58
          1336.57030	         1.15492e+58
          1337.37660	         1.19701e+58
          1338.18290	         1.04782e+58
          1338.98920	         1.18832e+58
          1339.79550	         1.21155e+58
          1340.60180	         1.20653e+58
          1341.40810	         1.39012e+58
          1342.21440	         1.23077e+58
          1343.02070	         1.25389e+58
          1343.82700	         1.38445e+58
          1344.63330	         1.22262e+58
          1345.43960	         1.24633e+58
          1346.24590	         1.19738e+58
          1347.05220	         1.22288e+58
          1347.85850	         1.10989e+58
          1348.66480	         1.17107e+58
          1349.47110	         1.44156e+58
          1350.27740	         1.26470e+58
          1351.08370	         1.06996e+58
          1351.89000	         1.11068e+58
          1352.69630	         1.11922e+58
          1353.50260	         1.16196e+58
          1354.30890	         1.25511e+58
          1355.11520	         1.23797e+58
          1355.92150	         1.14156e+58
          1356.72780	         1.03220e+58
          1357.53410	         1.08347e+58
          1358.34040	         1.18297e+58
          1359.14670	         1.10390e+58
          1359.95300	         1.20580e+58
          1360.75930	         1.27808e+58
          1361.56560	         1.13304e+58
          1362.37190	         1.16181e+58
          1363.17820	         1.10929e+58
          1363.98450	         1.26903e+58
          1364.79080	         1.31188e+58
          1365.59710	         1.30865e+58
          1366.40340	         1.24364e+58
          1367.20970	         1.20622e+58
          1368.01600	         9.64199e+57
          1368.82230	         8.99780e+57
          1369.62860	         1.24732e+58
          1370.43490	         1.15875e+58
          1371.24120	         8.59859e+57
          1372.04750	         8.00434e+57
          1372.85380	         1.14865e+58
          1373.66010	         1.20252e+58
          1374.46640	         1.03494e+58
          1375.27270	         1.11559e+58
          1376.07900	         9.40804e+57
          1376.88530	         8.51483e+57
          1377.69160	         8.80427e+57
          1378.49790	         7.19998e+57
          1379.30420	         7.12197e+57
          1380.11050	         8.23715e+57
          1380.91680	         8.42211e+57
          1381.72310	         9.63563e+57
          1382.52940	         9.12741e+57
          1383.33570	         8.50155e+57
          1384.14200	         8.76181e+57
          1384.94830	         1.01294e+58
          1385.75460	         9.92896e+57
          1386.56090	         1.07001e+58
          1387.36720	         1.08412e+58
          1388.17350	         1.29640e+58
          1388.97980	         1.17836e+58
          1389.78610	         9.57976e+57
          1390.59240	         7.89183e+57
          1391.39870	         7.45371e+57
          1392.20500	         8.07341e+57
          1393.01130	         6.22137e+57
          1393.81760	         6.89801e+57
          1394.62390	         8.31019e+57
          1395.43020	         7.24999e+57
          1396.23650	         6.73307e+57
          1397.04280	         7.03000e+57
          1397.84910	         9.10030e+57
          1398.65540	         1.02668e+58
          1399.46170	         1.00023e+58
          1400.26800	         8.21270e+57
          1401.07430	         7.54961e+57
          1401.88060	         8.58269e+57
          1402.68690	         9.41934e+57
          1403.49320	         9.32372e+57
          1404.29950	         9.30713e+57
          1405.10580	         1.07644e+58
          1405.91210	         1.22250e+58
          1406.71840	         1.09575e+58
          1407.52470	         1.04400e+58
          1408.33100	         9.94493e+57
          1409.13730	         1.16863e+58
          1409.94360	         1.24314e+58
          1410.74990	         1.24357e+58
          1411.55620	         1.06296e+58
          1412.36250	         8.34151e+57
          1413.16880	         8.65116e+57
          1413.97510	         8.73178e+57
          1414.78140	         8.54596e+57
          1415.58770	         1.07637e+58
          1416.39400	         1.12354e+58
          1417.20030	         1.04065e+58
          1418.00660	         9.67659e+57
          1418.81290	         1.08036e+58
          1419.61920	         1.00346e+58
          1420.42550	         1.16280e+58
          1421.23180	         1.41022e+58
          1422.03810	         1.29601e+58
          1422.84440	         1.07975e+58
          1423.65070	         1.22233e+58
          1424.45700	         1.18779e+58
          1425.26330	         8.88276e+57
          1426.06960	         8.49907e+57
          1426.87590	         1.02879e+58
          1427.68220	         1.07992e+58
          1428.48850	         1.10152e+58
          1429.29480	         1.01299e+58
          1430.10110	         1.03966e+58
          1430.90740	         9.31166e+57
          1431.71370	         8.49880e+57
          1432.52000	         8.55503e+57
          1433.32630	         7.75707e+57
          1434.13260	         7.73504e+57
          1434.93890	         8.41850e+57
          1435.74520	         8.60109e+57
          1436.55150	         9.07038e+57
          1437.35780	         8.88381e+57
          1438.16410	         8.33943e+57
          1438.97040	         8.48949e+57
          1439.77670	         9.26229e+57
          1440.58300	         9.53396e+57
          1441.38930	         9.23933e+57
          1442.19560	         9.78957e+57
          1443.00190	         9.64796e+57
          1443.80820	         1.13739e+58
          1444.61450	         1.05309e+58
          1445.42080	         9.80705e+57
          1446.22710	         1.12771e+58
          1447.03340	         9.69105e+57
          1447.83970	         9.82075e+57
          1448.64600	         1.00012e+58
          1449.45230	         1.04209e+58
          1450.25860	         1.05442e+58
          1451.06490	         9.17032e+57
          1451.87120	         7.40103e+57
          1452.67750	         7.60003e+57
          1453.48380	         9.78692e+57
          1454.29010	         8.98889e+57
          1455.09640	         7.80642e+57
          1455.90270	         8.84628e+57
          1456.70900	         9.33872e+57
          1457.51530	         9.39552e+57
          1458.32160	         1.12815e+58
          1459.12790	         1.21990e+58
          1459.93420	         1.03560e+58
          1460.74050	         8.34161e+57
          1461.54680	         8.37804e+57
          1462.35310	         8.30962e+57
          1463.15940	         9.68926e+57
          1463.96570	         1.20951e+58
          1464.77200	         1.22375e+58
          1465.57830	         1.10288e+58
          1466.38460	         9.72385e+57
          1467.19090	         9.15002e+57
          1467.99720	         9.28223e+57
          1468.80350	         1.03003e+58
          1469.60980	         1.04351e+58
          1470.41610	         1.05327e+58
          1471.22240	         9.11353e+57
          1472.02870	         9.39622e+57
          1472.83500	         9.88346e+57
          1473.64130	         9.88497e+57
          1474.44760	         9.38647e+57
          1475.25390	         8.96465e+57
          1476.06020	         9.14534e+57
          1476.86650	         8.32749e+57
          1477.67280	         7.99051e+57
          1478.47910	         6.55192e+57
          1479.28540	         7.04745e+57
          1480.09170	         8.95631e+57
          1480.89800	         8.97223e+57
          1481.70430	         8.20244e+57
          1482.51060	         9.19890e+57
          1483.31690	         8.97016e+57
          1484.12320	         7.80780e+57
          1484.92950	         8.32361e+57
          1485.73580	         8.84109e+57
          1486.54210	         8.85340e+57
          1487.34840	         9.60259e+57
          1488.15470	         8.63683e+57
          1488.96100	         8.11299e+57
          1489.76730	         8.44618e+57
          1490.57360	         8.82350e+57
          1491.37990	         9.06806e+57
          1492.18620	         8.56979e+57
          1492.99250	         8.42560e+57
          1493.79880	         9.18805e+57
          1494.60510	         8.94257e+57
          1495.41140	         7.78896e+57
          1496.21770	         8.84396e+57
          1497.02400	         1.16392e+58
          1497.83030	         9.34451e+57
          1498.63660	         6.54830e+57
          1499.44290	         6.15070e+57
          1500.24920	         6.25256e+57
          1501.05550	         7.45874e+57
          1501.86180	         8.20753e+57
          1502.66810	         9.86818e+57
          1503.47440	         9.85189e+57
          1504.28070	         7.45428e+57
          1505.08700	         7.72918e+57
          1505.89330	         9.11041e+57
          1506.69960	         9.12572e+57
          1507.50590	         8.10842e+57
          1508.31220	         8.31997e+57
          1509.11850	         8.29644e+57
          1509.92480	         9.72087e+57
          1510.73110	         9.24507e+57
          1511.53740	         7.64408e+57
          1512.34370	         7.24812e+57
          1513.15000	         8.96056e+57
          1513.95630	         1.00329e+58
          1514.76260	         8.87641e+57
          1515.56890	         7.94689e+57
          1516.37520	         8.06547e+57
          1517.18150	         8.20553e+57
          1517.98780	         6.87882e+57
          1518.79410	         7.08152e+57
          1519.60040	         8.69926e+57
          1520.40670	         9.40209e+57
          1521.21300	         9.28078e+57
          1522.01930	         8.96433e+57
          1522.82560	         9.10751e+57
          1523.63190	         9.91661e+57
          1524.43820	         8.29683e+57
          1525.24450	         6.49965e+57
          1526.05080	         6.20101e+57
          1526.85710	         6.42713e+57
          1527.66340	         6.37531e+57
          1528.46970	         7.23409e+57
          1529.27600	         8.11451e+57
          1530.08230	         8.28483e+57
          1530.88860	         7.16886e+57
          1531.69490	         7.69024e+57
          1532.50120	         9.01999e+57
          1533.30750	         9.34453e+57
          1534.11380	         8.78998e+57
          1534.92010	         8.66766e+57
          1535.72640	         8.80036e+57
          1536.53270	         9.42591e+57
          1537.33900	         8.60596e+57
          1538.14530	         8.73280e+57
          1538.95160	         9.24446e+57
          1539.75790	         8.45064e+57
          1540.56420	         7.87965e+57
          1541.37050	         8.08494e+57
          1542.17680	         8.01997e+57
          1542.98310	         6.94176e+57
          1543.78940	         6.53035e+57
          1544.59570	         6.54046e+57
          1545.40200	         7.83837e+57
          1546.20830	         9.39313e+57
          1547.01460	         1.00690e+58
          1547.82090	         1.09061e+58
          1548.62720	         1.11662e+58
          1549.43350	         1.16900e+58
          1550.23980	         1.12527e+58
          1551.04610	         1.26064e+58
          1551.85240	         1.25709e+58
          1552.65870	         1.19542e+58
          1553.46500	         1.06217e+58
          1554.27130	         1.08593e+58
          1555.07760	         1.00550e+58
          1555.88390	         8.19494e+57
          1556.69020	         8.82442e+57
          1557.49650	         8.86166e+57
          1558.30280	         8.71774e+57
          1559.10910	         9.19199e+57
          1559.91540	         9.23676e+57
          1560.72170	         8.94769e+57
          1561.52800	         8.43284e+57
          1562.33430	         8.57486e+57
          1563.14060	         8.87249e+57
          1563.94690	         8.46970e+57
          1564.75320	         7.58024e+57
          1565.55950	         6.75871e+57
          1566.36580	         7.23112e+57
          1567.17210	         8.87560e+57
          1567.97840	         1.01648e+58
          1568.78470	         9.14232e+57
          1569.59100	         8.21747e+57
          1570.39730	         8.09628e+57
          1571.20360	         7.72951e+57
          1572.00990	         8.19553e+57
          1572.81620	         9.10832e+57
          1573.62250	         9.96215e+57
          1574.42880	         9.61503e+57
          1575.23510	         7.67168e+57
          1576.04140	         8.71512e+57
          1576.84770	         9.66859e+57
          1577.65400	         9.28690e+57
          1578.46030	         9.84007e+57
          1579.26660	         1.04068e+58
          1580.07290	         9.08165e+57
          1580.87920	         7.53171e+57
          1581.68550	         7.95997e+57
          1582.49180	         8.65165e+57
          1583.29810	         8.18600e+57
          1584.10440	         8.89950e+57
          1584.91070	         8.47499e+57
          1585.71700	         8.30784e+57
          1586.52330	         9.13860e+57
          1587.32960	         8.87785e+57
          1588.13590	         8.06393e+57
          1588.94220	         8.52688e+57
          1589.74850	         9.76410e+57
          1590.55480	         9.42774e+57
          1591.36110	         8.29126e+57
          1592.16740	         8.26985e+57
          1592.97370	         7.74408e+57
          1593.78000	         8.87348e+57
          1594.58630	         9.52036e+57
          1595.39260	         7.97028e+57
          1596.19890	         7.72789e+57
          1597.00520	         8.77565e+57
          1597.81150	         8.57400e+57
          1598.61780	         6.12411e+57
          1599.42410	         5.86857e+57
          1600.23040	         6.86430e+57
          1601.03670	         7.90622e+57
          1601.84300	         7.54381e+57
          1602.64930	         8.97116e+57
          1603.45560	         8.72695e+57
          1604.26190	         7.19343e+57
          1605.06820	         7.13483e+57
          1605.87450	         7.41766e+57
          1606.68080	         7.58996e+57
          1607.48710	         7.31490e+57
          1608.29340	         6.15165e+57
          1609.09970	         6.23195e+57
          1609.90600	         6.73663e+57
          1610.71230	         6.17352e+57
          1611.51860	         6.70148e+57
          1612.32490	         7.50134e+57
          1613.13120	         8.04116e+57
          1613.93750	         7.46690e+57
          1614.74380	         8.25890e+57
          1615.55010	         8.06560e+57
          1616.35640	         9.28759e+57
          1617.16270	         1.02113e+58
          1617.96900	         1.03877e+58
          1618.77530	         8.76396e+57
          1619.58160	         8.02300e+57
          1620.38790	         8.29787e+57
          1621.19420	         9.27550e+57
          1622.00050	         8.24223e+57
          1622.80680	         8.27856e+57
          1623.61310	         8.33317e+57
          1624.41940	         7.80625e+57
          1625.22570	         8.34657e+57
          1626.03200	         8.37927e+57
          1626.83830	         7.61573e+57
          1627.64460	         6.66531e+57
          1628.45090	         7.58716e+57
          1629.25720	         9.87446e+57
          1630.06350	         1.02506e+58
          1630.86980	         7.52840e+57
          1631.67610	         8.12095e+57
          1632.48240	         9.40029e+57
          1633.28870	         9.06087e+57
          1634.09500	         9.22825e+57
          1634.90130	         1.01807e+58
          1635.70760	         8.68521e+57
          1636.51390	         7.45814e+57
          1637.32020	         7.98004e+57
          1638.12650	         8.57865e+57
          1638.93280	         9.58160e+57
          1639.73910	         1.14515e+58
          1640.54540	         1.11625e+58
          1641.35170	         9.62371e+57
          1642.15800	         9.92750e+57
          1642.96430	         1.00376e+58
          1643.77060	         9.58679e+57
          1644.57690	         8.38903e+57
          1645.38320	         8.33445e+57
          1646.18950	         7.31542e+57
          1646.99580	         8.43988e+57
          1647.80210	         8.48179e+57
          1648.60840	         8.14960e+57
          1649.41470	         8.51338e+57
          1650.22100	         6.95712e+57
          1651.02730	         7.07404e+57
          1651.83360	         7.78411e+57
          1652.63990	         8.69034e+57
          1653.44620	         9.08669e+57
          1654.25250	         8.64085e+57
          1655.05880	         7.83933e+57
          1655.86510	         8.06501e+57
          1656.67140	         9.01067e+57
          1657.47770	         8.74820e+57
          1658.28400	         9.08403e+57
          1659.09030	         9.70384e+57
          1659.89660	         1.00732e+58
          1660.70290	         1.02388e+58
          1661.50920	         1.04767e+58
          1662.31550	         8.64479e+57
          1663.12180	         8.27515e+57
          1663.92810	         1.00745e+58
          1664.73440	         1.15408e+58
          1665.54070	         1.28510e+58
          1666.34700	         1.34068e+58
          1667.15330	         1.21528e+58
          1667.95960	         9.10831e+57
          1668.76590	         7.05100e+57
          1669.57220	         6.71216e+57
          1670.37850	         7.47678e+57
          1671.18480	         8.16441e+57
          1671.99110	         7.43370e+57
          1672.79740	         6.87218e+57
          1673.60370	         6.75267e+57
          1674.41000	         7.81858e+57
          1675.21630	         8.26148e+57
          1676.02260	         7.63574e+57
          1676.82890	         7.25061e+57
          1677.63520	         6.58157e+57
          1678.44150	         6.38434e+57
          1679.24780	         8.11462e+57
          1680.05410	         7.69991e+57
          1680.86040	         5.94492e+57
          1681.66670	         6.88047e+57
          1682.47300	         9.24096e+57
          1683.27930	         9.21590e+57
          1684.08560	         9.35031e+57
          1684.89190	         8.70636e+57
          1685.69820	         5.41808e+57
          1686.50450	         4.80690e+57
          1687.31080	         6.26854e+57
          1688.11710	         6.52099e+57
          1688.92340	         6.50686e+57
          1689.72970	         6.27652e+57
          1690.53600	         6.75584e+57
          1691.34230	         8.22635e+57
          1692.14860	         7.40606e+57
          1692.95490	         7.01316e+57
          1693.76120	         7.83074e+57
          1694.56750	         7.06784e+57
          1695.37380	         8.38220e+57
          1696.18010	         8.64772e+57
          1696.98640	         9.02360e+57
          1697.79270	         7.81468e+57
          1698.59900	         7.07423e+57
          1699.40530	         7.20906e+57
          1700.21160	         6.75606e+57
          1701.01790	         7.25480e+57
          1701.82420	         6.81877e+57
          1702.63050	         7.23565e+57
          1703.43680	         9.08068e+57
          1704.24310	         8.63907e+57
          1705.04940	         8.45263e+57
          1705.85570	         8.13680e+57
          1706.66200	         7.90652e+57
          1707.46830	         7.47009e+57
          1708.27460	         7.97669e+57
          1709.08090	         6.94134e+57
          1709.88720	         5.73365e+57
          1710.69350	         5.40886e+57
          1711.49980	         6.10131e+57
          1712.30610	         8.02578e+57
          1713.11240	         9.10508e+57
          1713.91870	         7.01431e+57
          1714.72500	         7.28970e+57
          1715.53130	         8.36710e+57
          1716.33760	         8.17656e+57
          1717.14390	         8.16869e+57
          1717.95020	         8.67601e+57
          1718.75650	         8.74028e+57
          1719.56280	         8.60952e+57
          1720.36910	         6.43282e+57
          1721.17540	         6.78207e+57
          1721.98170	         7.07957e+57
          1722.78800	         7.00370e+57
          1723.59430	         7.73921e+57
          1724.40060	         8.66965e+57
          1725.20690	         8.72297e+57
          1726.01320	         7.83160e+57
          1726.81950	         6.98772e+57
          1727.62580	         7.30894e+57
          1728.43210	         7.24326e+57
          1729.23840	         7.53457e+57
          1730.04470	         8.70706e+57
          1730.85100	         9.00318e+57
          1731.65730	         8.93097e+57
          1732.46360	         8.38411e+57
          1733.26990	         7.77979e+57
          1734.07620	         6.49151e+57
          1734.88250	         6.22979e+57
          1735.68880	         7.47315e+57
          1736.49510	         8.25413e+57
          1737.30140	         7.68248e+57
          1738.10770	         7.11937e+57
          1738.91400	         7.88243e+57
          1739.72030	         7.63143e+57
          1740.52660	         5.77943e+57
          1741.33290	         5.30820e+57
          1742.13920	         5.78279e+57
          1742.94550	         7.19891e+57
          1743.75180	         7.52154e+57
          1744.55810	         8.13235e+57
          1745.36440	         7.69234e+57
          1746.17070	         5.46074e+57
          1746.97700	         5.72004e+57
          1747.78330	         7.31048e+57
          1748.58960	         7.16409e+57
          1749.39590	         6.73114e+57
          1750.20220	         5.86678e+57
          1751.00850	         5.51580e+57
          1751.81480	         6.35711e+57
          1752.62110	         7.31972e+57
          1753.42740	         7.34294e+57
          1754.23370	         5.67989e+57
          1755.04000	         7.40763e+57
          1755.84630	         8.30732e+57
          1756.65260	         8.77909e+57
          1757.45890	         8.88155e+57
          1758.26520	         8.02252e+57
          1759.07150	         9.64506e+57
          1759.87780	         8.65670e+57
          1760.68410	         8.73126e+57
          1761.49040	         8.95543e+57
          1762.29670	         7.07943e+57
          1763.10300	         7.66507e+57
          1763.90930	         7.98886e+57
          1764.71560	         7.71865e+57
          1765.52190	         7.34382e+57
          1766.32820	         8.76441e+57
          1767.13450	         8.38780e+57
          1767.94080	         7.26118e+57
          1768.74710	         7.05034e+57
          1769.55340	         7.40564e+57
          1770.35970	         6.43839e+57
          1771.16600	         6.78567e+57
          1771.97230	         8.47591e+57
          1772.77860	         8.09368e+57
          1773.58490	         7.62704e+57
          1774.39120	         5.41436e+57
          1775.19750	         5.92575e+57
          1776.00380	         7.23438e+57
          1776.81010	         7.59831e+57
          1777.61640	         6.76183e+57
          1778.42270	         6.98863e+57
          1779.22900	         6.71592e+57
          1780.03530	         6.30676e+57
          1780.84160	         6.64074e+57
          1781.64790	         7.93493e+57
          1782.45420	         7.31748e+57
          1783.26050	         7.03997e+57
          1784.06680	         7.03605e+57
          1784.87310	         6.18165e+57
          1785.67940	         6.46919e+57
          1786.48570	         6.33648e+57
          1787.29200	         6.29871e+57
          1788.09830	         6.21484e+57
          1788.90460	         5.31812e+57
          1789.71090	         4.61720e+57
          1790.51720	         5.44935e+57
          1791.32350	         7.09164e+57
          1792.12980	         8.23200e+57
          1792.93610	         7.76738e+57
          1793.74240	         6.96282e+57
          1794.54870	         8.14176e+57
          1795.35500	         9.01252e+57
          1796.16130	         8.50106e+57
          1796.96760	         6.71456e+57
          1797.77390	         6.78816e+57
          1798.58020	         7.51370e+57
          1799.38650	         6.35901e+57
          1800.19280	         6.24136e+57
          1800.99910	         6.72013e+57
          1801.80540	         6.50582e+57
          1802.61170	         7.49815e+57
          1803.41800	         8.49766e+57
          1804.22430	         7.27907e+57
          1805.03060	         7.17804e+57
          1805.83690	         7.47018e+57
          1806.64320	         8.05543e+57
          1807.44950	         7.92422e+57
          1808.25580	         6.41367e+57
          1809.06210	         8.32148e+57
          1809.86840	         7.78203e+57
          1810.67470	         7.57119e+57
          1811.48100	         8.58340e+57
          1812.28730	         8.07799e+57
          1813.09360	         7.43564e+57
          1813.89990	         6.58998e+57
          1814.70620	         7.44002e+57
          1815.51250	         8.54156e+57
          1816.31880	         7.54693e+57
          1817.12510	         7.31441e+57
          1817.93140	         6.50840e+57
          1818.73770	         5.99996e+57
          1819.54400	         7.50742e+57
          1820.35030	         8.17842e+57
          1821.15660	         5.98399e+57
          1821.96290	         6.38051e+57
          1822.76920	         6.92171e+57
          1823.57550	         7.11797e+57
          1824.38180	         7.13085e+57
          1825.18810	         7.47573e+57
          1825.99440	         8.59081e+57
          1826.80070	         7.56931e+57
          1827.60700	         5.79042e+57
          1828.41330	         5.31477e+57
          1829.21960	         6.85721e+57
          1830.02590	         6.97300e+57
          1830.83220	         7.62090e+57
          1831.63850	         7.27463e+57
          1832.44480	         6.93281e+57
          1833.25110	         8.16045e+57
          1834.05740	         9.09463e+57
          1834.86370	         7.64779e+57
          1835.67000	         6.22413e+57
          1836.47630	         6.90601e+57
          1837.28260	         9.20696e+57
          1838.08890	         9.28279e+57
          1838.89520	         8.62832e+57
          1839.70150	         8.20779e+57
          1840.50780	         6.99016e+57
          1841.31410	         7.12603e+57
          1842.12040	         7.28798e+57
          1842.92670	         7.43398e+57
          1843.73300	         6.74301e+57
          1844.53930	         6.50603e+57
          1845.34560	         7.12385e+57
          1846.15190	         7.44806e+57
          1846.95820	         7.48548e+57
          1847.76450	         7.82516e+57
          1848.57080	         6.40248e+57
          1849.37710	         5.82959e+57
          1850.18340	         8.30083e+57
          1850.98970	         9.21028e+57
          1851.79600	         7.87928e+57
          1852.60230	         6.94229e+57
          1853.40860	         6.33168e+57
          1854.21490	         5.79826e+57
          1855.02120	         6.00876e+57
          1855.82750	         4.50075e+57
          1856.63380	         6.49297e+57
          1857.44010	         7.17652e+57
          1858.24640	         7.08880e+57
          1859.05270	         6.94407e+57
          1859.85900	         6.48832e+57
          1860.66530	         6.53964e+57
          1861.47160	         6.52451e+57
          1862.27790	         6.92657e+57
          1863.08420	         7.56084e+57
          1863.89050	         8.97428e+57
          1864.69680	         8.73353e+57
          1865.50310	         7.91923e+57
          1866.30940	         6.58141e+57
          1867.11570	         6.19646e+57
          1867.92200	         6.84746e+57
          1868.72830	         6.99955e+57
          1869.53460	         7.28313e+57
          1870.34090	         8.30849e+57
          1871.14720	         8.20101e+57
          1871.95350	         7.51494e+57
          1872.75980	         7.69839e+57
          1873.56610	         7.07712e+57
          1874.37240	         6.62925e+57
          1875.17870	         6.84873e+57
          1875.98500	         7.56669e+57
          1876.79130	         8.12093e+57
          1877.59760	         7.26554e+57
          1878.40390	         6.39908e+57
          1879.21020	         5.58789e+57
          1880.01650	         6.26401e+57
          1880.82280	         8.63338e+57
          1881.62910	         9.01499e+57
          1882.43540	         1.00559e+58
          1883.24170	         7.58747e+57
          1884.04800	         5.73883e+57
          1884.85430	         6.58280e+57
          1885.66060	         8.01299e+57
          1886.46690	         8.87400e+57
          1887.27320	         7.94066e+57
          1888.07950	         6.09589e+57
          1888.88580	         6.64598e+57
          1889.69210	         8.09756e+57
          1890.49840	         7.97528e+57
          1891.30470	         7.71470e+57
          1892.11100	         8.54194e+57
          1892.91730	         8.86749e+57
          1893.72360	         7.66245e+57
          1894.52990	         7.28285e+57
          1895.33620	         8.56790e+57
          1896.14250	         6.92667e+57
          1896.94880	         6.46152e+57
          1897.75510	         5.31108e+57
          1898.56140	         5.98968e+57
          1899.36770	         9.23155e+57
          1900.17400	         7.56871e+57
          1900.98030	         5.35316e+57
          1901.78660	         6.37910e+57
          1902.59290	         7.61885e+57
          1903.39920	         8.64048e+57
          1904.20550	         8.50669e+57
          1905.01180	         8.43349e+57
          1905.81810	         9.71157e+57
          1906.62440	         1.15194e+58
          1907.43070	         1.38415e+58
          1908.23700	         1.55346e+58
          1909.04330	         1.34283e+58
          1909.84960	         1.12889e+58
          1910.65590	         9.47086e+57
          1911.46220	         8.85070e+57
          1912.26850	         8.54202e+57
          1913.07480	         7.10594e+57
          1913.88110	         5.83233e+57
          1914.68740	         5.49064e+57
          1915.49370	         5.31773e+57
          1916.30000	         6.66208e+57
          1917.10630	         7.66792e+57
          1917.91260	         6.76125e+57
          1918.71890	         6.55000e+57
          1919.52520	         6.18873e+57
          1920.33150	         5.78169e+57
          1921.13780	         6.43519e+57
          1921.94410	         7.54953e+57
          1922.75040	         7.84039e+57
          1923.55670	         8.20379e+57
          1924.36300	         7.75686e+57
          1925.16930	         5.53801e+57
          1925.97560	         5.62033e+57
          1926.78190	         5.07759e+57
          1927.58820	         5.56775e+57
          1928.39450	         6.47038e+57
          1929.20080	         5.29054e+57
          1930.00710	         7.39238e+57
          1930.81340	         8.57680e+57
          1931.61970	         7.36039e+57
          1932.42600	         7.22562e+57
          1933.23230	         8.57030e+57
          1934.03860	         6.75076e+57
          1934.84490	         5.90027e+57
          1935.65120	         9.60941e+57
          1936.45750	         9.62401e+57
          1937.26380	         6.24411e+57
          1938.07010	         6.48581e+57
          1938.87640	         7.68410e+57
          1939.68270	         7.79857e+57
          1940.48900	         7.49014e+57
          1941.29530	         8.69357e+57
          1942.10160	         8.24888e+57
          1942.90790	         6.77934e+57
          1943.71420	         5.62025e+57
          1944.52050	         6.69417e+57
          1945.32680	         6.99367e+57
          1946.13310	         8.18143e+57
          1946.93940	         8.66417e+57
          1947.74570	         7.82772e+57
          1948.55200	         6.39983e+57
          1949.35830	         5.60180e+57
          1950.16460	         6.07279e+57
          1950.97090	         4.85342e+57
          1951.77720	         7.10727e+57
          1952.58350	         8.22953e+57
          1953.38980	         6.08125e+57
          1954.19610	         5.64656e+57
          1955.00240	         6.02841e+57
          1955.80870	         6.59749e+57
          1956.61500	         6.47442e+57
          1957.42130	         6.30546e+57
          1958.22760	         8.16720e+57
          1959.03390	         8.19724e+57
          1959.84020	         8.07252e+57
          1960.64650	         6.75134e+57
          1961.45280	         5.77264e+57
          1962.25910	         6.18673e+57
          1963.06540	         6.06043e+57
          1963.87170	         5.88334e+57
          1964.67800	         7.02335e+57
          1965.48430	         6.29949e+57
          1966.29060	         6.04097e+57
          1967.09690	         6.93038e+57
          1967.90320	         6.99564e+57
          1968.70950	         6.99432e+57
          1969.51580	         6.42381e+57
          1970.32210	         7.44947e+57
          1971.12840	         8.04608e+57
          1971.93470	         5.29340e+57
          1972.74100	         5.27858e+57
          1973.54730	         7.20696e+57
          1974.35360	         7.64009e+57
          1975.15990	         8.16516e+57
          1975.96620	         6.78209e+57
          1976.77250	         7.92765e+57
          1977.57880	         8.48342e+57
          1978.38510	         6.17686e+57
          1979.19140	         5.84697e+57
          1979.99770	         7.81716e+57
          1980.80400	         7.69766e+57
          1981.61030	         7.62174e+57
          1982.41660	         6.43169e+57
          1983.22290	         6.42228e+57
          1984.02920	         6.21228e+57
          1984.83550	         6.08485e+57
          1985.64180	         6.36952e+57
          1986.44810	         6.94449e+57
          1987.25440	         5.89241e+57
          1988.06070	         5.25276e+57
          1988.86700	         5.87789e+57
          1989.67330	         6.97291e+57
          1990.47960	         6.12592e+57
          1991.28590	         5.49324e+57
          1992.09220	         5.71801e+57
          1992.89850	         5.36082e+57
          1993.70480	         5.33026e+57
          1994.51110	         4.22984e+57
          1995.31740	         4.72939e+57
          1996.12370	         5.77518e+57
          1996.93000	         6.04378e+57
          1997.73630	         7.60406e+57
          1998.54260	         8.14646e+57
          1999.34890	         7.58427e+57
          2000.15520	         6.18161e+57
          2000.96150	         7.40020e+57
          2001.76780	         5.89681e+57
          2002.57410	         5.24663e+57
          2003.38040	         7.31099e+57
          2004.18670	         8.25444e+57
          2004.99300	         6.40638e+57
          2005.79930	         6.94105e+57
          2006.60560	         6.70498e+57
          2007.41190	         6.62760e+57
          2008.21820	         6.68891e+57
          2009.02450	         6.36036e+57
          2009.83080	         6.30803e+57
          2010.63710	         7.06000e+57
          2011.44340	         7.00665e+57
          2012.24970	         7.70967e+57
          2013.05600	         6.65506e+57
          2013.86230	         6.64633e+57
          2014.66860	         6.38676e+57
          2015.47490	         6.35111e+57
          2016.28120	         6.06004e+57
          2017.08750	         5.30085e+57
          2017.89380	         5.51639e+57
          2018.70010	         6.45452e+57
          2019.50640	         5.81116e+57
          2020.31270	         5.76185e+57
          2021.11900	         7.26303e+57
          2021.92530	         7.42827e+57
          2022.73160	         6.59903e+57
          2023.53790	         6.60516e+57
          2024.34420	         6.62448e+57
          2025.15050	         6.13107e+57
          2025.95680	         5.83274e+57
          2026.76310	         6.60181e+57
          2027.56940	         7.24918e+57
          2028.37570	         7.46680e+57
          2029.18200	         5.84438e+57
          2029.98830	         5.83992e+57
          2030.79460	         6.79233e+57
          2031.60090	         7.60000e+57
          2032.40720	         6.95279e+57
          2033.21350	         5.57223e+57
          2034.01980	         5.31320e+57
          2034.82610	         4.61393e+57
          2035.63240	         5.04829e+57
          2036.43870	         4.99980e+57
          2037.24500	         6.43884e+57
          2038.05130	         7.03217e+57
          2038.85760	         6.70355e+57
          2039.66390	         7.18204e+57
          2040.47020	         5.13664e+57
          2041.27650	         6.70082e+57
          2042.08280	         5.93681e+57
          2042.88910	         5.57528e+57
          2043.69540	         5.44361e+57
          2044.50170	         5.29848e+57
          2045.30800	         4.55043e+57
          2046.11430	         2.96819e+57
          2046.92060	         6.25457e+57
          2047.72690	         6.67597e+57
          2048.53320	         6.92395e+57
          2049.33950	         5.12199e+57
          2050.14580	         5.82204e+57
          2050.95210	         6.28035e+57
          2051.75840	         7.56013e+57
          2052.56470	         4.68050e+57
          2053.37100	         4.40276e+57
          2054.17730	         3.83810e+57
          2054.98360	         3.76690e+57
          2055.78990	         4.92322e+57
          2056.59620	         3.73054e+57
          2057.40250	         5.37357e+57
          2058.20880	         7.14062e+57
          2059.01510	         5.95119e+57
          2059.82140	         5.72324e+57
          2060.62770	         9.54713e+57
          2061.43400	         1.34187e+58
          2062.24030	         1.00272e+58
          2063.04660	         4.28732e+57
          2063.85290	         1.00450e+57
          2064.65920	        -2.40627e+57
          2065.46550	        -8.22847e+57
          2066.27180	        -7.87552e+57
          2067.07810	         3.60276e+57
          2067.88440	         6.09913e+57
          2068.69070	         4.19052e+57
          2069.49700	         4.39167e+57
          2070.30330	         4.07561e+57
          2071.10960	         5.51533e+57
          2071.91590	         6.27516e+57
          2072.72220	         4.20865e+57
          2073.52850	         5.30034e+57
          2074.33480	         5.60471e+57
          2075.14110	         3.90425e+57
          2075.94740	         4.69756e+57
          2076.75370	         5.25579e+57
          2077.56000	         5.56364e+57
          2078.36630	         5.87046e+57
          2079.17260	         5.24193e+57
          2079.97890	         6.44817e+57
          2080.78520	         6.15507e+57
          2081.59150	         4.25503e+57
          2082.39780	         4.80578e+57
          2083.20410	         2.65800e+57
          2084.01040	         3.42024e+57
          2084.81670	         5.21429e+57
          2085.62300	         4.11971e+57
          2086.42930	         3.81151e+57
          2087.23560	         4.04757e+57
          2088.04190	         5.38278e+57
          2088.84820	         3.99305e+57
          2089.65450	         2.25916e+57
          2090.46080	         2.24027e+57
          2091.26710	         2.16844e+57
          2092.07340	         2.58959e+57
          2092.87970	         3.60336e+57
          2093.68600	         2.32495e+56
          2094.49230	        -1.26858e+56
          2095.29860	         3.81962e+57
          2096.10490	         3.99686e+57
          2096.91120	         2.17742e+57
          2097.71750	         2.41132e+57
          2098.52380	         1.10675e+57
          2099.33010	         4.09724e+57
          2100.13640	         2.60745e+57
          2100.94270	         1.40249e+57
          2101.74900	         3.42879e+57
          2102.55530	         1.11522e+57
          2103.36160	         2.55986e+57
          2104.16790	         5.10004e+57
          2104.97420	         1.99553e+57
          2105.78050	         2.55251e+57
          2106.58680	         1.89362e+57
          2107.39310	        -1.37381e+57
          2108.19940	        -6.45762e+56
          2109.00570	        -2.19475e+57
          2109.81200	        -4.01084e+56
          2110.61830	        -2.74104e+56
          2111.42460	         2.72390e+56
          2112.23090	         3.10947e+57
          2113.03720	        -2.82980e+56
          2113.84350	         1.60872e+57
          2114.64980	         2.45989e+57
          2115.45610	         8.23578e+56
          2116.26240	        -5.08893e+57
          2117.06870	        -8.01112e+55
          2117.87500	         3.04135e+57
          2118.68130	         2.22265e+56
          2119.48760	         6.86063e+56
          2120.29390	         7.19984e+56
          2121.10020	         8.89446e+55
          2121.90650	        -3.75070e+57
          2122.71280	        -3.61201e+57
          2123.51910	         3.17997e+57
          2124.32540	        -1.98691e+57
          2125.13170	        -1.77725e+57
          2125.93800	         5.60492e+57
          2126.74430	         2.35133e+57
          2127.55060	        -7.86746e+57
          2128.35690	        -7.30447e+57
          2129.16320	        -4.76954e+57
          2129.96950	         2.11924e+56
          2130.77580	        -1.61864e+57
          2131.58210	         6.75215e+57
          2132.38840	        -1.02084e+57
          2133.19470	        -6.89282e+57
          2134.00100	        -1.23220e+57
          2134.80730	         5.51225e+57
          2135.61360	         5.59676e+57
          2136.41990	         3.28690e+57
          2137.22620	        -1.69545e+57
          2138.03250	         9.67555e+56
          2138.83880	        -3.51354e+57
          2139.64510	        -7.19480e+57
          2140.45140	        -8.92088e+57
          2141.25770	        -9.89944e+57
          2142.06400	        -7.43170e+57
          2142.87030	        -5.93995e+56
          2143.67660	         8.93120e+57
          2144.48290	         9.24916e+57
          2145.28920	         3.82168e+57
          2146.09550	        -4.25007e+57
          2146.90180	        -1.20455e+58
          2147.70810	        -7.45058e+57
          2148.51440	        -2.22974e+57
          2149.32070	        -9.66449e+57
          2150.12700	        -8.98508e+57
          2150.93330	        -3.23000e+57
          2151.73960	         7.97197e+56
          2152.54590	         3.02436e+57
          2153.35220	         1.82643e+57
          2154.15850	         6.12560e+57
          2154.96480	         5.48739e+57
          2155.77110	         8.68432e+56
          2156.57740	        -4.54218e+56
          2157.38370	         9.51119e+57
          2158.19000	         7.43208e+57
          2158.99630	         4.13056e+57
          2159.80260	        -5.54188e+57
          2160.60890	        -4.43992e+57
          2161.41520	        -4.24192e+57
          2162.22150	        -5.48811e+57
          2163.02780	         6.90500e+56
          2163.83410	        -5.30374e+57
          2164.64040	        -1.13195e+58
          2165.44670	        -6.29658e+57
          2166.25300	        -8.87977e+57
          2167.05930	        -7.94731e+57
          2167.86560	        -6.62487e+57
          2168.67190	        -5.41385e+57
          2169.47820	         2.07114e+57
          2170.28450	         2.57859e+57
          2171.09080	         7.08708e+57
          2171.89710	         1.92136e+57
          2172.70340	         1.02685e+57
          2173.50970	        -8.80724e+57
          2174.31600	        -6.56202e+57
          2175.12230	         7.15932e+56
          2175.92860	        -3.46742e+57
          2176.73490	        -1.30016e+58
          2177.54120	        -6.72579e+57
          2178.34750	         2.13552e+56
          2179.15380	                 nan
          2179.96010	                 nan
          2180.76640	                 nan
          2181.57270	                 nan
          2182.37900	                 nan
          2183.18530	                 nan
          2183.99160	                 nan
          2184.79790	                 nan
          2185.60420	                 nan
          2186.41050	                 nan
          2187.21680	                 nan
          2188.02310	                 nan
          2188.82940	                 nan
          2189.63570	                 nan
          2190.44200	                 nan
          2191.24830	                 nan
          2192.05460	                 nan
          2192.86090	                 nan
          2193.66720	                 nan
          2194.47350	                 nan
          2195.27980	                 nan
          2196.08610	                 nan
          2196.89240	                 nan
          2197.69870	                 nan
          2198.50500	                 nan
          2199.31130	                 nan
          2200.11760	                 nan
          2200.92390	                 nan
          2201.73020	                 nan
          2202.53650	                 nan
          2203.34280	                 nan
          2204.14910	                 nan
          2204.95540	                 nan
          2205.76170	                 nan
          2206.56800	                 nan
          2207.37430	                 nan
          2208.18060	                 nan
          2208.98690	                 nan
          2209.79320	                 nan
          2210.59950	                 nan
          2211.40580	                 nan
          2212.21210	                 nan
          2213.01840	                 nan
          2213.82470	                 nan
          2214.63100	                 nan
          2215.43730	         0.00000e+00
