#sample_462_stacked_spectrum_rest_UV-bands_median_H-alpha_noDC.txt
#median Lum: 1.70363e+42
#Rest-frame wavelength (A) | Luminosity (erg/s/A)
#
          1110.00000	         0.00000e+00
          1110.80630	         3.78185e+59
          1111.61260	        -4.10388e+58
          1112.41890	         3.74070e+58
          1113.22520	         4.46524e+58
          1114.03150	        -1.13746e+59
          1114.83780	         1.72929e+59
          1115.64410	         4.56267e+57
          1116.45040	         1.08913e+59
          1117.25670	         1.65560e+58
          1118.06300	        -1.17908e+59
          1118.86930	        -5.48742e+58
          1119.67560	         1.95698e+58
          1120.48190	        -6.51376e+58
          1121.28820	        -1.18703e+59
          1122.09450	         4.41092e+58
          1122.90080	        -1.81056e+58
          1123.70710	         1.40828e+58
          1124.51340	         3.97840e+58
          1125.31970	        -4.21389e+57
          1126.12600	        -7.70705e+57
          1126.93230	        -4.59322e+58
          1127.73860	        -1.07431e+58
          1128.54490	         3.47070e+57
          1129.35120	         2.61615e+58
          1130.15750	         2.40486e+58
          1130.96380	        -3.67556e+57
          1131.77010	         8.13053e+58
          1132.57640	         4.68575e+58
          1133.38270	         3.51271e+58
          1134.18900	         6.32162e+57
          1134.99530	         2.82325e+58
          1135.80160	         4.55930e+58
          1136.60790	         2.94408e+58
          1137.41420	         1.88055e+57
          1138.22050	         2.99844e+58
          1139.02680	         4.90916e+58
          1139.83310	         3.04805e+58
          1140.63940	         1.45841e+58
          1141.44570	        -1.03241e+58
          1142.25200	        -1.45281e+57
          1143.05830	         2.21078e+58
          1143.86460	         2.08160e+58
          1144.67090	         2.79059e+58
          1145.47720	         9.81761e+57
          1146.28350	         1.11457e+58
          1147.08980	         1.28738e+58
          1147.89610	         1.57971e+58
          1148.70240	         1.21102e+58
          1149.50870	         2.75452e+58
          1150.31500	         4.42108e+57
          1151.12130	        -1.14951e+57
          1151.92760	         1.01689e+58
          1152.73390	         1.07576e+58
          1153.54020	         9.51585e+56
          1154.34650	         2.76345e+58
          1155.15280	         1.81379e+58
          1155.95910	         1.53744e+58
          1156.76540	         1.76595e+58
          1157.57170	         5.62858e+55
          1158.37800	        -5.56319e+57
          1159.18430	        -3.52344e+57
          1159.99060	         9.78441e+57
          1160.79690	         8.11998e+57
          1161.60320	         1.55562e+58
          1162.40950	         2.07136e+58
          1163.21580	         1.41950e+58
          1164.02210	         1.06613e+58
          1164.82840	         1.11716e+58
          1165.63470	         2.08669e+58
          1166.44100	         2.77160e+58
          1167.24730	         2.20377e+58
          1168.05360	         9.45768e+57
          1168.85990	         6.60096e+57
          1169.66620	         1.61795e+58
          1170.47250	         1.85727e+58
          1171.27880	         5.77215e+57
          1172.08510	         1.37500e+58
          1172.89140	         1.46580e+58
          1173.69770	         7.00273e+57
          1174.50400	         5.70244e+57
          1175.31030	         1.49848e+58
          1176.11660	         2.09912e+58
          1176.92290	         1.73047e+58
          1177.72920	         1.41003e+58
          1178.53550	         2.62645e+57
          1179.34180	        -1.62235e+57
          1180.14810	         4.69817e+57
          1180.95440	         1.24342e+58
          1181.76070	         1.11683e+58
          1182.56700	         8.78417e+57
          1183.37330	         8.93602e+57
          1184.17960	         1.26283e+58
          1184.98590	         1.30105e+58
          1185.79220	         6.03558e+57
          1186.59850	         7.83878e+57
          1187.40480	         1.02967e+58
          1188.21110	         1.62381e+58
          1189.01740	         1.12219e+58
          1189.82370	         9.59873e+56
          1190.63000	         1.19567e+58
          1191.43630	         1.43786e+58
          1192.24260	         9.40712e+57
          1193.04890	         8.75872e+57
          1193.85520	         7.72843e+57
          1194.66150	         5.54176e+57
          1195.46780	         8.51216e+57
          1196.27410	         1.76132e+58
          1197.08040	         1.42360e+58
          1197.88670	         1.53473e+58
          1198.69300	         1.93808e+58
          1199.49930	         1.89171e+58
          1200.30560	         1.55109e+58
          1201.11190	         1.34631e+58
          1201.91820	         1.15607e+58
          1202.72450	         1.00197e+58
          1203.53080	         1.52376e+58
          1204.33710	         6.60047e+57
          1205.14340	         9.47624e+57
          1205.94970	         8.69562e+57
          1206.75600	         4.18604e+57
          1207.56230	         4.97803e+57
          1208.36860	         1.06989e+58
          1209.17490	         7.14571e+57
          1209.98120	         7.75429e+57
          1210.78750	         8.65837e+57
          1211.59380	         1.25458e+58
          1212.40010	         1.96258e+58
          1213.20640	         1.86279e+58
          1214.01270	         1.99464e+58
          1214.81900	         2.54153e+58
          1215.62530	         4.29234e+58
          1216.43160	         8.81123e+58
          1217.23790	         1.52369e+59
          1218.04420	         1.12896e+59
          1218.85050	         8.61438e+58
          1219.65680	         5.52202e+58
          1220.46310	         3.23822e+58
          1221.26940	         2.60713e+58
          1222.07570	         1.89000e+58
          1222.88200	         1.04929e+58
          1223.68830	         1.20457e+58
          1224.49460	         8.87880e+57
          1225.30090	         5.48686e+57
          1226.10720	         5.28626e+57
          1226.91350	         6.81577e+57
          1227.71980	         9.32713e+57
          1228.52610	         1.23648e+58
          1229.33240	         7.92073e+57
          1230.13870	         1.00103e+58
          1230.94500	         1.19769e+58
          1231.75130	         6.33822e+57
          1232.55760	         8.95257e+57
          1233.36390	         9.90703e+57
          1234.17020	         5.66401e+57
          1234.97650	         7.40637e+57
          1235.78280	         8.18693e+57
          1236.58910	         8.59048e+57
          1237.39540	         1.02187e+58
          1238.20170	         1.01310e+58
          1239.00800	         1.07741e+58
          1239.81430	         1.48918e+58
          1240.62060	         1.23067e+58
          1241.42690	         9.34954e+57
          1242.23320	         1.08826e+58
          1243.03950	         8.79045e+57
          1243.84580	         8.39578e+57
          1244.65210	         1.01073e+58
          1245.45840	         1.04755e+58
          1246.26470	         9.03358e+57
          1247.07100	         7.66254e+57
          1247.87730	         4.54125e+57
          1248.68360	         4.44917e+57
          1249.48990	         5.82809e+57
          1250.29620	         9.01987e+57
          1251.10250	         9.84824e+57
          1251.90880	         6.42582e+57
          1252.71510	         5.10864e+57
          1253.52140	         6.53318e+57
          1254.32770	         1.12983e+58
          1255.13400	         1.32361e+58
          1255.94030	         1.13229e+58
          1256.74660	         8.72851e+57
          1257.55290	         9.97603e+57
          1258.35920	         7.83699e+57
          1259.16550	         4.69273e+57
          1259.97180	         6.48825e+57
          1260.77810	         8.36115e+57
          1261.58440	         1.25351e+58
          1262.39070	         8.05759e+57
          1263.19700	         7.82505e+57
          1264.00330	         9.57895e+57
          1264.80960	         9.91659e+57
          1265.61590	         1.19044e+58
          1266.42220	         1.30091e+58
          1267.22850	         1.12880e+58
          1268.03480	         1.25199e+58
          1268.84110	         1.27616e+58
          1269.64740	         1.20922e+58
          1270.45370	         1.33263e+58
          1271.26000	         1.14708e+58
          1272.06630	         1.08797e+58
          1272.87260	         1.26797e+58
          1273.67890	         1.24629e+58
          1274.48520	         1.22192e+58
          1275.29150	         1.37418e+58
          1276.09780	         1.12610e+58
          1276.90410	         1.30054e+58
          1277.71040	         1.31658e+58
          1278.51670	         1.25240e+58
          1279.32300	         1.34390e+58
          1280.12930	         1.13839e+58
          1280.93560	         1.00458e+58
          1281.74190	         1.08673e+58
          1282.54820	         1.17307e+58
          1283.35450	         1.11091e+58
          1284.16080	         1.13584e+58
          1284.96710	         1.18734e+58
          1285.77340	         9.84956e+57
          1286.57970	         1.03007e+58
          1287.38600	         1.42057e+58
          1288.19230	         1.66800e+58
          1288.99860	         1.82554e+58
          1289.80490	         1.52004e+58
          1290.61120	         1.37192e+58
          1291.41750	         1.48054e+58
          1292.22380	         1.12308e+58
          1293.03010	         1.00658e+58
          1293.83640	         1.13400e+58
          1294.64270	         9.56029e+57
          1295.44900	         5.85728e+57
          1296.25530	         6.11150e+57
          1297.06160	         9.67217e+57
          1297.86790	         9.31989e+57
          1298.67420	         8.64606e+57
          1299.48050	         1.07800e+58
          1300.28680	         1.05643e+58
          1301.09310	         7.22408e+57
          1301.89940	         4.38598e+57
          1302.70570	         6.81598e+57
          1303.51200	         7.57532e+57
          1304.31830	         1.01294e+58
          1305.12460	         1.23624e+58
          1305.93090	         1.21695e+58
          1306.73720	         1.34490e+58
          1307.54350	         1.40958e+58
          1308.34980	         1.36893e+58
          1309.15610	         1.37342e+58
          1309.96240	         1.34246e+58
          1310.76870	         1.26032e+58
          1311.57500	         1.21872e+58
          1312.38130	         1.09291e+58
          1313.18760	         1.23500e+58
          1313.99390	         1.65725e+58
          1314.80020	         1.72625e+58
          1315.60650	         1.67250e+58
          1316.41280	         1.46882e+58
          1317.21910	         1.19326e+58
          1318.02540	         1.38892e+58
          1318.83170	         1.26020e+58
          1319.63800	         9.52636e+57
          1320.44430	         9.82084e+57
          1321.25060	         1.22787e+58
          1322.05690	         1.32454e+58
          1322.86320	         1.29389e+58
          1323.66950	         1.12352e+58
          1324.47580	         9.70744e+57
          1325.28210	         1.07022e+58
          1326.08840	         1.20694e+58
          1326.89470	         1.30570e+58
          1327.70100	         1.08805e+58
          1328.50730	         8.51572e+57
          1329.31360	         9.25656e+57
          1330.11990	         1.01683e+58
          1330.92620	         9.12544e+57
          1331.73250	         1.06359e+58
          1332.53880	         9.15129e+57
          1333.34510	         7.99181e+57
          1334.15140	         8.70213e+57
          1334.95770	         9.37082e+57
          1335.76400	         1.05092e+58
          1336.57030	         1.12616e+58
          1337.37660	         1.06144e+58
          1338.18290	         1.07734e+58
          1338.98920	         1.23864e+58
          1339.79550	         1.24398e+58
          1340.60180	         1.23815e+58
          1341.40810	         1.25031e+58
          1342.21440	         1.11923e+58
          1343.02070	         1.17669e+58
          1343.82700	         1.20037e+58
          1344.63330	         1.12447e+58
          1345.43960	         1.22223e+58
          1346.24590	         9.55026e+57
          1347.05220	         9.76609e+57
          1347.85850	         9.93019e+57
          1348.66480	         1.29254e+58
          1349.47110	         1.24690e+58
          1350.27740	         1.12248e+58
          1351.08370	         1.14885e+58
          1351.89000	         1.12296e+58
          1352.69630	         1.24004e+58
          1353.50260	         1.15819e+58
          1354.30890	         1.26642e+58
          1355.11520	         1.27721e+58
          1355.92150	         1.13457e+58
          1356.72780	         1.03587e+58
          1357.53410	         1.03812e+58
          1358.34040	         1.06628e+58
          1359.14670	         1.12738e+58
          1359.95300	         1.17623e+58
          1360.75930	         1.17020e+58
          1361.56560	         1.19786e+58
          1362.37190	         1.20176e+58
          1363.17820	         1.15425e+58
          1363.98450	         1.24333e+58
          1364.79080	         1.37019e+58
          1365.59710	         1.30510e+58
          1366.40340	         1.10407e+58
          1367.20970	         9.38429e+57
          1368.01600	         8.51264e+57
          1368.82230	         8.38874e+57
          1369.62860	         9.09625e+57
          1370.43490	         9.70673e+57
          1371.24120	         1.08945e+58
          1372.04750	         9.29334e+57
          1372.85380	         1.04424e+58
          1373.66010	         1.05485e+58
          1374.46640	         1.08442e+58
          1375.27270	         1.08420e+58
          1376.07900	         9.20574e+57
          1376.88530	         8.20997e+57
          1377.69160	         8.08775e+57
          1378.49790	         7.84861e+57
          1379.30420	         7.96870e+57
          1380.11050	         8.84217e+57
          1380.91680	         7.79831e+57
          1381.72310	         8.17893e+57
          1382.52940	         8.59140e+57
          1383.33570	         9.07531e+57
          1384.14200	         9.41128e+57
          1384.94830	         9.26840e+57
          1385.75460	         1.02880e+58
          1386.56090	         1.03156e+58
          1387.36720	         1.13091e+58
          1388.17350	         1.30470e+58
          1388.97980	         1.11210e+58
          1389.78610	         7.78499e+57
          1390.59240	         6.95568e+57
          1391.39870	         7.48861e+57
          1392.20500	         8.49394e+57
          1393.01130	         6.80578e+57
          1393.81760	         6.22171e+57
          1394.62390	         7.05097e+57
          1395.43020	         7.33556e+57
          1396.23650	         6.31965e+57
          1397.04280	         7.73902e+57
          1397.84910	         9.69331e+57
          1398.65540	         9.20016e+57
          1399.46170	         9.34282e+57
          1400.26800	         8.42192e+57
          1401.07430	         7.17009e+57
          1401.88060	         8.37130e+57
          1402.68690	         9.47331e+57
          1403.49320	         9.10841e+57
          1404.29950	         8.91152e+57
          1405.10580	         1.03593e+58
          1405.91210	         1.05613e+58
          1406.71840	         1.01313e+58
          1407.52470	         9.72616e+57
          1408.33100	         1.09786e+58
          1409.13730	         1.18561e+58
          1409.94360	         1.20446e+58
          1410.74990	         1.29566e+58
          1411.55620	         1.05761e+58
          1412.36250	         8.55540e+57
          1413.16880	         9.70226e+57
          1413.97510	         8.54840e+57
          1414.78140	         9.49359e+57
          1415.58770	         9.73664e+57
          1416.39400	         8.60040e+57
          1417.20030	         1.07636e+58
          1418.00660	         1.13440e+58
          1418.81290	         1.13288e+58
          1419.61920	         1.10609e+58
          1420.42550	         1.25948e+58
          1421.23180	         1.38003e+58
          1422.03810	         1.24200e+58
          1422.84440	         1.20341e+58
          1423.65070	         1.27395e+58
          1424.45700	         1.10250e+58
          1425.26330	         9.24614e+57
          1426.06960	         9.74004e+57
          1426.87590	         1.06912e+58
          1427.68220	         1.13383e+58
          1428.48850	         1.10216e+58
          1429.29480	         1.02012e+58
          1430.10110	         9.63266e+57
          1430.90740	         9.01561e+57
          1431.71370	         8.80799e+57
          1432.52000	         9.25849e+57
          1433.32630	         8.33257e+57
          1434.13260	         7.90747e+57
          1434.93890	         8.69047e+57
          1435.74520	         9.26925e+57
          1436.55150	         9.60857e+57
          1437.35780	         8.94404e+57
          1438.16410	         8.65123e+57
          1438.97040	         8.36410e+57
          1439.77670	         8.96558e+57
          1440.58300	         9.98026e+57
          1441.38930	         9.80654e+57
          1442.19560	         1.07316e+58
          1443.00190	         1.02478e+58
          1443.80820	         1.04787e+58
          1444.61450	         1.07183e+58
          1445.42080	         1.01498e+58
          1446.22710	         9.69820e+57
          1447.03340	         8.73598e+57
          1447.83970	         1.02240e+58
          1448.64600	         1.03417e+58
          1449.45230	         1.00041e+58
          1450.25860	         1.08197e+58
          1451.06490	         1.01588e+58
          1451.87120	         8.66607e+57
          1452.67750	         8.63392e+57
          1453.48380	         1.01858e+58
          1454.29010	         9.07645e+57
          1455.09640	         7.65133e+57
          1455.90270	         8.40207e+57
          1456.70900	         8.60589e+57
          1457.51530	         9.65598e+57
          1458.32160	         1.24844e+58
          1459.12790	         1.24806e+58
          1459.93420	         1.00007e+58
          1460.74050	         7.34818e+57
          1461.54680	         6.30492e+57
          1462.35310	         8.64588e+57
          1463.15940	         1.04662e+58
          1463.96570	         1.18745e+58
          1464.77200	         1.20494e+58
          1465.57830	         1.04355e+58
          1466.38460	         9.96289e+57
          1467.19090	         8.09564e+57
          1467.99720	         8.22293e+57
          1468.80350	         9.34063e+57
          1469.60980	         1.06502e+58
          1470.41610	         1.18599e+58
          1471.22240	         8.70636e+57
          1472.02870	         8.42392e+57
          1472.83500	         1.02677e+58
          1473.64130	         1.04956e+58
          1474.44760	         9.59855e+57
          1475.25390	         8.43243e+57
          1476.06020	         8.04972e+57
          1476.86650	         8.31067e+57
          1477.67280	         8.32222e+57
          1478.47910	         7.12457e+57
          1479.28540	         7.32698e+57
          1480.09170	         8.23346e+57
          1480.89800	         8.25387e+57
          1481.70430	         8.94762e+57
          1482.51060	         9.72482e+57
          1483.31690	         8.13526e+57
          1484.12320	         7.24234e+57
          1484.92950	         7.20772e+57
          1485.73580	         8.53913e+57
          1486.54210	         8.81081e+57
          1487.34840	         8.35519e+57
          1488.15470	         8.35551e+57
          1488.96100	         9.02186e+57
          1489.76730	         8.80127e+57
          1490.57360	         9.10321e+57
          1491.37990	         8.03338e+57
          1492.18620	         6.97336e+57
          1492.99250	         7.38498e+57
          1493.79880	         7.99052e+57
          1494.60510	         8.26707e+57
          1495.41140	         8.12941e+57
          1496.21770	         8.68999e+57
          1497.02400	         1.04638e+58
          1497.83030	         9.44446e+57
          1498.63660	         7.84352e+57
          1499.44290	         6.68053e+57
          1500.24920	         6.34520e+57
          1501.05550	         6.60545e+57
          1501.86180	         7.57395e+57
          1502.66810	         8.62530e+57
          1503.47440	         8.52110e+57
          1504.28070	         8.06960e+57
          1505.08700	         1.00078e+58
          1505.89330	         1.02849e+58
          1506.69960	         8.26734e+57
          1507.50590	         8.33596e+57
          1508.31220	         9.32048e+57
          1509.11850	         9.31949e+57
          1509.92480	         9.10900e+57
          1510.73110	         8.91962e+57
          1511.53740	         7.07182e+57
          1512.34370	         6.73771e+57
          1513.15000	         8.73448e+57
          1513.95630	         9.54567e+57
          1514.76260	         8.94838e+57
          1515.56890	         8.25894e+57
          1516.37520	         9.11287e+57
          1517.18150	         8.25277e+57
          1517.98780	         7.38202e+57
          1518.79410	         7.49447e+57
          1519.60040	         7.71494e+57
          1520.40670	         9.25233e+57
          1521.21300	         9.67196e+57
          1522.01930	         8.47226e+57
          1522.82560	         9.25005e+57
          1523.63190	         1.02939e+58
          1524.43820	         9.67571e+57
          1525.24450	         7.03982e+57
          1526.05080	         6.58784e+57
          1526.85710	         6.76779e+57
          1527.66340	         6.84224e+57
          1528.46970	         8.17189e+57
          1529.27600	         8.17916e+57
          1530.08230	         7.47199e+57
          1530.88860	         6.89207e+57
          1531.69490	         7.88666e+57
          1532.50120	         9.26917e+57
          1533.30750	         9.45803e+57
          1534.11380	         9.55780e+57
          1534.92010	         9.81992e+57
          1535.72640	         9.50489e+57
          1536.53270	         8.69822e+57
          1537.33900	         7.86029e+57
          1538.14530	         8.72179e+57
          1538.95160	         9.20688e+57
          1539.75790	         8.68347e+57
          1540.56420	         7.54650e+57
          1541.37050	         8.31210e+57
          1542.17680	         8.86189e+57
          1542.98310	         7.82043e+57
          1543.78940	         6.64933e+57
          1544.59570	         5.88009e+57
          1545.40200	         7.32774e+57
          1546.20830	         1.00126e+58
          1547.01460	         1.15613e+58
          1547.82090	         1.14488e+58
          1548.62720	         1.23981e+58
          1549.43350	         1.19215e+58
          1550.23980	         1.12655e+58
          1551.04610	         1.20383e+58
          1551.85240	         1.18866e+58
          1552.65870	         1.14000e+58
          1553.46500	         1.01432e+58
          1554.27130	         9.41978e+57
          1555.07760	         9.98045e+57
          1555.88390	         8.83077e+57
          1556.69020	         9.03749e+57
          1557.49650	         9.68606e+57
          1558.30280	         8.83854e+57
          1559.10910	         8.20955e+57
          1559.91540	         8.62304e+57
          1560.72170	         8.74852e+57
          1561.52800	         8.05692e+57
          1562.33430	         7.87269e+57
          1563.14060	         7.78892e+57
          1563.94690	         7.48953e+57
          1564.75320	         7.94959e+57
          1565.55950	         8.03480e+57
          1566.36580	         8.08998e+57
          1567.17210	         1.04259e+58
          1567.97840	         9.81478e+57
          1568.78470	         8.92648e+57
          1569.59100	         9.94998e+57
          1570.39730	         8.69871e+57
          1571.20360	         6.94079e+57
          1572.00990	         7.94186e+57
          1572.81620	         9.17271e+57
          1573.62250	         9.69030e+57
          1574.42880	         9.66539e+57
          1575.23510	         7.94905e+57
          1576.04140	         8.54787e+57
          1576.84770	         9.41882e+57
          1577.65400	         8.65124e+57
          1578.46030	         8.57860e+57
          1579.26660	         1.08799e+58
          1580.07290	         9.83399e+57
          1580.87920	         7.85316e+57
          1581.68550	         7.59224e+57
          1582.49180	         8.29260e+57
          1583.29810	         8.38369e+57
          1584.10440	         8.95643e+57
          1584.91070	         9.09747e+57
          1585.71700	         8.86528e+57
          1586.52330	         8.80145e+57
          1587.32960	         9.89829e+57
          1588.13590	         1.00271e+58
          1588.94220	         8.04378e+57
          1589.74850	         8.61858e+57
          1590.55480	         9.64417e+57
          1591.36110	         9.09647e+57
          1592.16740	         8.36094e+57
          1592.97370	         8.04566e+57
          1593.78000	         8.45647e+57
          1594.58630	         8.87942e+57
          1595.39260	         8.56796e+57
          1596.19890	         9.39826e+57
          1597.00520	         8.90489e+57
          1597.81150	         8.42751e+57
          1598.61780	         7.19501e+57
          1599.42410	         6.43308e+57
          1600.23040	         6.73437e+57
          1601.03670	         8.21893e+57
          1601.84300	         8.02443e+57
          1602.64930	         8.86300e+57
          1603.45560	         9.33745e+57
          1604.26190	         7.87677e+57
          1605.06820	         7.35579e+57
          1605.87450	         7.95544e+57
          1606.68080	         7.69000e+57
          1607.48710	         5.94799e+57
          1608.29340	         6.03306e+57
          1609.09970	         7.34964e+57
          1609.90600	         7.49052e+57
          1610.71230	         6.79433e+57
          1611.51860	         6.47112e+57
          1612.32490	         6.64137e+57
          1613.13120	         7.41926e+57
          1613.93750	         7.44488e+57
          1614.74380	         7.86148e+57
          1615.55010	         7.77390e+57
          1616.35640	         9.45893e+57
          1617.16270	         1.03630e+58
          1617.96900	         1.07874e+58
          1618.77530	         9.10885e+57
          1619.58160	         8.34349e+57
          1620.38790	         7.98485e+57
          1621.19420	         8.77708e+57
          1622.00050	         8.00077e+57
          1622.80680	         8.94574e+57
          1623.61310	         9.03860e+57
          1624.41940	         8.83992e+57
          1625.22570	         1.02598e+58
          1626.03200	         8.67244e+57
          1626.83830	         7.26891e+57
          1627.64460	         6.96833e+57
          1628.45090	         6.37277e+57
          1629.25720	         8.74190e+57
          1630.06350	         9.97347e+57
          1630.86980	         6.23511e+57
          1631.67610	         7.05929e+57
          1632.48240	         9.15305e+57
          1633.28870	         8.57538e+57
          1634.09500	         9.26345e+57
          1634.90130	         1.10485e+58
          1635.70760	         9.82225e+57
          1636.51390	         8.36987e+57
          1637.32020	         7.75971e+57
          1638.12650	         8.81251e+57
          1638.93280	         1.00470e+58
          1639.73910	         9.86032e+57
          1640.54540	         9.46369e+57
          1641.35170	         8.72992e+57
          1642.15800	         8.34641e+57
          1642.96430	         8.76624e+57
          1643.77060	         9.43419e+57
          1644.57690	         8.87116e+57
          1645.38320	         9.28498e+57
          1646.18950	         8.33496e+57
          1646.99580	         9.10941e+57
          1647.80210	         8.12079e+57
          1648.60840	         7.57164e+57
          1649.41470	         9.34766e+57
          1650.22100	         8.01434e+57
          1651.02730	         6.91824e+57
          1651.83360	         7.36312e+57
          1652.63990	         8.18014e+57
          1653.44620	         8.02591e+57
          1654.25250	         7.68355e+57
          1655.05880	         7.41728e+57
          1655.86510	         8.22871e+57
          1656.67140	         8.12562e+57
          1657.47770	         7.96492e+57
          1658.28400	         8.39187e+57
          1659.09030	         8.63747e+57
          1659.89660	         9.17664e+57
          1660.70290	         9.68210e+57
          1661.50920	         8.98567e+57
          1662.31550	         8.69281e+57
          1663.12180	         8.09986e+57
          1663.92810	         9.91114e+57
          1664.73440	         1.17025e+58
          1665.54070	         1.23021e+58
          1666.34700	         1.28387e+58
          1667.15330	         1.13133e+58
          1667.95960	         9.17653e+57
          1668.76590	         7.21422e+57
          1669.57220	         7.29904e+57
          1670.37850	         7.50379e+57
          1671.18480	         7.14766e+57
          1671.99110	         7.80113e+57
          1672.79740	         7.49085e+57
          1673.60370	         6.07389e+57
          1674.41000	         6.35095e+57
          1675.21630	         7.05460e+57
          1676.02260	         7.94059e+57
          1676.82890	         7.23489e+57
          1677.63520	         7.06094e+57
          1678.44150	         7.47974e+57
          1679.24780	         8.99504e+57
          1680.05410	         7.93325e+57
          1680.86040	         5.95732e+57
          1681.66670	         7.65875e+57
          1682.47300	         8.90133e+57
          1683.27930	         8.22890e+57
          1684.08560	         8.15823e+57
          1684.89190	         7.48738e+57
          1685.69820	         5.89987e+57
          1686.50450	         4.70020e+57
          1687.31080	         5.49267e+57
          1688.11710	         7.58545e+57
          1688.92340	         7.03360e+57
          1689.72970	         6.66924e+57
          1690.53600	         7.14932e+57
          1691.34230	         7.23433e+57
          1692.14860	         6.93155e+57
          1692.95490	         7.40433e+57
          1693.76120	         7.10679e+57
          1694.56750	         8.33683e+57
          1695.37380	         1.01492e+58
          1696.18010	         9.71623e+57
          1696.98640	         8.41202e+57
          1697.79270	         8.36510e+57
          1698.59900	         7.84000e+57
          1699.40530	         6.33905e+57
          1700.21160	         6.78401e+57
          1701.01790	         8.07466e+57
          1701.82420	         7.72950e+57
          1702.63050	         7.48891e+57
          1703.43680	         6.42358e+57
          1704.24310	         6.40025e+57
          1705.04940	         8.04771e+57
          1705.85570	         7.65580e+57
          1706.66200	         7.23545e+57
          1707.46830	         7.16899e+57
          1708.27460	         7.94441e+57
          1709.08090	         7.14165e+57
          1709.88720	         6.05647e+57
          1710.69350	         5.46467e+57
          1711.49980	         6.42608e+57
          1712.30610	         7.53605e+57
          1713.11240	         8.49332e+57
          1713.91870	         7.90477e+57
          1714.72500	         8.74671e+57
          1715.53130	         9.00630e+57
          1716.33760	         8.52086e+57
          1717.14390	         7.95594e+57
          1717.95020	         8.26035e+57
          1718.75650	         8.45240e+57
          1719.56280	         8.45302e+57
          1720.36910	         7.31641e+57
          1721.17540	         7.02793e+57
          1721.98170	         6.63220e+57
          1722.78800	         6.55343e+57
          1723.59430	         7.27644e+57
          1724.40060	         8.64911e+57
          1725.20690	         8.97780e+57
          1726.01320	         8.77304e+57
          1726.81950	         8.11927e+57
          1727.62580	         7.77122e+57
          1728.43210	         7.55836e+57
          1729.23840	         7.87655e+57
          1730.04470	         8.60478e+57
          1730.85100	         8.91351e+57
          1731.65730	         7.99139e+57
          1732.46360	         6.91920e+57
          1733.26990	         6.85908e+57
          1734.07620	         7.15653e+57
          1734.88250	         7.19069e+57
          1735.68880	         7.16437e+57
          1736.49510	         8.39240e+57
          1737.30140	         7.84139e+57
          1738.10770	         6.38991e+57
          1738.91400	         7.03095e+57
          1739.72030	         6.66760e+57
          1740.52660	         5.82907e+57
          1741.33290	         5.29994e+57
          1742.13920	         5.97654e+57
          1742.94550	         7.17920e+57
          1743.75180	         7.76996e+57
          1744.55810	         7.90388e+57
          1745.36440	         7.69094e+57
          1746.17070	         5.48162e+57
          1746.97700	         5.43754e+57
          1747.78330	         6.98435e+57
          1748.58960	         6.93315e+57
          1749.39590	         6.87141e+57
          1750.20220	         6.23189e+57
          1751.00850	         5.21393e+57
          1751.81480	         5.99671e+57
          1752.62110	         6.95382e+57
          1753.42740	         7.90734e+57
          1754.23370	         6.79713e+57
          1755.04000	         6.29944e+57
          1755.84630	         7.10555e+57
          1756.65260	         8.74649e+57
          1757.45890	         8.45333e+57
          1758.26520	         7.39948e+57
          1759.07150	         8.50866e+57
          1759.87780	         8.71179e+57
          1760.68410	         8.03405e+57
          1761.49040	         7.98190e+57
          1762.29670	         6.01844e+57
          1763.10300	         6.66070e+57
          1763.90930	         7.63373e+57
          1764.71560	         7.74212e+57
          1765.52190	         7.97930e+57
          1766.32820	         8.69376e+57
          1767.13450	         7.34289e+57
          1767.94080	         6.94024e+57
          1768.74710	         7.06230e+57
          1769.55340	         6.96765e+57
          1770.35970	         6.87988e+57
          1771.16600	         6.55399e+57
          1771.97230	         7.83475e+57
          1772.77860	         8.80282e+57
          1773.58490	         7.12117e+57
          1774.39120	         5.18989e+57
          1775.19750	         5.57922e+57
          1776.00380	         6.56777e+57
          1776.81010	         7.46456e+57
          1777.61640	         7.18662e+57
          1778.42270	         6.81771e+57
          1779.22900	         6.65747e+57
          1780.03530	         7.09622e+57
          1780.84160	         8.27165e+57
          1781.64790	         8.44952e+57
          1782.45420	         6.73546e+57
          1783.26050	         6.17184e+57
          1784.06680	         7.24768e+57
          1784.87310	         6.89743e+57
          1785.67940	         7.07164e+57
          1786.48570	         6.22804e+57
          1787.29200	         6.61759e+57
          1788.09830	         6.27246e+57
          1788.90460	         5.46168e+57
          1789.71090	         5.30562e+57
          1790.51720	         5.12457e+57
          1791.32350	         7.36585e+57
          1792.12980	         8.91051e+57
          1792.93610	         8.15416e+57
          1793.74240	         7.41351e+57
          1794.54870	         7.74490e+57
          1795.35500	         8.31576e+57
          1796.16130	         7.84646e+57
          1796.96760	         7.12556e+57
          1797.77390	         6.62208e+57
          1798.58020	         6.24917e+57
          1799.38650	         6.46956e+57
          1800.19280	         6.56128e+57
          1800.99910	         6.63847e+57
          1801.80540	         6.73175e+57
          1802.61170	         7.48668e+57
          1803.41800	         8.38635e+57
          1804.22430	         7.31402e+57
          1805.03060	         6.57426e+57
          1805.83690	         7.74349e+57
          1806.64320	         8.87738e+57
          1807.44950	         8.50093e+57
          1808.25580	         7.32398e+57
          1809.06210	         8.69426e+57
          1809.86840	         7.82484e+57
          1810.67470	         8.38450e+57
          1811.48100	         9.57712e+57
          1812.28730	         9.06250e+57
          1813.09360	         7.85742e+57
          1813.89990	         7.74982e+57
          1814.70620	         7.54085e+57
          1815.51250	         8.57897e+57
          1816.31880	         8.28646e+57
          1817.12510	         7.53938e+57
          1817.93140	         6.42533e+57
          1818.73770	         7.10174e+57
          1819.54400	         8.50903e+57
          1820.35030	         8.36807e+57
          1821.15660	         6.34248e+57
          1821.96290	         6.61152e+57
          1822.76920	         6.86405e+57
          1823.57550	         7.01568e+57
          1824.38180	         7.81989e+57
          1825.18810	         7.81850e+57
          1825.99440	         8.00579e+57
          1826.80070	         7.49195e+57
          1827.60700	         6.36344e+57
          1828.41330	         5.56194e+57
          1829.21960	         5.61634e+57
          1830.02590	         6.10049e+57
          1830.83220	         7.86332e+57
          1831.63850	         7.53395e+57
          1832.44480	         7.39569e+57
          1833.25110	         8.12835e+57
          1834.05740	         8.05609e+57
          1834.86370	         7.57119e+57
          1835.67000	         6.30153e+57
          1836.47630	         7.68304e+57
          1837.28260	         8.86581e+57
          1838.08890	         8.77605e+57
          1838.89520	         8.50034e+57
          1839.70150	         8.35346e+57
          1840.50780	         8.07061e+57
          1841.31410	         7.41863e+57
          1842.12040	         7.08421e+57
          1842.92670	         6.39922e+57
          1843.73300	         5.79311e+57
          1844.53930	         6.57745e+57
          1845.34560	         6.74740e+57
          1846.15190	         6.26500e+57
          1846.95820	         7.14060e+57
          1847.76450	         7.05578e+57
          1848.57080	         5.47018e+57
          1849.37710	         6.85986e+57
          1850.18340	         7.83255e+57
          1850.98970	         8.50838e+57
          1851.79600	         8.22029e+57
          1852.60230	         7.16714e+57
          1853.40860	         6.77343e+57
          1854.21490	         6.82046e+57
          1855.02120	         4.99955e+57
          1855.82750	         3.59365e+57
          1856.63380	         5.79237e+57
          1857.44010	         6.81099e+57
          1858.24640	         6.86032e+57
          1859.05270	         7.33006e+57
          1859.85900	         6.15557e+57
          1860.66530	         6.05700e+57
          1861.47160	         6.64086e+57
          1862.27790	         6.41812e+57
          1863.08420	         7.63066e+57
          1863.89050	         8.37206e+57
          1864.69680	         7.44313e+57
          1865.50310	         7.32141e+57
          1866.30940	         6.06317e+57
          1867.11570	         6.66047e+57
          1867.92200	         8.03603e+57
          1868.72830	         7.39405e+57
          1869.53460	         6.05465e+57
          1870.34090	         6.91261e+57
          1871.14720	         7.70297e+57
          1871.95350	         8.01289e+57
          1872.75980	         7.99946e+57
          1873.56610	         5.93848e+57
          1874.37240	         5.31979e+57
          1875.17870	         5.51403e+57
          1875.98500	         6.72978e+57
          1876.79130	         7.35773e+57
          1877.59760	         6.33740e+57
          1878.40390	         5.42113e+57
          1879.21020	         6.15903e+57
          1880.01650	         7.29580e+57
          1880.82280	         8.11441e+57
          1881.62910	         9.72257e+57
          1882.43540	         9.84658e+57
          1883.24170	         8.08342e+57
          1884.04800	         6.94957e+57
          1884.85430	         7.38024e+57
          1885.66060	         8.58643e+57
          1886.46690	         8.25254e+57
          1887.27320	         7.62455e+57
          1888.07950	         6.88390e+57
          1888.88580	         6.94767e+57
          1889.69210	         8.70518e+57
          1890.49840	         8.45280e+57
          1891.30470	         7.95980e+57
          1892.11100	         8.50948e+57
          1892.91730	         8.00760e+57
          1893.72360	         7.20497e+57
          1894.52990	         6.60676e+57
          1895.33620	         8.49746e+57
          1896.14250	         8.68624e+57
          1896.94880	         7.70265e+57
          1897.75510	         5.76103e+57
          1898.56140	         6.03631e+57
          1899.36770	         7.50740e+57
          1900.17400	         7.20898e+57
          1900.98030	         6.74724e+57
          1901.78660	         7.25199e+57
          1902.59290	         7.04749e+57
          1903.39920	         8.09928e+57
          1904.20550	         9.16977e+57
          1905.01180	         9.31019e+57
          1905.81810	         9.87228e+57
          1906.62440	         1.15894e+58
          1907.43070	         1.50284e+58
          1908.23700	         1.64391e+58
          1909.04330	         1.31804e+58
          1909.84960	         1.07657e+58
          1910.65590	         9.91959e+57
          1911.46220	         9.72003e+57
          1912.26850	         8.50806e+57
          1913.07480	         6.43615e+57
          1913.88110	         5.86925e+57
          1914.68740	         6.20238e+57
          1915.49370	         5.62626e+57
          1916.30000	         6.12913e+57
          1917.10630	         6.53039e+57
          1917.91260	         7.05724e+57
          1918.71890	         6.97626e+57
          1919.52520	         6.20723e+57
          1920.33150	         6.10607e+57
          1921.13780	         6.86320e+57
          1921.94410	         8.35106e+57
          1922.75040	         7.48261e+57
          1923.55670	         7.71282e+57
          1924.36300	         8.82895e+57
          1925.16930	         6.55933e+57
          1925.97560	         5.88647e+57
          1926.78190	         4.77819e+57
          1927.58820	         5.72597e+57
          1928.39450	         5.72563e+57
          1929.20080	         4.92470e+57
          1930.00710	         7.35294e+57
          1930.81340	         8.26058e+57
          1931.61970	         8.19829e+57
          1932.42600	         6.52184e+57
          1933.23230	         6.97915e+57
          1934.03860	         7.58537e+57
          1934.84490	         6.93335e+57
          1935.65120	         7.95674e+57
          1936.45750	         7.84194e+57
          1937.26380	         6.06568e+57
          1938.07010	         7.07880e+57
          1938.87640	         7.59668e+57
          1939.68270	         7.97543e+57
          1940.48900	         8.05100e+57
          1941.29530	         7.83624e+57
          1942.10160	         8.02285e+57
          1942.90790	         6.98132e+57
          1943.71420	         5.43687e+57
          1944.52050	         5.53306e+57
          1945.32680	         5.29149e+57
          1946.13310	         6.50509e+57
          1946.93940	         7.51215e+57
          1947.74570	         6.69898e+57
          1948.55200	         5.63626e+57
          1949.35830	         6.03835e+57
          1950.16460	         5.75363e+57
          1950.97090	         6.28369e+57
          1951.77720	         7.99759e+57
          1952.58350	         8.89419e+57
          1953.38980	         6.48658e+57
          1954.19610	         4.64886e+57
          1955.00240	         5.35633e+57
          1955.80870	         6.45004e+57
          1956.61500	         6.11195e+57
          1957.42130	         6.46899e+57
          1958.22760	         7.76745e+57
          1959.03390	         7.52469e+57
          1959.84020	         7.95322e+57
          1960.64650	         7.90201e+57
          1961.45280	         6.54237e+57
          1962.25910	         6.19128e+57
          1963.06540	         7.83305e+57
          1963.87170	         7.83385e+57
          1964.67800	         7.78932e+57
          1965.48430	         7.07147e+57
          1966.29060	         6.61031e+57
          1967.09690	         7.57419e+57
          1967.90320	         6.60048e+57
          1968.70950	         7.41844e+57
          1969.51580	         5.92984e+57
          1970.32210	         6.82613e+57
          1971.12840	         6.82206e+57
          1971.93470	         4.68165e+57
          1972.74100	         4.87396e+57
          1973.54730	         6.00538e+57
          1974.35360	         7.64983e+57
          1975.15990	         7.26983e+57
          1975.96620	         6.87618e+57
          1976.77250	         8.00198e+57
          1977.57880	         7.84189e+57
          1978.38510	         6.85481e+57
          1979.19140	         6.28632e+57
          1979.99770	         6.70595e+57
          1980.80400	         7.70476e+57
          1981.61030	         6.30208e+57
          1982.41660	         5.24492e+57
          1983.22290	         5.04698e+57
          1984.02920	         6.01765e+57
          1984.83550	         6.29606e+57
          1985.64180	         6.36644e+57
          1986.44810	         6.54543e+57
          1987.25440	         6.11014e+57
          1988.06070	         5.79477e+57
          1988.86700	         6.56083e+57
          1989.67330	         7.48667e+57
          1990.47960	         6.72998e+57
          1991.28590	         5.65588e+57
          1992.09220	         5.82765e+57
          1992.89850	         6.37837e+57
          1993.70480	         5.88476e+57
          1994.51110	         4.70915e+57
          1995.31740	         4.73925e+57
          1996.12370	         5.50004e+57
          1996.93000	         6.57619e+57
          1997.73630	         6.84593e+57
          1998.54260	         8.14757e+57
          1999.34890	         6.99729e+57
          2000.15520	         6.62025e+57
          2000.96150	         6.31561e+57
          2001.76780	         6.21911e+57
          2002.57410	         5.34419e+57
          2003.38040	         6.50916e+57
          2004.18670	         7.11061e+57
          2004.99300	         5.74065e+57
          2005.79930	         6.63817e+57
          2006.60560	         7.04688e+57
          2007.41190	         6.64370e+57
          2008.21820	         6.43723e+57
          2009.02450	         5.54894e+57
          2009.83080	         6.30141e+57
          2010.63710	         6.89533e+57
          2011.44340	         7.33959e+57
          2012.24970	         7.36059e+57
          2013.05600	         7.09921e+57
          2013.86230	         6.52161e+57
          2014.66860	         6.10045e+57
          2015.47490	         5.73832e+57
          2016.28120	         5.59837e+57
          2017.08750	         6.15793e+57
          2017.89380	         6.60705e+57
          2018.70010	         5.24259e+57
          2019.50640	         5.26100e+57
          2020.31270	         6.09407e+57
          2021.11900	         6.84504e+57
          2021.92530	         6.66465e+57
          2022.73160	         7.90271e+57
          2023.53790	         6.91774e+57
          2024.34420	         6.23859e+57
          2025.15050	         4.84030e+57
          2025.95680	         5.52371e+57
          2026.76310	         6.64338e+57
          2027.56940	         5.56095e+57
          2028.37570	         6.78628e+57
          2029.18200	         6.67949e+57
          2029.98830	         4.85206e+57
          2030.79460	         5.78264e+57
          2031.60090	         5.89868e+57
          2032.40720	         5.86344e+57
          2033.21350	         7.06779e+57
          2034.01980	         6.53182e+57
          2034.82610	         5.42017e+57
          2035.63240	         5.76145e+57
          2036.43870	         6.72134e+57
          2037.24500	         6.82746e+57
          2038.05130	         7.05514e+57
          2038.85760	         5.75933e+57
          2039.66390	         5.98847e+57
          2040.47020	         5.08688e+57
          2041.27650	         5.21838e+57
          2042.08280	         4.67655e+57
          2042.88910	         6.30981e+57
          2043.69540	         6.29984e+57
          2044.50170	         6.57577e+57
          2045.30800	         5.93579e+57
          2046.11430	         5.11506e+57
          2046.92060	         5.85654e+57
          2047.72690	         6.42017e+57
          2048.53320	         5.77138e+57
          2049.33950	         4.71943e+57
          2050.14580	         6.31652e+57
          2050.95210	         7.09983e+57
          2051.75840	         7.59745e+57
          2052.56470	         4.95667e+57
          2053.37100	         3.98167e+57
          2054.17730	         5.39042e+57
          2054.98360	         5.34120e+57
          2055.78990	         3.41571e+57
          2056.59620	         3.19974e+57
          2057.40250	         5.25656e+57
          2058.20880	         7.13413e+57
          2059.01510	         6.14082e+57
          2059.82140	         6.07360e+57
          2060.62770	         9.62125e+57
          2061.43400	         1.44916e+58
          2062.24030	         1.18233e+58
          2063.04660	         6.36879e+57
          2063.85290	         2.43836e+57
          2064.65920	        -2.96326e+57
          2065.46550	        -8.07430e+57
          2066.27180	        -6.83313e+57
          2067.07810	         3.08505e+57
          2067.88440	         6.36681e+57
          2068.69070	         6.81716e+57
          2069.49700	         6.27857e+57
          2070.30330	         4.95546e+57
          2071.10960	         5.29987e+57
          2071.91590	         6.09509e+57
          2072.72220	         3.93306e+57
          2073.52850	         5.15647e+57
          2074.33480	         5.25549e+57
          2075.14110	         4.53760e+57
          2075.94740	         3.13460e+57
          2076.75370	         4.89795e+57
          2077.56000	         5.35565e+57
          2078.36630	         6.34064e+57
          2079.17260	         5.84656e+57
          2079.97890	         5.67603e+57
          2080.78520	         4.47055e+57
          2081.59150	         5.22440e+57
          2082.39780	         5.27638e+57
          2083.20410	         4.00949e+57
          2084.01040	         2.04484e+57
          2084.81670	         3.42902e+57
          2085.62300	         4.17525e+57
          2086.42930	         2.93815e+57
          2087.23560	         4.11623e+57
          2088.04190	         3.66670e+57
          2088.84820	         3.88304e+57
          2089.65450	         2.72790e+57
          2090.46080	         1.29326e+57
          2091.26710	         2.94037e+57
          2092.07340	         3.85784e+57
          2092.87970	         1.66819e+57
          2093.68600	        -1.80643e+56
          2094.49230	         1.21172e+56
          2095.29860	         4.36813e+57
          2096.10490	         3.38655e+57
          2096.91120	         7.22379e+56
          2097.71750	         1.68093e+56
          2098.52380	        -1.98487e+56
          2099.33010	         1.31485e+57
          2100.13640	         1.97642e+57
          2100.94270	         1.63683e+57
          2101.74900	         2.79041e+57
          2102.55530	         3.62983e+57
          2103.36160	         3.85082e+57
          2104.16790	         2.91132e+57
          2104.97420	         1.45095e+57
          2105.78050	         3.92555e+57
          2106.58680	         1.81443e+57
          2107.39310	        -2.01771e+56
          2108.19940	         2.53250e+57
          2109.00570	         6.76669e+56
          2109.81200	         1.20949e+56
          2110.61830	         7.22996e+56
          2111.42460	        -5.80380e+56
          2112.23090	         1.89651e+57
          2113.03720	         7.32603e+56
          2113.84350	        -1.42658e+57
          2114.64980	         6.61859e+57
          2115.45610	         7.45479e+56
          2116.26240	         3.17341e+57
          2117.06870	         3.23603e+55
          2117.87500	         2.55015e+57
          2118.68130	         1.33811e+56
          2119.48760	        -3.89444e+56
          2120.29390	        -1.68741e+57
          2121.10020	        -5.06481e+57
          2121.90650	        -1.87954e+57
          2122.71280	         1.32423e+57
          2123.51910	         1.61556e+57
          2124.32540	         1.07478e+57
          2125.13170	        -1.76080e+56
          2125.93800	         2.17416e+57
          2126.74430	         2.81423e+56
          2127.55060	        -3.19972e+57
          2128.35690	        -4.00696e+57
          2129.16320	        -6.67474e+57
          2129.96950	        -3.67695e+57
          2130.77580	         1.27156e+57
          2131.58210	         4.31669e+57
          2132.38840	        -2.59928e+57
          2133.19470	        -3.96131e+57
          2134.00100	        -5.66721e+56
          2134.80730	        -4.32770e+57
          2135.61360	         5.19522e+57
          2136.41990	         8.51778e+57
          2137.22620	        -3.29730e+56
          2138.03250	         1.24486e+57
          2138.83880	        -1.25492e+58
          2139.64510	        -4.55733e+57
          2140.45140	        -2.24517e+56
          2141.25770	        -1.03798e+58
          2142.06400	        -3.19586e+57
          2142.87030	         3.40441e+57
          2143.67660	         1.03897e+58
          2144.48290	         1.44483e+58
          2145.28920	         1.45361e+58
          2146.09550	         6.14600e+57
          2146.90180	        -3.21412e+57
          2147.70810	        -7.73836e+57
          2148.51440	        -1.01962e+58
          2149.32070	        -1.39169e+58
          2150.12700	        -1.14637e+58
          2150.93330	         6.68972e+56
          2151.73960	        -1.60584e+57
          2152.54590	        -1.00527e+58
          2153.35220	        -1.95177e+56
          2154.15850	        -5.00115e+57
          2154.96480	        -4.30596e+57
          2155.77110	        -4.09874e+57
          2156.57740	         6.97626e+56
          2157.38370	         8.16705e+56
          2158.19000	        -2.37221e+57
          2158.99630	        -6.07812e+57
          2159.80260	        -1.55001e+58
          2160.60890	        -1.57623e+58
          2161.41520	         1.29232e+56
          2162.22150	         8.91386e+56
          2163.02780	         3.27234e+57
          2163.83410	        -6.92815e+57
          2164.64040	         1.79174e+57
          2165.44670	        -8.39706e+57
          2166.25300	        -2.31708e+57
          2167.05930	        -8.46421e+57
          2167.86560	        -1.49150e+58
          2168.67190	        -1.16057e+58
          2169.47820	        -1.15851e+58
          2170.28450	        -1.12523e+58
          2171.09080	        -3.01771e+57
          2171.89710	        -1.75173e+57
          2172.70340	         3.21247e+57
          2173.50970	        -1.70236e+58
          2174.31600	        -3.79969e+57
          2175.12230	        -2.25647e+56
          2175.92860	         1.15153e+56
          2176.73490	        -3.92990e+57
          2177.54120	        -8.18410e+57
          2178.34750	        -4.07233e+57
          2179.15380	                 nan
          2179.96010	                 nan
          2180.76640	                 nan
          2181.57270	                 nan
          2182.37900	                 nan
          2183.18530	                 nan
          2183.99160	                 nan
          2184.79790	                 nan
          2185.60420	                 nan
          2186.41050	                 nan
          2187.21680	                 nan
          2188.02310	                 nan
          2188.82940	                 nan
          2189.63570	                 nan
          2190.44200	                 nan
          2191.24830	                 nan
          2192.05460	                 nan
          2192.86090	                 nan
          2193.66720	                 nan
          2194.47350	                 nan
          2195.27980	                 nan
          2196.08610	                 nan
          2196.89240	                 nan
          2197.69870	                 nan
          2198.50500	                 nan
          2199.31130	                 nan
          2200.11760	                 nan
          2200.92390	                 nan
          2201.73020	                 nan
          2202.53650	                 nan
          2203.34280	                 nan
          2204.14910	                 nan
          2204.95540	                 nan
          2205.76170	                 nan
          2206.56800	                 nan
          2207.37430	                 nan
          2208.18060	                 nan
          2208.98690	                 nan
          2209.79320	                 nan
          2210.59950	                 nan
          2211.40580	                 nan
          2212.21210	                 nan
          2213.01840	                 nan
          2213.82470	                 nan
          2214.63100	                 nan
          2215.43730	         0.00000e+00
