#sample_136_stacked_spectrum_rest_UV-bands_median_H-alpha_noDC.txt
#median Lum: 1.69039e+42
#Rest-frame wavelength (A) | Luminosity (erg/s/A)
#
          1110.00000	         0.00000e+00
          1110.80630	         1.17553e+59
          1111.61260	         1.19790e+59
          1112.41890	        -3.51532e+58
          1113.22520	        -4.79897e+58
          1114.03150	        -6.74055e+58
          1114.83780	         2.87178e+59
          1115.64410	         1.02329e+59
          1116.45040	         1.76143e+59
          1117.25670	         5.21816e+58
          1118.06300	         2.19520e+59
          1118.86930	         2.25213e+58
          1119.67560	         1.02811e+59
          1120.48190	         5.85875e+58
          1121.28820	        -6.27692e+58
          1122.09450	         8.10596e+57
          1122.90080	        -1.09272e+59
          1123.70710	         6.18321e+58
          1124.51340	         7.54649e+58
          1125.31970	        -1.88967e+58
          1126.12600	         7.46749e+58
          1126.93230	        -6.53404e+58
          1127.73860	        -8.91043e+58
          1128.54490	         7.77125e+57
          1129.35120	        -2.14865e+58
          1130.15750	        -3.03735e+58
          1130.96380	        -3.22082e+58
          1131.77010	         4.55049e+58
          1132.57640	         2.89902e+58
          1133.38270	         4.71203e+58
          1134.18900	         2.19369e+58
          1134.99530	         3.37868e+58
          1135.80160	        -5.44942e+56
          1136.60790	        -1.34948e+58
          1137.41420	         8.32200e+57
          1138.22050	         4.05754e+58
          1139.02680	         3.02408e+58
          1139.83310	         1.78459e+57
          1140.63940	         1.81895e+58
          1141.44570	        -1.35193e+58
          1142.25200	        -5.17283e+57
          1143.05830	         3.35720e+58
          1143.86460	         4.21768e+58
          1144.67090	         1.31102e+58
          1145.47720	         1.09022e+58
          1146.28350	         1.79946e+58
          1147.08980	         1.33319e+58
          1147.89610	         2.51878e+58
          1148.70240	         3.75386e+58
          1149.50870	         1.85121e+58
          1150.31500	         8.41792e+56
          1151.12130	         5.71097e+57
          1151.92760	         1.28552e+58
          1152.73390	         5.17311e+57
          1153.54020	         8.59311e+57
          1154.34650	         2.80651e+58
          1155.15280	         1.21818e+58
          1155.95910	         1.10702e+58
          1156.76540	         4.03729e+57
          1157.57170	         1.90199e+57
          1158.37800	         8.37587e+56
          1159.18430	        -8.77941e+56
          1159.99060	         3.82151e+57
          1160.79690	        -1.92867e+57
          1161.60320	         1.13740e+58
          1162.40950	         1.79006e+58
          1163.21580	         2.43789e+57
          1164.02210	         7.71303e+57
          1164.82840	         5.44058e+57
          1165.63470	         1.82533e+58
          1166.44100	         3.32577e+58
          1167.24730	         2.04395e+58
          1168.05360	         1.15718e+58
          1168.85990	         2.89437e+57
          1169.66620	         1.06147e+58
          1170.47250	         1.53686e+58
          1171.27880	         1.31121e+58
          1172.08510	         1.55975e+58
          1172.89140	         1.05444e+58
          1173.69770	         9.31161e+57
          1174.50400	         1.02726e+58
          1175.31030	         1.29027e+58
          1176.11660	         1.39153e+58
          1176.92290	         1.54355e+58
          1177.72920	         1.09817e+58
          1178.53550	         9.47613e+57
          1179.34180	         6.66926e+57
          1180.14810	         2.92551e+57
          1180.95440	         8.39561e+57
          1181.76070	         8.69103e+57
          1182.56700	         8.72943e+57
          1183.37330	         8.25941e+57
          1184.17960	         1.00875e+58
          1184.98590	         1.15236e+58
          1185.79220	         9.15441e+57
          1186.59850	         1.04783e+58
          1187.40480	         5.67505e+57
          1188.21110	         1.41500e+58
          1189.01740	         1.46778e+58
          1189.82370	         1.17115e+58
          1190.63000	         1.48948e+58
          1191.43630	         1.12909e+58
          1192.24260	         9.57653e+57
          1193.04890	         1.24593e+58
          1193.85520	         1.15177e+58
          1194.66150	         2.46607e+57
          1195.46780	         9.69321e+57
          1196.27410	         1.80977e+58
          1197.08040	         1.10428e+58
          1197.88670	         1.31003e+58
          1198.69300	         1.63825e+58
          1199.49930	         1.96232e+58
          1200.30560	         1.49663e+58
          1201.11190	         1.10800e+58
          1201.91820	         1.12015e+58
          1202.72450	         9.22427e+57
          1203.53080	         1.11746e+58
          1204.33710	         8.87966e+57
          1205.14340	         1.02690e+58
          1205.94970	         5.66989e+57
          1206.75600	         7.53831e+57
          1207.56230	         3.46999e+57
          1208.36860	         8.35533e+57
          1209.17490	         4.81333e+57
          1209.98120	         6.93553e+57
          1210.78750	         5.81430e+57
          1211.59380	         1.25543e+58
          1212.40010	         1.82944e+58
          1213.20640	         2.26598e+58
          1214.01270	         2.12447e+58
          1214.81900	         2.62918e+58
          1215.62530	         4.59828e+58
          1216.43160	         9.16377e+58
          1217.23790	         1.49897e+59
          1218.04420	         1.11865e+59
          1218.85050	         8.97974e+58
          1219.65680	         6.03762e+58
          1220.46310	         3.46797e+58
          1221.26940	         2.36280e+58
          1222.07570	         1.35225e+58
          1222.88200	         1.15614e+58
          1223.68830	         1.24215e+58
          1224.49460	         9.54876e+57
          1225.30090	         7.01312e+57
          1226.10720	         7.11648e+57
          1226.91350	         8.63073e+57
          1227.71980	         8.17899e+57
          1228.52610	         1.30780e+58
          1229.33240	         1.04400e+58
          1230.13870	         9.63733e+57
          1230.94500	         9.50445e+57
          1231.75130	         4.35657e+57
          1232.55760	         6.51949e+57
          1233.36390	         9.46471e+57
          1234.17020	         9.46852e+57
          1234.97650	         9.22280e+57
          1235.78280	         1.00181e+58
          1236.58910	         8.78208e+57
          1237.39540	         8.53285e+57
          1238.20170	         8.33576e+57
          1239.00800	         1.35447e+58
          1239.81430	         1.80135e+58
          1240.62060	         1.17254e+58
          1241.42690	         1.00175e+58
          1242.23320	         1.27315e+58
          1243.03950	         7.60876e+57
          1243.84580	         8.97919e+57
          1244.65210	         1.30940e+58
          1245.45840	         9.94146e+57
          1246.26470	         7.56069e+57
          1247.07100	         6.44260e+57
          1247.87730	         5.12976e+57
          1248.68360	         2.90024e+57
          1249.48990	         5.91523e+57
          1250.29620	         1.07506e+58
          1251.10250	         7.17551e+57
          1251.90880	         4.05914e+57
          1252.71510	         7.82817e+57
          1253.52140	         9.36759e+57
          1254.32770	         1.12533e+58
          1255.13400	         1.50101e+58
          1255.94030	         1.27057e+58
          1256.74660	         1.03692e+58
          1257.55290	         1.11768e+58
          1258.35920	         9.28087e+57
          1259.16550	         4.98797e+57
          1259.97180	         5.15875e+57
          1260.77810	         7.37119e+57
          1261.58440	         1.22179e+58
          1262.39070	         1.12419e+58
          1263.19700	         7.54192e+57
          1264.00330	         9.46643e+57
          1264.80960	         1.25450e+58
          1265.61590	         1.35332e+58
          1266.42220	         1.32372e+58
          1267.22850	         1.09520e+58
          1268.03480	         1.32298e+58
          1268.84110	         1.42711e+58
          1269.64740	         1.17456e+58
          1270.45370	         9.91149e+57
          1271.26000	         1.01844e+58
          1272.06630	         1.23072e+58
          1272.87260	         1.29324e+58
          1273.67890	         1.16975e+58
          1274.48520	         1.10760e+58
          1275.29150	         1.15585e+58
          1276.09780	         1.09241e+58
          1276.90410	         1.28561e+58
          1277.71040	         1.15725e+58
          1278.51670	         1.12024e+58
          1279.32300	         1.43652e+58
          1280.12930	         1.48638e+58
          1280.93560	         1.42402e+58
          1281.74190	         1.24853e+58
          1282.54820	         1.31935e+58
          1283.35450	         1.10221e+58
          1284.16080	         9.46094e+57
          1284.96710	         1.39872e+58
          1285.77340	         1.30334e+58
          1286.57970	         1.25878e+58
          1287.38600	         1.67666e+58
          1288.19230	         1.81620e+58
          1288.99860	         1.26994e+58
          1289.80490	         9.20943e+57
          1290.61120	         1.20378e+58
          1291.41750	         1.20969e+58
          1292.22380	         1.14405e+58
          1293.03010	         1.11420e+58
          1293.83640	         1.16086e+58
          1294.64270	         1.11711e+58
          1295.44900	         9.07602e+57
          1296.25530	         8.03410e+57
          1297.06160	         9.88072e+57
          1297.86790	         1.03198e+58
          1298.67420	         1.00651e+58
          1299.48050	         1.07163e+58
          1300.28680	         1.13001e+58
          1301.09310	         9.30151e+57
          1301.89940	         4.34720e+57
          1302.70570	         5.99139e+57
          1303.51200	         8.09259e+57
          1304.31830	         1.00752e+58
          1305.12460	         1.03138e+58
          1305.93090	         1.05388e+58
          1306.73720	         1.11272e+58
          1307.54350	         1.39783e+58
          1308.34980	         1.46412e+58
          1309.15610	         1.37603e+58
          1309.96240	         1.45572e+58
          1310.76870	         1.41486e+58
          1311.57500	         1.08261e+58
          1312.38130	         1.17498e+58
          1313.18760	         1.37271e+58
          1313.99390	         1.35961e+58
          1314.80020	         1.57349e+58
          1315.60650	         1.57259e+58
          1316.41280	         1.30873e+58
          1317.21910	         1.17815e+58
          1318.02540	         1.24544e+58
          1318.83170	         1.43493e+58
          1319.63800	         1.26455e+58
          1320.44430	         1.22505e+58
          1321.25060	         1.36369e+58
          1322.05690	         1.26295e+58
          1322.86320	         1.08189e+58
          1323.66950	         1.02061e+58
          1324.47580	         9.12709e+57
          1325.28210	         8.60172e+57
          1326.08840	         1.09130e+58
          1326.89470	         1.42007e+58
          1327.70100	         1.16187e+58
          1328.50730	         8.59542e+57
          1329.31360	         1.01008e+58
          1330.11990	         1.06099e+58
          1330.92620	         9.09619e+57
          1331.73250	         9.80991e+57
          1332.53880	         1.03245e+58
          1333.34510	         9.34162e+57
          1334.15140	         9.20872e+57
          1334.95770	         9.55226e+57
          1335.76400	         9.97292e+57
          1336.57030	         1.14473e+58
          1337.37660	         1.11638e+58
          1338.18290	         1.12380e+58
          1338.98920	         1.13941e+58
          1339.79550	         1.17605e+58
          1340.60180	         1.27882e+58
          1341.40810	         1.33986e+58
          1342.21440	         1.19146e+58
          1343.02070	         1.15839e+58
          1343.82700	         1.32033e+58
          1344.63330	         1.21856e+58
          1345.43960	         1.44467e+58
          1346.24590	         1.22732e+58
          1347.05220	         1.19870e+58
          1347.85850	         1.03612e+58
          1348.66480	         1.07815e+58
          1349.47110	         1.25850e+58
          1350.27740	         1.23989e+58
          1351.08370	         1.23983e+58
          1351.89000	         1.27014e+58
          1352.69630	         1.27748e+58
          1353.50260	         1.22312e+58
          1354.30890	         1.19581e+58
          1355.11520	         1.17997e+58
          1355.92150	         1.03597e+58
          1356.72780	         9.60816e+57
          1357.53410	         9.38930e+57
          1358.34040	         1.07297e+58
          1359.14670	         9.25944e+57
          1359.95300	         9.96279e+57
          1360.75930	         1.28908e+58
          1361.56560	         1.09225e+58
          1362.37190	         1.14247e+58
          1363.17820	         1.22716e+58
          1363.98450	         1.12001e+58
          1364.79080	         1.34789e+58
          1365.59710	         1.28647e+58
          1366.40340	         1.22129e+58
          1367.20970	         1.20087e+58
          1368.01600	         1.07844e+58
          1368.82230	         9.62339e+57
          1369.62860	         9.66169e+57
          1370.43490	         8.08448e+57
          1371.24120	         9.21038e+57
          1372.04750	         9.73858e+57
          1372.85380	         1.16738e+58
          1373.66010	         1.15904e+58
          1374.46640	         1.14220e+58
          1375.27270	         1.06513e+58
          1376.07900	         9.04976e+57
          1376.88530	         8.33398e+57
          1377.69160	         9.56811e+57
          1378.49790	         8.71025e+57
          1379.30420	         8.32948e+57
          1380.11050	         9.09609e+57
          1380.91680	         8.16467e+57
          1381.72310	         7.82052e+57
          1382.52940	         8.28938e+57
          1383.33570	         9.45476e+57
          1384.14200	         1.00440e+58
          1384.94830	         1.01881e+58
          1385.75460	         1.17752e+58
          1386.56090	         1.26599e+58
          1387.36720	         1.10398e+58
          1388.17350	         1.07024e+58
          1388.97980	         1.11115e+58
          1389.78610	         1.07226e+58
          1390.59240	         7.74909e+57
          1391.39870	         5.62161e+57
          1392.20500	         8.07575e+57
          1393.01130	         6.91866e+57
          1393.81760	         6.34777e+57
          1394.62390	         7.62141e+57
          1395.43020	         6.39672e+57
          1396.23650	         6.48527e+57
          1397.04280	         8.14014e+57
          1397.84910	         9.52178e+57
          1398.65540	         8.93365e+57
          1399.46170	         1.01092e+58
          1400.26800	         8.79847e+57
          1401.07430	         7.08204e+57
          1401.88060	         7.40039e+57
          1402.68690	         8.67509e+57
          1403.49320	         9.31670e+57
          1404.29950	         8.95109e+57
          1405.10580	         9.45391e+57
          1405.91210	         1.00870e+58
          1406.71840	         1.06730e+58
          1407.52470	         1.11496e+58
          1408.33100	         1.06375e+58
          1409.13730	         1.23019e+58
          1409.94360	         1.18647e+58
          1410.74990	         1.15880e+58
          1411.55620	         1.00094e+58
          1412.36250	         9.40159e+57
          1413.16880	         8.44697e+57
          1413.97510	         7.93934e+57
          1414.78140	         8.24280e+57
          1415.58770	         9.94519e+57
          1416.39400	         1.05603e+58
          1417.20030	         9.33195e+57
          1418.00660	         8.76168e+57
          1418.81290	         1.02674e+58
          1419.61920	         1.08568e+58
          1420.42550	         1.37882e+58
          1421.23180	         1.42524e+58
          1422.03810	         1.20637e+58
          1422.84440	         1.12059e+58
          1423.65070	         1.25580e+58
          1424.45700	         1.19451e+58
          1425.26330	         9.05411e+57
          1426.06960	         8.57829e+57
          1426.87590	         9.71105e+57
          1427.68220	         9.53652e+57
          1428.48850	         9.99864e+57
          1429.29480	         1.05188e+58
          1430.10110	         9.92843e+57
          1430.90740	         8.42428e+57
          1431.71370	         8.21101e+57
          1432.52000	         8.31384e+57
          1433.32630	         7.65332e+57
          1434.13260	         8.20877e+57
          1434.93890	         7.73170e+57
          1435.74520	         8.71002e+57
          1436.55150	         9.64506e+57
          1437.35780	         9.14487e+57
          1438.16410	         9.02076e+57
          1438.97040	         8.61802e+57
          1439.77670	         8.68200e+57
          1440.58300	         9.38392e+57
          1441.38930	         9.34302e+57
          1442.19560	         1.00850e+58
          1443.00190	         9.99978e+57
          1443.80820	         1.02589e+58
          1444.61450	         9.55141e+57
          1445.42080	         9.24108e+57
          1446.22710	         1.03999e+58
          1447.03340	         9.97674e+57
          1447.83970	         1.07712e+58
          1448.64600	         1.16106e+58
          1449.45230	         1.03604e+58
          1450.25860	         9.78029e+57
          1451.06490	         8.35088e+57
          1451.87120	         7.54564e+57
          1452.67750	         7.56874e+57
          1453.48380	         8.99990e+57
          1454.29010	         8.68286e+57
          1455.09640	         7.80565e+57
          1455.90270	         9.36352e+57
          1456.70900	         8.82515e+57
          1457.51530	         8.89600e+57
          1458.32160	         1.08924e+58
          1459.12790	         1.15794e+58
          1459.93420	         1.01191e+58
          1460.74050	         8.70385e+57
          1461.54680	         8.74918e+57
          1462.35310	         7.99913e+57
          1463.15940	         8.95400e+57
          1463.96570	         1.03318e+58
          1464.77200	         1.11929e+58
          1465.57830	         9.96850e+57
          1466.38460	         8.96623e+57
          1467.19090	         8.64622e+57
          1467.99720	         8.87657e+57
          1468.80350	         9.42088e+57
          1469.60980	         1.07834e+58
          1470.41610	         1.12143e+58
          1471.22240	         1.06595e+58
          1472.02870	         9.77661e+57
          1472.83500	         9.13963e+57
          1473.64130	         1.02466e+58
          1474.44760	         1.04308e+58
          1475.25390	         9.15220e+57
          1476.06020	         8.40348e+57
          1476.86650	         8.77194e+57
          1477.67280	         8.96222e+57
          1478.47910	         7.55345e+57
          1479.28540	         7.07025e+57
          1480.09170	         8.24076e+57
          1480.89800	         8.06673e+57
          1481.70430	         8.41778e+57
          1482.51060	         8.55815e+57
          1483.31690	         8.71927e+57
          1484.12320	         7.61044e+57
          1484.92950	         7.30280e+57
          1485.73580	         7.77981e+57
          1486.54210	         8.06187e+57
          1487.34840	         8.50501e+57
          1488.15470	         8.26538e+57
          1488.96100	         7.86025e+57
          1489.76730	         8.13255e+57
          1490.57360	         8.39726e+57
          1491.37990	         7.46919e+57
          1492.18620	         7.77394e+57
          1492.99250	         8.32090e+57
          1493.79880	         8.59554e+57
          1494.60510	         8.09898e+57
          1495.41140	         7.15637e+57
          1496.21770	         8.57861e+57
          1497.02400	         1.08830e+58
          1497.83030	         9.78399e+57
          1498.63660	         7.56788e+57
          1499.44290	         7.26829e+57
          1500.24920	         7.99192e+57
          1501.05550	         7.41064e+57
          1501.86180	         8.10031e+57
          1502.66810	         9.03069e+57
          1503.47440	         8.44653e+57
          1504.28070	         7.65047e+57
          1505.08700	         8.66080e+57
          1505.89330	         9.61975e+57
          1506.69960	         8.90870e+57
          1507.50590	         8.47557e+57
          1508.31220	         8.02616e+57
          1509.11850	         9.05198e+57
          1509.92480	         9.71183e+57
          1510.73110	         9.23548e+57
          1511.53740	         7.56256e+57
          1512.34370	         6.39967e+57
          1513.15000	         8.26003e+57
          1513.95630	         8.97510e+57
          1514.76260	         7.79500e+57
          1515.56890	         7.82388e+57
          1516.37520	         8.50969e+57
          1517.18150	         8.75936e+57
          1517.98780	         7.98517e+57
          1518.79410	         7.42526e+57
          1519.60040	         7.26163e+57
          1520.40670	         8.54101e+57
          1521.21300	         9.56326e+57
          1522.01930	         8.28248e+57
          1522.82560	         9.45942e+57
          1523.63190	         9.78212e+57
          1524.43820	         7.10763e+57
          1525.24450	         6.04737e+57
          1526.05080	         6.26023e+57
          1526.85710	         5.43350e+57
          1527.66340	         6.40895e+57
          1528.46970	         8.48620e+57
          1529.27600	         7.55015e+57
          1530.08230	         7.78018e+57
          1530.88860	         8.43152e+57
          1531.69490	         8.43059e+57
          1532.50120	         8.43467e+57
          1533.30750	         9.26150e+57
          1534.11380	         1.00221e+58
          1534.92010	         9.47283e+57
          1535.72640	         9.64559e+57
          1536.53270	         9.53772e+57
          1537.33900	         8.92814e+57
          1538.14530	         9.61197e+57
          1538.95160	         9.65557e+57
          1539.75790	         9.63165e+57
          1540.56420	         1.01333e+58
          1541.37050	         8.77504e+57
          1542.17680	         7.10116e+57
          1542.98310	         6.52190e+57
          1543.78940	         7.42296e+57
          1544.59570	         7.77445e+57
          1545.40200	         8.73277e+57
          1546.20830	         9.36303e+57
          1547.01460	         1.09592e+58
          1547.82090	         1.18717e+58
          1548.62720	         1.22336e+58
          1549.43350	         1.17502e+58
          1550.23980	         1.13968e+58
          1551.04610	         1.28937e+58
          1551.85240	         1.21233e+58
          1552.65870	         1.15220e+58
          1553.46500	         1.12157e+58
          1554.27130	         1.02125e+58
          1555.07760	         9.70093e+57
          1555.88390	         8.56987e+57
          1556.69020	         8.81116e+57
          1557.49650	         9.06507e+57
          1558.30280	         8.65242e+57
          1559.10910	         8.79706e+57
          1559.91540	         8.71592e+57
          1560.72170	         9.08757e+57
          1561.52800	         8.99051e+57
          1562.33430	         8.85135e+57
          1563.14060	         8.12197e+57
          1563.94690	         8.89118e+57
          1564.75320	         9.01847e+57
          1565.55950	         7.71835e+57
          1566.36580	         8.11325e+57
          1567.17210	         9.82602e+57
          1567.97840	         8.88531e+57
          1568.78470	         8.66513e+57
          1569.59100	         9.63390e+57
          1570.39730	         8.59642e+57
          1571.20360	         6.86972e+57
          1572.00990	         7.64608e+57
          1572.81620	         8.85534e+57
          1573.62250	         9.88071e+57
          1574.42880	         9.58333e+57
          1575.23510	         8.24755e+57
          1576.04140	         8.39701e+57
          1576.84770	         9.42946e+57
          1577.65400	         8.91632e+57
          1578.46030	         8.98303e+57
          1579.26660	         9.87216e+57
          1580.07290	         8.90268e+57
          1580.87920	         7.86508e+57
          1581.68550	         7.38837e+57
          1582.49180	         8.23484e+57
          1583.29810	         8.68727e+57
          1584.10440	         8.83992e+57
          1584.91070	         9.42254e+57
          1585.71700	         9.48193e+57
          1586.52330	         9.44167e+57
          1587.32960	         8.51078e+57
          1588.13590	         8.30117e+57
          1588.94220	         7.98143e+57
          1589.74850	         8.71222e+57
          1590.55480	         9.70728e+57
          1591.36110	         9.07932e+57
          1592.16740	         8.12185e+57
          1592.97370	         8.31675e+57
          1593.78000	         8.78988e+57
          1594.58630	         9.28630e+57
          1595.39260	         8.87484e+57
          1596.19890	         8.88457e+57
          1597.00520	         9.61051e+57
          1597.81150	         8.59205e+57
          1598.61780	         7.24379e+57
          1599.42410	         6.53655e+57
          1600.23040	         6.77388e+57
          1601.03670	         8.00223e+57
          1601.84300	         7.68891e+57
          1602.64930	         7.79277e+57
          1603.45560	         8.80973e+57
          1604.26190	         8.71104e+57
          1605.06820	         8.56475e+57
          1605.87450	         7.90941e+57
          1606.68080	         6.65787e+57
          1607.48710	         5.47188e+57
          1608.29340	         5.27201e+57
          1609.09970	         6.70767e+57
          1609.90600	         6.87585e+57
          1610.71230	         5.91195e+57
          1611.51860	         7.20064e+57
          1612.32490	         6.89308e+57
          1613.13120	         7.72326e+57
          1613.93750	         8.37356e+57
          1614.74380	         8.49599e+57
          1615.55010	         9.37364e+57
          1616.35640	         9.78462e+57
          1617.16270	         9.01021e+57
          1617.96900	         9.35878e+57
          1618.77530	         8.46271e+57
          1619.58160	         8.30876e+57
          1620.38790	         7.78230e+57
          1621.19420	         8.49729e+57
          1622.00050	         8.89462e+57
          1622.80680	         8.64355e+57
          1623.61310	         7.67725e+57
          1624.41940	         7.79081e+57
          1625.22570	         8.77543e+57
          1626.03200	         8.41240e+57
          1626.83830	         7.60883e+57
          1627.64460	         6.91662e+57
          1628.45090	         5.90013e+57
          1629.25720	         8.95049e+57
          1630.06350	         1.02338e+58
          1630.86980	         6.24519e+57
          1631.67610	         6.67408e+57
          1632.48240	         8.47813e+57
          1633.28870	         8.14273e+57
          1634.09500	         8.54863e+57
          1634.90130	         1.03022e+58
          1635.70760	         8.95062e+57
          1636.51390	         7.59815e+57
          1637.32020	         7.34524e+57
          1638.12650	         8.66174e+57
          1638.93280	         8.81963e+57
          1639.73910	         9.07995e+57
          1640.54540	         9.81910e+57
          1641.35170	         8.81331e+57
          1642.15800	         8.79372e+57
          1642.96430	         8.21971e+57
          1643.77060	         7.56452e+57
          1644.57690	         7.65324e+57
          1645.38320	         8.63074e+57
          1646.18950	         7.31552e+57
          1646.99580	         8.81157e+57
          1647.80210	         8.70616e+57
          1648.60840	         7.97026e+57
          1649.41470	         8.30280e+57
          1650.22100	         6.51060e+57
          1651.02730	         6.01868e+57
          1651.83360	         6.95198e+57
          1652.63990	         8.01232e+57
          1653.44620	         8.92337e+57
          1654.25250	         7.97830e+57
          1655.05880	         7.72717e+57
          1655.86510	         8.16138e+57
          1656.67140	         8.24874e+57
          1657.47770	         7.41350e+57
          1658.28400	         7.40321e+57
          1659.09030	         8.59084e+57
          1659.89660	         9.42368e+57
          1660.70290	         1.02049e+58
          1661.50920	         9.52805e+57
          1662.31550	         8.16278e+57
          1663.12180	         8.20792e+57
          1663.92810	         9.17538e+57
          1664.73440	         1.03949e+58
          1665.54070	         1.26592e+58
          1666.34700	         1.27373e+58
          1667.15330	         1.22467e+58
          1667.95960	         9.72599e+57
          1668.76590	         8.14025e+57
          1669.57220	         8.05273e+57
          1670.37850	         7.75052e+57
          1671.18480	         7.27692e+57
          1671.99110	         7.07737e+57
          1672.79740	         6.57601e+57
          1673.60370	         6.28992e+57
          1674.41000	         7.43309e+57
          1675.21630	         7.18233e+57
          1676.02260	         6.24334e+57
          1676.82890	         7.24820e+57
          1677.63520	         6.99749e+57
          1678.44150	         7.27226e+57
          1679.24780	         9.33847e+57
          1680.05410	         8.37523e+57
          1680.86040	         5.88028e+57
          1681.66670	         6.08782e+57
          1682.47300	         6.86445e+57
          1683.27930	         7.69166e+57
          1684.08560	         8.83794e+57
          1684.89190	         8.78732e+57
          1685.69820	         5.78058e+57
          1686.50450	         4.81043e+57
          1687.31080	         6.91421e+57
          1688.11710	         7.86752e+57
          1688.92340	         7.08650e+57
          1689.72970	         7.67048e+57
          1690.53600	         7.06739e+57
          1691.34230	         7.46948e+57
          1692.14860	         8.64407e+57
          1692.95490	         8.02535e+57
          1693.76120	         7.27291e+57
          1694.56750	         7.48718e+57
          1695.37380	         8.67792e+57
          1696.18010	         8.82093e+57
          1696.98640	         8.17474e+57
          1697.79270	         7.72335e+57
          1698.59900	         7.11458e+57
          1699.40530	         7.28785e+57
          1700.21160	         7.05475e+57
          1701.01790	         6.85773e+57
          1701.82420	         6.88149e+57
          1702.63050	         8.45852e+57
          1703.43680	         8.84479e+57
          1704.24310	         8.32651e+57
          1705.04940	         8.32094e+57
          1705.85570	         7.34721e+57
          1706.66200	         7.51713e+57
          1707.46830	         7.86343e+57
          1708.27460	         7.56412e+57
          1709.08090	         6.18975e+57
          1709.88720	         4.97997e+57
          1710.69350	         5.77698e+57
          1711.49980	         6.54332e+57
          1712.30610	         7.41891e+57
          1713.11240	         8.41151e+57
          1713.91870	         7.72261e+57
          1714.72500	         8.43082e+57
          1715.53130	         9.58158e+57
          1716.33760	         8.38052e+57
          1717.14390	         7.86158e+57
          1717.95020	         8.81886e+57
          1718.75650	         9.45670e+57
          1719.56280	         9.65282e+57
          1720.36910	         7.97652e+57
          1721.17540	         7.14109e+57
          1721.98170	         6.44517e+57
          1722.78800	         6.21732e+57
          1723.59430	         6.55895e+57
          1724.40060	         8.12069e+57
          1725.20690	         8.62278e+57
          1726.01320	         8.47802e+57
          1726.81950	         8.01094e+57
          1727.62580	         7.27383e+57
          1728.43210	         7.92346e+57
          1729.23840	         7.97416e+57
          1730.04470	         7.77219e+57
          1730.85100	         8.36045e+57
          1731.65730	         8.40412e+57
          1732.46360	         7.71672e+57
          1733.26990	         6.96040e+57
          1734.07620	         6.88052e+57
          1734.88250	         7.69961e+57
          1735.68880	         7.03821e+57
          1736.49510	         7.93008e+57
          1737.30140	         8.36959e+57
          1738.10770	         7.36409e+57
          1738.91400	         8.31846e+57
          1739.72030	         8.58699e+57
          1740.52660	         5.80988e+57
          1741.33290	         5.85007e+57
          1742.13920	         6.02337e+57
          1742.94550	         6.81245e+57
          1743.75180	         7.75464e+57
          1744.55810	         7.90679e+57
          1745.36440	         6.30651e+57
          1746.17070	         5.88814e+57
          1746.97700	         6.24326e+57
          1747.78330	         7.88231e+57
          1748.58960	         7.12634e+57
          1749.39590	         6.96753e+57
          1750.20220	         7.18353e+57
          1751.00850	         6.00098e+57
          1751.81480	         5.45309e+57
          1752.62110	         6.32404e+57
          1753.42740	         8.14591e+57
          1754.23370	         7.65036e+57
          1755.04000	         6.88007e+57
          1755.84630	         8.03538e+57
          1756.65260	         9.15380e+57
          1757.45890	         8.73507e+57
          1758.26520	         7.29808e+57
          1759.07150	         9.55289e+57
          1759.87780	         9.57227e+57
          1760.68410	         8.69183e+57
          1761.49040	         8.42282e+57
          1762.29670	         6.63874e+57
          1763.10300	         6.75584e+57
          1763.90930	         8.12204e+57
          1764.71560	         8.28936e+57
          1765.52190	         8.50183e+57
          1766.32820	         9.44282e+57
          1767.13450	         8.14924e+57
          1767.94080	         5.79883e+57
          1768.74710	         6.87077e+57
          1769.55340	         7.00789e+57
          1770.35970	         6.58964e+57
          1771.16600	         7.34732e+57
          1771.97230	         8.69490e+57
          1772.77860	         8.52828e+57
          1773.58490	         6.91967e+57
          1774.39120	         5.82848e+57
          1775.19750	         6.41243e+57
          1776.00380	         7.04633e+57
          1776.81010	         6.24873e+57
          1777.61640	         5.97714e+57
          1778.42270	         6.77647e+57
          1779.22900	         6.82862e+57
          1780.03530	         6.63222e+57
          1780.84160	         7.35764e+57
          1781.64790	         8.35512e+57
          1782.45420	         8.02428e+57
          1783.26050	         6.24326e+57
          1784.06680	         7.53637e+57
          1784.87310	         8.33293e+57
          1785.67940	         8.38837e+57
          1786.48570	         7.09030e+57
          1787.29200	         6.49562e+57
          1788.09830	         6.82692e+57
          1788.90460	         6.13009e+57
          1789.71090	         5.21305e+57
          1790.51720	         4.92032e+57
          1791.32350	         7.33684e+57
          1792.12980	         8.82894e+57
          1792.93610	         8.23632e+57
          1793.74240	         7.28197e+57
          1794.54870	         7.42857e+57
          1795.35500	         7.34052e+57
          1796.16130	         7.48733e+57
          1796.96760	         6.80495e+57
          1797.77390	         6.44992e+57
          1798.58020	         6.81063e+57
          1799.38650	         6.76980e+57
          1800.19280	         7.11602e+57
          1800.99910	         7.32334e+57
          1801.80540	         7.44448e+57
          1802.61170	         8.52270e+57
          1803.41800	         8.67477e+57
          1804.22430	         7.14950e+57
          1805.03060	         6.08014e+57
          1805.83690	         6.75578e+57
          1806.64320	         8.23508e+57
          1807.44950	         6.90847e+57
          1808.25580	         6.60308e+57
          1809.06210	         8.26869e+57
          1809.86840	         7.73120e+57
          1810.67470	         6.94356e+57
          1811.48100	         8.78979e+57
          1812.28730	         9.59490e+57
          1813.09360	         7.47053e+57
          1813.89990	         6.86267e+57
          1814.70620	         5.97696e+57
          1815.51250	         7.24783e+57
          1816.31880	         8.63732e+57
          1817.12510	         7.96355e+57
          1817.93140	         6.09660e+57
          1818.73770	         6.90918e+57
          1819.54400	         8.46565e+57
          1820.35030	         7.16011e+57
          1821.15660	         5.45591e+57
          1821.96290	         5.55881e+57
          1822.76920	         7.01022e+57
          1823.57550	         7.73179e+57
          1824.38180	         7.76413e+57
          1825.18810	         7.52321e+57
          1825.99440	         8.01490e+57
          1826.80070	         7.19082e+57
          1827.60700	         6.41120e+57
          1828.41330	         5.67041e+57
          1829.21960	         6.64785e+57
          1830.02590	         7.34481e+57
          1830.83220	         7.04017e+57
          1831.63850	         7.61420e+57
          1832.44480	         7.43147e+57
          1833.25110	         7.77935e+57
          1834.05740	         7.74360e+57
          1834.86370	         6.18541e+57
          1835.67000	         6.20111e+57
          1836.47630	         7.09631e+57
          1837.28260	         7.95718e+57
          1838.08890	         8.64929e+57
          1838.89520	         8.10899e+57
          1839.70150	         7.82288e+57
          1840.50780	         7.84352e+57
          1841.31410	         7.05146e+57
          1842.12040	         7.05015e+57
          1842.92670	         6.93618e+57
          1843.73300	         6.28703e+57
          1844.53930	         6.01585e+57
          1845.34560	         6.79967e+57
          1846.15190	         7.72845e+57
          1846.95820	         7.44490e+57
          1847.76450	         6.57779e+57
          1848.57080	         5.72815e+57
          1849.37710	         5.86205e+57
          1850.18340	         7.79465e+57
          1850.98970	         9.30678e+57
          1851.79600	         8.15533e+57
          1852.60230	         7.25855e+57
          1853.40860	         7.94285e+57
          1854.21490	         7.23497e+57
          1855.02120	         5.38274e+57
          1855.82750	         4.24113e+57
          1856.63380	         5.82403e+57
          1857.44010	         7.85070e+57
          1858.24640	         7.35458e+57
          1859.05270	         7.07989e+57
          1859.85900	         5.35689e+57
          1860.66530	         5.18937e+57
          1861.47160	         6.75877e+57
          1862.27790	         8.12375e+57
          1863.08420	         7.97522e+57
          1863.89050	         7.69505e+57
          1864.69680	         7.91248e+57
          1865.50310	         7.68738e+57
          1866.30940	         6.44125e+57
          1867.11570	         6.94655e+57
          1867.92200	         7.57391e+57
          1868.72830	         7.53996e+57
          1869.53460	         7.67018e+57
          1870.34090	         7.28050e+57
          1871.14720	         7.80363e+57
          1871.95350	         7.56944e+57
          1872.75980	         7.39485e+57
          1873.56610	         7.58368e+57
          1874.37240	         5.63351e+57
          1875.17870	         5.44272e+57
          1875.98500	         7.27568e+57
          1876.79130	         6.96019e+57
          1877.59760	         6.53486e+57
          1878.40390	         6.05533e+57
          1879.21020	         5.61532e+57
          1880.01650	         7.35137e+57
          1880.82280	         8.79104e+57
          1881.62910	         8.97174e+57
          1882.43540	         1.01736e+58
          1883.24170	         7.55793e+57
          1884.04800	         6.39421e+57
          1884.85430	         7.91067e+57
          1885.66060	         8.99381e+57
          1886.46690	         8.88701e+57
          1887.27320	         8.97659e+57
          1888.07950	         7.17703e+57
          1888.88580	         6.59130e+57
          1889.69210	         8.19353e+57
          1890.49840	         7.99442e+57
          1891.30470	         8.09784e+57
          1892.11100	         9.37895e+57
          1892.91730	         8.12485e+57
          1893.72360	         8.16030e+57
          1894.52990	         8.90709e+57
          1895.33620	         8.93106e+57
          1896.14250	         7.51775e+57
          1896.94880	         6.97642e+57
          1897.75510	         5.66807e+57
          1898.56140	         5.63017e+57
          1899.36770	         7.78038e+57
          1900.17400	         6.02747e+57
          1900.98030	         7.02118e+57
          1901.78660	         6.86459e+57
          1902.59290	         7.14856e+57
          1903.39920	         8.84660e+57
          1904.20550	         9.61456e+57
          1905.01180	         9.03536e+57
          1905.81810	         9.23204e+57
          1906.62440	         1.29369e+58
          1907.43070	         1.50456e+58
          1908.23700	         1.52711e+58
          1909.04330	         1.39391e+58
          1909.84960	         1.14876e+58
          1910.65590	         9.29002e+57
          1911.46220	         8.54819e+57
          1912.26850	         7.49188e+57
          1913.07480	         6.60710e+57
          1913.88110	         6.75635e+57
          1914.68740	         6.29537e+57
          1915.49370	         6.08522e+57
          1916.30000	         6.69261e+57
          1917.10630	         7.41172e+57
          1917.91260	         6.87490e+57
          1918.71890	         5.86898e+57
          1919.52520	         5.40460e+57
          1920.33150	         5.63657e+57
          1921.13780	         7.05393e+57
          1921.94410	         8.90463e+57
          1922.75040	         8.35026e+57
          1923.55670	         7.28843e+57
          1924.36300	         6.83808e+57
          1925.16930	         5.78708e+57
          1925.97560	         5.06136e+57
          1926.78190	         4.83265e+57
          1927.58820	         5.06904e+57
          1928.39450	         5.79016e+57
          1929.20080	         4.98512e+57
          1930.00710	         6.04842e+57
          1930.81340	         8.17550e+57
          1931.61970	         6.14341e+57
          1932.42600	         6.25203e+57
          1933.23230	         8.08347e+57
          1934.03860	         6.79940e+57
          1934.84490	         5.24029e+57
          1935.65120	         8.11502e+57
          1936.45750	         9.44988e+57
          1937.26380	         7.31810e+57
          1938.07010	         8.00261e+57
          1938.87640	         8.01222e+57
          1939.68270	         8.60761e+57
          1940.48900	         8.85633e+57
          1941.29530	         7.71720e+57
          1942.10160	         7.64855e+57
          1942.90790	         7.41270e+57
          1943.71420	         6.60775e+57
          1944.52050	         6.76103e+57
          1945.32680	         6.84453e+57
          1946.13310	         6.28939e+57
          1946.93940	         6.75828e+57
          1947.74570	         7.19799e+57
          1948.55200	         6.60404e+57
          1949.35830	         7.66567e+57
          1950.16460	         6.52279e+57
          1950.97090	         7.08259e+57
          1951.77720	         7.30232e+57
          1952.58350	         7.40398e+57
          1953.38980	         6.83906e+57
          1954.19610	         4.85300e+57
          1955.00240	         4.74987e+57
          1955.80870	         6.24493e+57
          1956.61500	         5.92982e+57
          1957.42130	         6.32525e+57
          1958.22760	         7.32484e+57
          1959.03390	         6.77507e+57
          1959.84020	         6.58550e+57
          1960.64650	         6.75063e+57
          1961.45280	         6.79320e+57
          1962.25910	         6.65253e+57
          1963.06540	         5.73676e+57
          1963.87170	         6.18976e+57
          1964.67800	         7.19791e+57
          1965.48430	         7.85931e+57
          1966.29060	         6.41759e+57
          1967.09690	         7.28074e+57
          1967.90320	         6.91443e+57
          1968.70950	         6.96093e+57
          1969.51580	         6.27958e+57
          1970.32210	         7.67069e+57
          1971.12840	         7.88211e+57
          1971.93470	         4.70774e+57
          1972.74100	         4.93722e+57
          1973.54730	         6.37155e+57
          1974.35360	         7.14509e+57
          1975.15990	         7.42830e+57
          1975.96620	         6.87448e+57
          1976.77250	         7.22356e+57
          1977.57880	         6.51409e+57
          1978.38510	         5.68777e+57
          1979.19140	         6.51360e+57
          1979.99770	         7.74077e+57
          1980.80400	         6.96771e+57
          1981.61030	         6.66562e+57
          1982.41660	         5.06331e+57
          1983.22290	         5.80590e+57
          1984.02920	         5.26655e+57
          1984.83550	         6.19390e+57
          1985.64180	         7.26992e+57
          1986.44810	         6.33632e+57
          1987.25440	         6.21486e+57
          1988.06070	         4.98702e+57
          1988.86700	         5.72177e+57
          1989.67330	         7.32139e+57
          1990.47960	         5.94586e+57
          1991.28590	         6.76283e+57
          1992.09220	         6.30522e+57
          1992.89850	         6.22192e+57
          1993.70480	         5.97921e+57
          1994.51110	         5.22502e+57
          1995.31740	         5.42035e+57
          1996.12370	         4.58234e+57
          1996.93000	         5.57351e+57
          1997.73630	         8.11459e+57
          1998.54260	         8.11093e+57
          1999.34890	         6.86030e+57
          2000.15520	         6.86248e+57
          2000.96150	         6.10658e+57
          2001.76780	         6.48639e+57
          2002.57410	         5.08461e+57
          2003.38040	         5.59150e+57
          2004.18670	         6.03088e+57
          2004.99300	         6.50409e+57
          2005.79930	         7.24570e+57
          2006.60560	         6.92497e+57
          2007.41190	         6.95010e+57
          2008.21820	         7.59849e+57
          2009.02450	         6.79332e+57
          2009.83080	         7.06962e+57
          2010.63710	         7.19677e+57
          2011.44340	         8.19075e+57
          2012.24970	         8.28812e+57
          2013.05600	         6.68145e+57
          2013.86230	         5.56299e+57
          2014.66860	         5.78408e+57
          2015.47490	         7.07031e+57
          2016.28120	         6.10414e+57
          2017.08750	         5.87076e+57
          2017.89380	         6.15263e+57
          2018.70010	         5.52519e+57
          2019.50640	         5.08006e+57
          2020.31270	         7.11360e+57
          2021.11900	         6.56077e+57
          2021.92530	         7.22083e+57
          2022.73160	         7.30859e+57
          2023.53790	         7.39358e+57
          2024.34420	         6.21817e+57
          2025.15050	         5.23411e+57
          2025.95680	         4.76494e+57
          2026.76310	         5.02381e+57
          2027.56940	         7.15786e+57
          2028.37570	         7.54943e+57
          2029.18200	         6.69213e+57
          2029.98830	         6.09728e+57
          2030.79460	         6.74431e+57
          2031.60090	         6.77144e+57
          2032.40720	         6.22037e+57
          2033.21350	         5.72749e+57
          2034.01980	         5.53312e+57
          2034.82610	         4.11954e+57
          2035.63240	         5.58961e+57
          2036.43870	         6.18086e+57
          2037.24500	         6.23584e+57
          2038.05130	         6.04342e+57
          2038.85760	         5.18304e+57
          2039.66390	         5.59310e+57
          2040.47020	         5.88191e+57
          2041.27650	         5.17743e+57
          2042.08280	         3.98827e+57
          2042.88910	         5.55195e+57
          2043.69540	         5.92179e+57
          2044.50170	         4.15204e+57
          2045.30800	         4.44158e+57
          2046.11430	         3.93447e+57
          2046.92060	         4.66335e+57
          2047.72690	         7.01330e+57
          2048.53320	         3.88420e+57
          2049.33950	         2.86816e+57
          2050.14580	         5.51263e+57
          2050.95210	         7.65371e+57
          2051.75840	         7.37760e+57
          2052.56470	         5.58368e+57
          2053.37100	         4.65387e+57
          2054.17730	         5.22268e+57
          2054.98360	         5.33801e+57
          2055.78990	         3.76813e+57
          2056.59620	         2.48946e+57
          2057.40250	         5.02905e+57
          2058.20880	         6.79402e+57
          2059.01510	         6.38837e+57
          2059.82140	         5.25195e+57
          2060.62770	         1.05215e+58
          2061.43400	         1.60580e+58
          2062.24030	         1.18075e+58
          2063.04660	         4.67927e+57
          2063.85290	         3.13580e+56
          2064.65920	        -5.38272e+57
          2065.46550	        -1.01405e+58
          2066.27180	        -6.95017e+57
          2067.07810	         2.73538e+57
          2067.88440	         4.17048e+57
          2068.69070	         6.07301e+57
          2069.49700	         4.44751e+57
          2070.30330	         3.60856e+57
          2071.10960	         3.97677e+57
          2071.91590	         7.25091e+57
          2072.72220	         4.29732e+57
          2073.52850	         2.84751e+57
          2074.33480	         4.35991e+57
          2075.14110	         4.91102e+57
          2075.94740	         5.17072e+57
          2076.75370	         3.66275e+57
          2077.56000	         5.37705e+57
          2078.36630	         5.89526e+57
          2079.17260	         4.58620e+57
          2079.97890	         5.86390e+57
          2080.78520	         6.40429e+57
          2081.59150	         4.77298e+57
          2082.39780	         4.87318e+57
          2083.20410	         2.54025e+57
          2084.01040	         2.38808e+57
          2084.81670	         4.35324e+57
          2085.62300	         3.91432e+57
          2086.42930	         3.82856e+57
          2087.23560	         4.96447e+57
          2088.04190	         2.87635e+57
          2088.84820	         3.69600e+57
          2089.65450	         3.61441e+57
          2090.46080	         3.66083e+57
          2091.26710	         3.98659e+57
          2092.07340	         3.74398e+57
          2092.87970	         1.96109e+57
          2093.68600	        -4.13885e+56
          2094.49230	        -5.62477e+56
          2095.29860	         1.86251e+57
          2096.10490	         1.93622e+57
          2096.91120	         1.96060e+57
          2097.71750	         3.45267e+57
          2098.52380	         2.39830e+57
          2099.33010	         1.01604e+57
          2100.13640	        -2.32595e+56
          2100.94270	         2.97366e+56
          2101.74900	         3.21159e+57
          2102.55530	         2.46116e+57
          2103.36160	         1.88034e+57
          2104.16790	         1.69791e+57
          2104.97420	         2.60949e+57
          2105.78050	         3.24349e+57
          2106.58680	         2.79419e+57
          2107.39310	         1.27906e+57
          2108.19940	         2.35946e+57
          2109.00570	         1.50848e+57
          2109.81200	        -1.37683e+57
          2110.61830	         1.95961e+57
          2111.42460	         2.89088e+57
          2112.23090	         4.39761e+57
          2113.03720	         2.53854e+57
          2113.84350	        -1.82408e+57
          2114.64980	        -4.54493e+56
          2115.45610	        -2.92404e+57
          2116.26240	        -4.60123e+57
          2117.06870	        -3.65837e+57
          2117.87500	        -2.64369e+55
          2118.68130	        -1.63581e+56
          2119.48760	         4.04390e+56
          2120.29390	        -2.51420e+57
          2121.10020	        -3.48917e+57
          2121.90650	        -3.30136e+57
          2122.71280	         4.05154e+57
          2123.51910	         3.55564e+57
          2124.32540	        -3.04296e+57
          2125.13170	         8.98175e+56
          2125.93800	         9.07959e+56
          2126.74430	        -2.45518e+57
          2127.55060	        -8.42219e+57
          2128.35690	        -9.07351e+57
          2129.16320	        -1.20361e+57
          2129.96950	        -7.35636e+56
          2130.77580	        -2.55657e+57
          2131.58210	         3.45000e+56
          2132.38840	         5.50723e+55
          2133.19470	         9.18080e+55
          2134.00100	         6.15962e+56
          2134.80730	        -2.52965e+57
          2135.61360	         1.04394e+57
          2136.41990	         7.21018e+57
          2137.22620	         9.50776e+57
          2138.03250	         4.49983e+57
          2138.83880	        -3.49711e+57
          2139.64510	        -6.63993e+57
          2140.45140	         2.94610e+57
          2141.25770	        -8.32485e+57
          2142.06400	        -2.52031e+57
          2142.87030	         5.77456e+57
          2143.67660	         4.86033e+57
          2144.48290	         1.85651e+57
          2145.28920	         6.34353e+56
          2146.09550	        -4.95273e+57
          2146.90180	        -7.93099e+57
          2147.70810	        -1.48467e+57
          2148.51440	        -2.48514e+57
          2149.32070	        -1.08051e+58
          2150.12700	        -8.18613e+57
          2150.93330	        -3.92764e+57
          2151.73960	        -1.19725e+57
          2152.54590	         7.16145e+57
          2153.35220	         4.84477e+57
          2154.15850	        -2.02979e+57
          2154.96480	         2.37058e+57
          2155.77110	        -8.49714e+57
          2156.57740	        -1.65786e+58
          2157.38370	        -1.79957e+57
          2158.19000	         4.35799e+57
          2158.99630	        -4.25946e+57
          2159.80260	        -1.38414e+58
          2160.60890	        -8.43618e+57
          2161.41520	        -5.76578e+57
          2162.22150	        -4.14471e+57
          2163.02780	        -1.08763e+57
          2163.83410	        -1.51832e+58
          2164.64040	        -1.49882e+58
          2165.44670	        -1.41188e+58
          2166.25300	        -1.36738e+58
          2167.05930	         1.55597e+57
          2167.86560	        -6.27364e+57
          2168.67190	        -7.65104e+57
          2169.47820	        -9.77236e+57
          2170.28450	        -3.16880e+57
          2171.09080	         6.07919e+56
          2171.89710	        -8.40658e+56
          2172.70340	         3.19200e+57
          2173.50970	        -5.56634e+57
          2174.31600	        -6.82185e+57
          2175.12230	         1.27574e+57
          2175.92860	        -5.16558e+57
          2176.73490	        -4.39097e+57
          2177.54120	        -5.86053e+57
          2178.34750	        -4.99208e+57
          2179.15380	                 nan
          2179.96010	                 nan
          2180.76640	                 nan
          2181.57270	                 nan
          2182.37900	                 nan
          2183.18530	                 nan
          2183.99160	                 nan
          2184.79790	                 nan
          2185.60420	                 nan
          2186.41050	                 nan
          2187.21680	                 nan
          2188.02310	                 nan
          2188.82940	                 nan
          2189.63570	                 nan
          2190.44200	                 nan
          2191.24830	                 nan
          2192.05460	                 nan
          2192.86090	                 nan
          2193.66720	                 nan
          2194.47350	                 nan
          2195.27980	                 nan
          2196.08610	                 nan
          2196.89240	                 nan
          2197.69870	                 nan
          2198.50500	                 nan
          2199.31130	                 nan
          2200.11760	                 nan
          2200.92390	                 nan
          2201.73020	                 nan
          2202.53650	                 nan
          2203.34280	                 nan
          2204.14910	                 nan
          2204.95540	                 nan
          2205.76170	                 nan
          2206.56800	                 nan
          2207.37430	                 nan
          2208.18060	                 nan
          2208.98690	                 nan
          2209.79320	                 nan
          2210.59950	                 nan
          2211.40580	                 nan
          2212.21210	                 nan
          2213.01840	                 nan
          2213.82470	                 nan
          2214.63100	                 nan
          2215.43730	         0.00000e+00
