#sample_486_stacked_spectrum_rest_UV-bands_median_H-alpha_noDC.txt
#median Lum: 1.67532e+42
#Rest-frame wavelength (A) | Luminosity (erg/s/A)
#
          1110.00000	         0.00000e+00
          1110.80630	        -3.10137e+59
          1111.61260	        -2.75508e+59
          1112.41890	         6.18850e+58
          1113.22520	        -1.34678e+59
          1114.03150	        -1.16200e+59
          1114.83780	         1.46130e+59
          1115.64410	         8.79474e+58
          1116.45040	         1.64623e+59
          1117.25670	        -9.27540e+58
          1118.06300	         1.27110e+59
          1118.86930	         9.04686e+57
          1119.67560	         5.11318e+58
          1120.48190	        -1.13134e+59
          1121.28820	        -1.26200e+59
          1122.09450	         3.75252e+58
          1122.90080	         1.67247e+58
          1123.70710	         4.48439e+58
          1124.51340	         1.87637e+58
          1125.31970	         2.88956e+58
          1126.12600	         5.27025e+58
          1126.93230	        -6.27943e+58
          1127.73860	        -4.36710e+57
          1128.54490	         1.91136e+58
          1129.35120	        -9.30584e+56
          1130.15750	        -4.61869e+58
          1130.96380	        -3.63053e+58
          1131.77010	        -3.77073e+57
          1132.57640	         2.19546e+58
          1133.38270	         3.25589e+58
          1134.18900	         3.41660e+58
          1134.99530	         5.36035e+57
          1135.80160	         1.36955e+58
          1136.60790	        -1.72202e+57
          1137.41420	        -1.56926e+57
          1138.22050	         3.09942e+58
          1139.02680	         3.27927e+58
          1139.83310	         2.09618e+58
          1140.63940	         1.71674e+58
          1141.44570	         6.36239e+57
          1142.25200	        -6.82277e+55
          1143.05830	         2.74784e+58
          1143.86460	         3.57020e+58
          1144.67090	         2.21507e+58
          1145.47720	         2.92774e+58
          1146.28350	         1.44654e+58
          1147.08980	         1.41109e+58
          1147.89610	         1.23290e+58
          1148.70240	         2.24124e+58
          1149.50870	         2.89486e+58
          1150.31500	         2.12695e+58
          1151.12130	         1.78149e+58
          1151.92760	         4.91655e+57
          1152.73390	         1.67782e+57
          1153.54020	        -5.06708e+57
          1154.34650	         2.54775e+58
          1155.15280	         1.74790e+58
          1155.95910	        -4.71589e+57
          1156.76540	         1.23416e+57
          1157.57170	         1.27427e+57
          1158.37800	        -3.59312e+57
          1159.18430	        -4.64947e+57
          1159.99060	         1.51270e+58
          1160.79690	         1.57490e+58
          1161.60320	         1.08468e+58
          1162.40950	         2.93446e+58
          1163.21580	         2.35968e+58
          1164.02210	         1.70556e+58
          1164.82840	         5.45126e+57
          1165.63470	         1.96543e+58
          1166.44100	         3.16401e+58
          1167.24730	         1.61267e+58
          1168.05360	         3.71773e+57
          1168.85990	         3.42510e+57
          1169.66620	         4.51512e+57
          1170.47250	         1.10123e+58
          1171.27880	         1.24759e+58
          1172.08510	         1.42757e+58
          1172.89140	         1.41201e+58
          1173.69770	         6.34242e+57
          1174.50400	         6.70338e+57
          1175.31030	         2.05561e+58
          1176.11660	         2.13927e+58
          1176.92290	         1.61529e+58
          1177.72920	         1.12337e+58
          1178.53550	         5.11548e+57
          1179.34180	         2.29391e+57
          1180.14810	         5.74058e+57
          1180.95440	         9.87248e+57
          1181.76070	         6.51047e+57
          1182.56700	         2.90587e+57
          1183.37330	         4.21009e+57
          1184.17960	         9.68249e+57
          1184.98590	         1.06550e+58
          1185.79220	         8.96050e+57
          1186.59850	         8.76498e+57
          1187.40480	         7.40074e+57
          1188.21110	         1.48910e+58
          1189.01740	         1.04142e+58
          1189.82370	         1.03991e+58
          1190.63000	         1.05534e+58
          1191.43630	         1.02589e+58
          1192.24260	         1.03152e+58
          1193.04890	         1.34294e+58
          1193.85520	         1.01906e+58
          1194.66150	         6.16943e+57
          1195.46780	         1.44266e+58
          1196.27410	         1.55517e+58
          1197.08040	         8.11430e+57
          1197.88670	         1.28596e+58
          1198.69300	         1.60079e+58
          1199.49930	         1.52324e+58
          1200.30560	         1.15951e+58
          1201.11190	         1.02730e+58
          1201.91820	         1.29948e+58
          1202.72450	         9.68968e+57
          1203.53080	         1.56821e+58
          1204.33710	         1.06613e+58
          1205.14340	         5.47733e+57
          1205.94970	         8.23086e+57
          1206.75600	         8.75714e+57
          1207.56230	         2.15390e+57
          1208.36860	         5.06996e+57
          1209.17490	         7.79208e+57
          1209.98120	         6.34582e+57
          1210.78750	         7.41210e+57
          1211.59380	         1.02015e+58
          1212.40010	         1.57005e+58
          1213.20640	         1.95163e+58
          1214.01270	         1.63730e+58
          1214.81900	         2.44211e+58
          1215.62530	         4.58358e+58
          1216.43160	         9.15768e+58
          1217.23790	         1.47109e+59
          1218.04420	         1.08698e+59
          1218.85050	         8.39508e+58
          1219.65680	         5.48157e+58
          1220.46310	         3.25439e+58
          1221.26940	         2.15090e+58
          1222.07570	         1.09314e+58
          1222.88200	         1.05651e+58
          1223.68830	         7.95973e+57
          1224.49460	         5.73583e+57
          1225.30090	         5.99470e+57
          1226.10720	         6.46453e+57
          1226.91350	         6.12630e+57
          1227.71980	         1.03021e+58
          1228.52610	         1.33016e+58
          1229.33240	         1.00578e+58
          1230.13870	         8.51416e+57
          1230.94500	         7.30362e+57
          1231.75130	         8.18059e+57
          1232.55760	         8.97779e+57
          1233.36390	         7.72683e+57
          1234.17020	         6.01678e+57
          1234.97650	         6.49560e+57
          1235.78280	         7.10688e+57
          1236.58910	         8.69247e+57
          1237.39540	         1.18758e+58
          1238.20170	         1.24816e+58
          1239.00800	         1.36292e+58
          1239.81430	         1.31970e+58
          1240.62060	         9.12456e+57
          1241.42690	         8.12947e+57
          1242.23320	         1.07995e+58
          1243.03950	         8.06368e+57
          1243.84580	         6.66981e+57
          1244.65210	         8.23568e+57
          1245.45840	         8.74967e+57
          1246.26470	         8.22354e+57
          1247.07100	         5.62528e+57
          1247.87730	         8.23744e+57
          1248.68360	         5.81894e+57
          1249.48990	         7.60680e+57
          1250.29620	         1.12829e+58
          1251.10250	         6.95436e+57
          1251.90880	         3.91678e+57
          1252.71510	         4.08252e+57
          1253.52140	         6.24450e+57
          1254.32770	         1.04527e+58
          1255.13400	         1.36999e+58
          1255.94030	         1.20047e+58
          1256.74660	         1.03702e+58
          1257.55290	         9.58526e+57
          1258.35920	         8.46458e+57
          1259.16550	         5.09859e+57
          1259.97180	         3.65216e+57
          1260.77810	         6.49311e+57
          1261.58440	         9.55623e+57
          1262.39070	         7.80191e+57
          1263.19700	         8.26367e+57
          1264.00330	         9.33026e+57
          1264.80960	         1.11011e+58
          1265.61590	         1.26202e+58
          1266.42220	         1.20462e+58
          1267.22850	         1.10251e+58
          1268.03480	         1.36441e+58
          1268.84110	         1.54208e+58
          1269.64740	         1.26881e+58
          1270.45370	         1.02472e+58
          1271.26000	         1.01900e+58
          1272.06630	         1.11845e+58
          1272.87260	         1.27848e+58
          1273.67890	         1.04361e+58
          1274.48520	         1.04813e+58
          1275.29150	         1.37567e+58
          1276.09780	         1.14393e+58
          1276.90410	         1.28070e+58
          1277.71040	         1.12943e+58
          1278.51670	         9.58320e+57
          1279.32300	         1.21659e+58
          1280.12930	         1.21080e+58
          1280.93560	         9.31898e+57
          1281.74190	         9.47700e+57
          1282.54820	         1.23186e+58
          1283.35450	         1.15300e+58
          1284.16080	         1.17060e+58
          1284.96710	         1.44223e+58
          1285.77340	         1.20560e+58
          1286.57970	         9.95371e+57
          1287.38600	         1.39290e+58
          1288.19230	         1.70464e+58
          1288.99860	         1.49301e+58
          1289.80490	         1.07504e+58
          1290.61120	         1.34049e+58
          1291.41750	         1.14722e+58
          1292.22380	         1.01752e+58
          1293.03010	         9.67987e+57
          1293.83640	         1.05855e+58
          1294.64270	         9.12143e+57
          1295.44900	         6.08762e+57
          1296.25530	         5.16843e+57
          1297.06160	         6.39945e+57
          1297.86790	         8.30919e+57
          1298.67420	         7.76257e+57
          1299.48050	         9.31866e+57
          1300.28680	         1.02121e+58
          1301.09310	         7.87570e+57
          1301.89940	         4.25004e+57
          1302.70570	         5.69517e+57
          1303.51200	         7.52685e+57
          1304.31830	         9.90071e+57
          1305.12460	         1.17384e+58
          1305.93090	         1.07512e+58
          1306.73720	         1.18978e+58
          1307.54350	         1.45146e+58
          1308.34980	         1.34984e+58
          1309.15610	         1.43004e+58
          1309.96240	         1.48541e+58
          1310.76870	         1.22242e+58
          1311.57500	         1.04451e+58
          1312.38130	         1.12282e+58
          1313.18760	         1.29494e+58
          1313.99390	         1.62963e+58
          1314.80020	         1.73071e+58
          1315.60650	         1.50864e+58
          1316.41280	         1.22114e+58
          1317.21910	         9.99373e+57
          1318.02540	         1.05570e+58
          1318.83170	         1.18377e+58
          1319.63800	         1.13070e+58
          1320.44430	         1.15853e+58
          1321.25060	         1.27202e+58
          1322.05690	         1.18767e+58
          1322.86320	         1.07247e+58
          1323.66950	         1.01645e+58
          1324.47580	         8.30306e+57
          1325.28210	         9.02753e+57
          1326.08840	         9.99658e+57
          1326.89470	         1.08939e+58
          1327.70100	         8.51454e+57
          1328.50730	         6.83856e+57
          1329.31360	         9.83317e+57
          1330.11990	         1.03821e+58
          1330.92620	         8.92330e+57
          1331.73250	         9.82016e+57
          1332.53880	         8.54107e+57
          1333.34510	         7.27448e+57
          1334.15140	         7.59084e+57
          1334.95770	         7.59202e+57
          1335.76400	         1.06025e+58
          1336.57030	         1.10029e+58
          1337.37660	         9.21840e+57
          1338.18290	         1.01433e+58
          1338.98920	         1.15617e+58
          1339.79550	         1.07664e+58
          1340.60180	         1.14907e+58
          1341.40810	         1.24493e+58
          1342.21440	         1.16110e+58
          1343.02070	         1.06551e+58
          1343.82700	         1.13985e+58
          1344.63330	         1.17541e+58
          1345.43960	         1.25571e+58
          1346.24590	         1.19644e+58
          1347.05220	         1.32864e+58
          1347.85850	         1.31491e+58
          1348.66480	         1.21948e+58
          1349.47110	         1.31769e+58
          1350.27740	         1.13963e+58
          1351.08370	         1.09963e+58
          1351.89000	         1.07615e+58
          1352.69630	         9.73522e+57
          1353.50260	         1.00112e+58
          1354.30890	         1.10272e+58
          1355.11520	         1.10356e+58
          1355.92150	         1.11147e+58
          1356.72780	         1.04499e+58
          1357.53410	         1.04069e+58
          1358.34040	         1.07429e+58
          1359.14670	         9.50763e+57
          1359.95300	         1.02592e+58
          1360.75930	         1.10039e+58
          1361.56560	         1.14563e+58
          1362.37190	         1.20832e+58
          1363.17820	         1.06527e+58
          1363.98450	         1.00198e+58
          1364.79080	         1.22371e+58
          1365.59710	         1.25074e+58
          1366.40340	         1.03665e+58
          1367.20970	         9.59721e+57
          1368.01600	         9.07485e+57
          1368.82230	         8.32478e+57
          1369.62860	         1.02174e+58
          1370.43490	         9.28036e+57
          1371.24120	         8.68094e+57
          1372.04750	         8.13540e+57
          1372.85380	         1.05985e+58
          1373.66010	         1.16082e+58
          1374.46640	         9.70810e+57
          1375.27270	         9.79602e+57
          1376.07900	         9.34785e+57
          1376.88530	         9.29259e+57
          1377.69160	         8.56694e+57
          1378.49790	         6.06189e+57
          1379.30420	         6.12485e+57
          1380.11050	         7.54072e+57
          1380.91680	         8.38027e+57
          1381.72310	         7.12521e+57
          1382.52940	         6.02923e+57
          1383.33570	         8.30704e+57
          1384.14200	         9.50015e+57
          1384.94830	         9.74853e+57
          1385.75460	         9.06449e+57
          1386.56090	         9.87832e+57
          1387.36720	         1.10991e+58
          1388.17350	         1.32045e+58
          1388.97980	         1.14071e+58
          1389.78610	         8.23283e+57
          1390.59240	         6.50047e+57
          1391.39870	         5.78559e+57
          1392.20500	         8.12648e+57
          1393.01130	         7.61005e+57
          1393.81760	         8.01372e+57
          1394.62390	         8.52697e+57
          1395.43020	         6.96666e+57
          1396.23650	         6.81110e+57
          1397.04280	         6.96500e+57
          1397.84910	         7.70479e+57
          1398.65540	         7.77501e+57
          1399.46170	         8.85405e+57
          1400.26800	         7.66926e+57
          1401.07430	         6.82098e+57
          1401.88060	         7.78616e+57
          1402.68690	         1.02530e+58
          1403.49320	         1.05640e+58
          1404.29950	         9.62620e+57
          1405.10580	         9.92262e+57
          1405.91210	         1.09646e+58
          1406.71840	         9.98282e+57
          1407.52470	         9.49714e+57
          1408.33100	         1.01335e+58
          1409.13730	         1.07267e+58
          1409.94360	         1.17027e+58
          1410.74990	         1.11864e+58
          1411.55620	         9.77164e+57
          1412.36250	         8.53950e+57
          1413.16880	         6.84324e+57
          1413.97510	         7.48513e+57
          1414.78140	         7.86294e+57
          1415.58770	         8.79975e+57
          1416.39400	         9.86827e+57
          1417.20030	         1.11129e+58
          1418.00660	         1.06953e+58
          1418.81290	         1.01278e+58
          1419.61920	         1.02449e+58
          1420.42550	         1.12665e+58
          1421.23180	         1.19988e+58
          1422.03810	         1.15811e+58
          1422.84440	         1.03371e+58
          1423.65070	         1.16000e+58
          1424.45700	         1.17495e+58
          1425.26330	         9.04534e+57
          1426.06960	         8.54733e+57
          1426.87590	         9.29464e+57
          1427.68220	         9.25435e+57
          1428.48850	         9.88037e+57
          1429.29480	         9.94862e+57
          1430.10110	         1.04083e+58
          1430.90740	         8.86786e+57
          1431.71370	         7.85374e+57
          1432.52000	         7.61757e+57
          1433.32630	         6.74404e+57
          1434.13260	         6.96905e+57
          1434.93890	         7.87306e+57
          1435.74520	         8.91235e+57
          1436.55150	         9.77853e+57
          1437.35780	         9.29648e+57
          1438.16410	         8.55426e+57
          1438.97040	         8.01402e+57
          1439.77670	         8.63602e+57
          1440.58300	         9.01721e+57
          1441.38930	         9.04988e+57
          1442.19560	         9.96406e+57
          1443.00190	         1.03617e+58
          1443.80820	         1.10376e+58
          1444.61450	         1.03106e+58
          1445.42080	         7.79572e+57
          1446.22710	         9.14299e+57
          1447.03340	         1.03262e+58
          1447.83970	         1.00747e+58
          1448.64600	         1.02738e+58
          1449.45230	         9.52898e+57
          1450.25860	         9.33926e+57
          1451.06490	         8.21113e+57
          1451.87120	         7.39323e+57
          1452.67750	         8.18305e+57
          1453.48380	         8.99793e+57
          1454.29010	         8.04855e+57
          1455.09640	         6.47220e+57
          1455.90270	         7.29347e+57
          1456.70900	         7.65264e+57
          1457.51530	         9.50105e+57
          1458.32160	         1.07894e+58
          1459.12790	         1.07873e+58
          1459.93420	         9.95788e+57
          1460.74050	         8.10068e+57
          1461.54680	         8.32484e+57
          1462.35310	         8.39101e+57
          1463.15940	         8.21370e+57
          1463.96570	         9.57934e+57
          1464.77200	         1.04275e+58
          1465.57830	         9.31845e+57
          1466.38460	         8.29743e+57
          1467.19090	         7.64047e+57
          1467.99720	         7.90107e+57
          1468.80350	         8.05393e+57
          1469.60980	         8.91143e+57
          1470.41610	         9.24372e+57
          1471.22240	         8.65012e+57
          1472.02870	         9.26933e+57
          1472.83500	         9.32402e+57
          1473.64130	         8.55333e+57
          1474.44760	         8.53809e+57
          1475.25390	         9.35489e+57
          1476.06020	         8.56070e+57
          1476.86650	         7.82079e+57
          1477.67280	         7.13066e+57
          1478.47910	         6.29350e+57
          1479.28540	         7.22516e+57
          1480.09170	         7.45964e+57
          1480.89800	         8.32555e+57
          1481.70430	         8.58995e+57
          1482.51060	         8.08757e+57
          1483.31690	         7.18403e+57
          1484.12320	         6.75996e+57
          1484.92950	         6.98584e+57
          1485.73580	         7.78057e+57
          1486.54210	         8.01345e+57
          1487.34840	         7.44364e+57
          1488.15470	         8.06702e+57
          1488.96100	         8.32641e+57
          1489.76730	         8.12978e+57
          1490.57360	         8.30392e+57
          1491.37990	         8.23542e+57
          1492.18620	         8.24068e+57
          1492.99250	         8.22128e+57
          1493.79880	         7.93489e+57
          1494.60510	         8.12897e+57
          1495.41140	         7.78869e+57
          1496.21770	         8.25937e+57
          1497.02400	         9.29360e+57
          1497.83030	         8.47391e+57
          1498.63660	         7.74872e+57
          1499.44290	         7.20343e+57
          1500.24920	         6.66949e+57
          1501.05550	         6.57097e+57
          1501.86180	         7.06279e+57
          1502.66810	         8.66695e+57
          1503.47440	         9.71243e+57
          1504.28070	         8.46563e+57
          1505.08700	         7.90986e+57
          1505.89330	         8.12547e+57
          1506.69960	         7.80734e+57
          1507.50590	         7.63875e+57
          1508.31220	         7.48726e+57
          1509.11850	         6.86475e+57
          1509.92480	         8.03439e+57
          1510.73110	         8.55315e+57
          1511.53740	         6.87704e+57
          1512.34370	         6.82199e+57
          1513.15000	         8.19438e+57
          1513.95630	         9.05597e+57
          1514.76260	         8.54778e+57
          1515.56890	         8.23752e+57
          1516.37520	         8.82117e+57
          1517.18150	         8.91451e+57
          1517.98780	         7.86433e+57
          1518.79410	         7.37803e+57
          1519.60040	         7.62382e+57
          1520.40670	         9.24250e+57
          1521.21300	         8.75679e+57
          1522.01930	         7.36023e+57
          1522.82560	         8.16919e+57
          1523.63190	         9.25988e+57
          1524.43820	         8.08647e+57
          1525.24450	         6.06111e+57
          1526.05080	         6.06432e+57
          1526.85710	         6.48148e+57
          1527.66340	         7.01542e+57
          1528.46970	         7.51097e+57
          1529.27600	         7.50682e+57
          1530.08230	         7.25603e+57
          1530.88860	         7.35520e+57
          1531.69490	         7.74366e+57
          1532.50120	         8.40461e+57
          1533.30750	         9.54477e+57
          1534.11380	         9.08124e+57
          1534.92010	         8.21538e+57
          1535.72640	         8.05367e+57
          1536.53270	         8.58931e+57
          1537.33900	         7.35878e+57
          1538.14530	         7.25433e+57
          1538.95160	         7.88018e+57
          1539.75790	         7.89684e+57
          1540.56420	         7.94619e+57
          1541.37050	         7.57744e+57
          1542.17680	         6.25109e+57
          1542.98310	         6.36106e+57
          1543.78940	         7.63567e+57
          1544.59570	         6.49159e+57
          1545.40200	         7.25581e+57
          1546.20830	         8.37218e+57
          1547.01460	         9.30065e+57
          1547.82090	         1.12893e+58
          1548.62720	         1.13981e+58
          1549.43350	         1.13875e+58
          1550.23980	         9.76424e+57
          1551.04610	         1.20017e+58
          1551.85240	         1.16284e+58
          1552.65870	         1.05233e+58
          1553.46500	         9.96407e+57
          1554.27130	         9.83750e+57
          1555.07760	         9.40634e+57
          1555.88390	         8.79589e+57
          1556.69020	         8.30950e+57
          1557.49650	         8.80103e+57
          1558.30280	         8.58982e+57
          1559.10910	         8.74003e+57
          1559.91540	         8.62986e+57
          1560.72170	         7.82626e+57
          1561.52800	         7.56717e+57
          1562.33430	         8.57669e+57
          1563.14060	         7.86889e+57
          1563.94690	         7.49191e+57
          1564.75320	         7.83775e+57
          1565.55950	         7.24671e+57
          1566.36580	         6.75106e+57
          1567.17210	         7.67388e+57
          1567.97840	         8.80148e+57
          1568.78470	         8.42130e+57
          1569.59100	         8.23746e+57
          1570.39730	         7.85569e+57
          1571.20360	         7.10449e+57
          1572.00990	         7.48795e+57
          1572.81620	         9.35636e+57
          1573.62250	         1.00375e+58
          1574.42880	         8.74577e+57
          1575.23510	         7.20942e+57
          1576.04140	         6.77495e+57
          1576.84770	         7.52466e+57
          1577.65400	         8.20725e+57
          1578.46030	         8.75068e+57
          1579.26660	         9.40524e+57
          1580.07290	         8.57194e+57
          1580.87920	         7.48632e+57
          1581.68550	         7.16012e+57
          1582.49180	         7.46272e+57
          1583.29810	         7.83160e+57
          1584.10440	         8.61982e+57
          1584.91070	         8.12450e+57
          1585.71700	         8.19693e+57
          1586.52330	         7.94375e+57
          1587.32960	         8.21629e+57
          1588.13590	         8.73949e+57
          1588.94220	         7.88669e+57
          1589.74850	         8.60215e+57
          1590.55480	         9.24995e+57
          1591.36110	         8.86379e+57
          1592.16740	         8.76955e+57
          1592.97370	         8.02830e+57
          1593.78000	         7.73898e+57
          1594.58630	         8.51082e+57
          1595.39260	         9.47584e+57
          1596.19890	         8.72670e+57
          1597.00520	         8.34619e+57
          1597.81150	         8.65924e+57
          1598.61780	         7.23323e+57
          1599.42410	         6.26978e+57
          1600.23040	         5.59268e+57
          1601.03670	         7.05165e+57
          1601.84300	         6.89244e+57
          1602.64930	         7.84645e+57
          1603.45560	         8.06349e+57
          1604.26190	         7.47253e+57
          1605.06820	         7.40608e+57
          1605.87450	         6.91598e+57
          1606.68080	         6.23824e+57
          1607.48710	         6.21275e+57
          1608.29340	         7.07743e+57
          1609.09970	         7.07029e+57
          1609.90600	         6.97710e+57
          1610.71230	         6.07873e+57
          1611.51860	         6.69335e+57
          1612.32490	         6.59634e+57
          1613.13120	         7.79666e+57
          1613.93750	         7.51755e+57
          1614.74380	         7.06524e+57
          1615.55010	         8.10999e+57
          1616.35640	         9.10826e+57
          1617.16270	         9.88391e+57
          1617.96900	         9.61483e+57
          1618.77530	         7.74359e+57
          1619.58160	         7.24646e+57
          1620.38790	         7.57397e+57
          1621.19420	         8.36644e+57
          1622.00050	         6.70203e+57
          1622.80680	         6.90228e+57
          1623.61310	         8.54171e+57
          1624.41940	         8.33678e+57
          1625.22570	         8.20678e+57
          1626.03200	         7.58109e+57
          1626.83830	         7.69639e+57
          1627.64460	         6.52451e+57
          1628.45090	         6.84470e+57
          1629.25720	         8.15848e+57
          1630.06350	         8.60337e+57
          1630.86980	         6.53479e+57
          1631.67610	         6.29029e+57
          1632.48240	         7.66368e+57
          1633.28870	         8.69871e+57
          1634.09500	         1.04961e+58
          1634.90130	         1.14443e+58
          1635.70760	         9.43569e+57
          1636.51390	         7.18193e+57
          1637.32020	         6.69233e+57
          1638.12650	         7.96810e+57
          1638.93280	         8.09386e+57
          1639.73910	         9.18906e+57
          1640.54540	         1.03133e+58
          1641.35170	         9.64528e+57
          1642.15800	         8.60403e+57
          1642.96430	         7.44815e+57
          1643.77060	         7.64694e+57
          1644.57690	         8.16788e+57
          1645.38320	         8.22196e+57
          1646.18950	         6.64082e+57
          1646.99580	         7.58971e+57
          1647.80210	         7.86116e+57
          1648.60840	         7.87470e+57
          1649.41470	         7.75011e+57
          1650.22100	         5.75686e+57
          1651.02730	         5.90356e+57
          1651.83360	         6.64649e+57
          1652.63990	         7.44513e+57
          1653.44620	         8.54347e+57
          1654.25250	         7.76163e+57
          1655.05880	         7.00464e+57
          1655.86510	         7.97602e+57
          1656.67140	         7.35173e+57
          1657.47770	         7.13331e+57
          1658.28400	         7.33928e+57
          1659.09030	         7.98908e+57
          1659.89660	         8.86994e+57
          1660.70290	         8.89623e+57
          1661.50920	         8.74487e+57
          1662.31550	         8.12100e+57
          1663.12180	         7.73128e+57
          1663.92810	         8.59641e+57
          1664.73440	         1.02168e+58
          1665.54070	         1.14079e+58
          1666.34700	         1.14292e+58
          1667.15330	         1.03508e+58
          1667.95960	         9.00863e+57
          1668.76590	         7.39714e+57
          1669.57220	         6.51795e+57
          1670.37850	         7.05135e+57
          1671.18480	         7.26102e+57
          1671.99110	         7.41548e+57
          1672.79740	         6.78283e+57
          1673.60370	         6.61074e+57
          1674.41000	         6.61176e+57
          1675.21630	         6.62000e+57
          1676.02260	         6.59063e+57
          1676.82890	         6.28335e+57
          1677.63520	         5.64363e+57
          1678.44150	         6.68496e+57
          1679.24780	         8.17602e+57
          1680.05410	         7.66261e+57
          1680.86040	         6.47761e+57
          1681.66670	         7.33525e+57
          1682.47300	         7.67311e+57
          1683.27930	         7.51275e+57
          1684.08560	         8.46589e+57
          1684.89190	         8.49898e+57
          1685.69820	         5.26271e+57
          1686.50450	         4.79789e+57
          1687.31080	         6.19361e+57
          1688.11710	         7.09330e+57
          1688.92340	         6.65800e+57
          1689.72970	         7.12344e+57
          1690.53600	         7.11206e+57
          1691.34230	         6.58064e+57
          1692.14860	         7.96441e+57
          1692.95490	         7.56725e+57
          1693.76120	         6.74625e+57
          1694.56750	         7.09561e+57
          1695.37380	         8.64761e+57
          1696.18010	         9.23749e+57
          1696.98640	         8.10443e+57
          1697.79270	         7.66077e+57
          1698.59900	         7.84275e+57
          1699.40530	         7.11931e+57
          1700.21160	         6.91943e+57
          1701.01790	         7.93430e+57
          1701.82420	         6.90250e+57
          1702.63050	         6.77425e+57
          1703.43680	         8.24006e+57
          1704.24310	         7.32492e+57
          1705.04940	         6.63519e+57
          1705.85570	         7.64173e+57
          1706.66200	         8.43023e+57
          1707.46830	         7.76984e+57
          1708.27460	         6.90385e+57
          1709.08090	         7.08826e+57
          1709.88720	         5.74916e+57
          1710.69350	         5.05703e+57
          1711.49980	         5.45332e+57
          1712.30610	         6.44398e+57
          1713.11240	         7.46602e+57
          1713.91870	         6.68207e+57
          1714.72500	         7.76831e+57
          1715.53130	         8.48350e+57
          1716.33760	         7.75006e+57
          1717.14390	         6.49588e+57
          1717.95020	         7.14173e+57
          1718.75650	         7.53643e+57
          1719.56280	         7.45037e+57
          1720.36910	         6.52930e+57
          1721.17540	         6.75669e+57
          1721.98170	         6.97671e+57
          1722.78800	         7.09041e+57
          1723.59430	         7.24180e+57
          1724.40060	         7.95946e+57
          1725.20690	         8.26000e+57
          1726.01320	         8.26846e+57
          1726.81950	         7.34836e+57
          1727.62580	         7.03407e+57
          1728.43210	         6.97226e+57
          1729.23840	         7.05332e+57
          1730.04470	         6.76434e+57
          1730.85100	         6.60570e+57
          1731.65730	         7.18801e+57
          1732.46360	         7.28034e+57
          1733.26990	         7.07110e+57
          1734.07620	         6.85099e+57
          1734.88250	         7.31656e+57
          1735.68880	         7.81839e+57
          1736.49510	         7.69177e+57
          1737.30140	         7.65177e+57
          1738.10770	         6.50614e+57
          1738.91400	         6.95502e+57
          1739.72030	         7.66452e+57
          1740.52660	         5.91755e+57
          1741.33290	         5.07575e+57
          1742.13920	         5.98572e+57
          1742.94550	         7.04239e+57
          1743.75180	         7.44559e+57
          1744.55810	         6.96376e+57
          1745.36440	         6.62315e+57
          1746.17070	         5.29792e+57
          1746.97700	         5.49145e+57
          1747.78330	         6.79577e+57
          1748.58960	         6.69583e+57
          1749.39590	         6.65549e+57
          1750.20220	         6.07055e+57
          1751.00850	         5.68494e+57
          1751.81480	         6.10020e+57
          1752.62110	         6.12862e+57
          1753.42740	         6.63175e+57
          1754.23370	         6.70985e+57
          1755.04000	         5.30820e+57
          1755.84630	         6.54002e+57
          1756.65260	         8.96066e+57
          1757.45890	         8.28713e+57
          1758.26520	         7.39338e+57
          1759.07150	         8.92566e+57
          1759.87780	         7.72627e+57
          1760.68410	         6.72010e+57
          1761.49040	         6.83530e+57
          1762.29670	         6.63075e+57
          1763.10300	         7.26870e+57
          1763.90930	         8.00337e+57
          1764.71560	         8.13637e+57
          1765.52190	         6.92154e+57
          1766.32820	         7.74841e+57
          1767.13450	         6.86454e+57
          1767.94080	         5.82173e+57
          1768.74710	         7.63634e+57
          1769.55340	         7.51745e+57
          1770.35970	         5.98770e+57
          1771.16600	         6.83903e+57
          1771.97230	         7.71136e+57
          1772.77860	         7.62448e+57
          1773.58490	         7.37028e+57
          1774.39120	         5.60565e+57
          1775.19750	         5.01766e+57
          1776.00380	         5.83728e+57
          1776.81010	         6.20139e+57
          1777.61640	         5.98606e+57
          1778.42270	         6.69025e+57
          1779.22900	         6.92247e+57
          1780.03530	         6.82249e+57
          1780.84160	         7.09345e+57
          1781.64790	         8.53559e+57
          1782.45420	         7.44731e+57
          1783.26050	         6.21491e+57
          1784.06680	         7.32743e+57
          1784.87310	         7.77453e+57
          1785.67940	         7.67560e+57
          1786.48570	         6.75864e+57
          1787.29200	         6.01930e+57
          1788.09830	         6.18822e+57
          1788.90460	         6.06740e+57
          1789.71090	         5.21201e+57
          1790.51720	         5.20361e+57
          1791.32350	         6.67322e+57
          1792.12980	         7.29509e+57
          1792.93610	         7.87362e+57
          1793.74240	         7.80297e+57
          1794.54870	         6.86171e+57
          1795.35500	         7.31316e+57
          1796.16130	         7.75388e+57
          1796.96760	         6.77513e+57
          1797.77390	         6.32018e+57
          1798.58020	         7.30864e+57
          1799.38650	         6.74706e+57
          1800.19280	         7.07045e+57
          1800.99910	         7.00024e+57
          1801.80540	         7.35595e+57
          1802.61170	         7.72879e+57
          1803.41800	         7.60440e+57
          1804.22430	         7.03484e+57
          1805.03060	         6.70249e+57
          1805.83690	         7.71048e+57
          1806.64320	         8.12046e+57
          1807.44950	         6.53613e+57
          1808.25580	         6.44564e+57
          1809.06210	         7.71785e+57
          1809.86840	         6.43259e+57
          1810.67470	         6.02721e+57
          1811.48100	         7.14035e+57
          1812.28730	         7.73245e+57
          1813.09360	         6.86330e+57
          1813.89990	         7.75107e+57
          1814.70620	         7.58623e+57
          1815.51250	         6.88117e+57
          1816.31880	         7.42151e+57
          1817.12510	         7.54527e+57
          1817.93140	         6.31214e+57
          1818.73770	         6.14666e+57
          1819.54400	         7.74573e+57
          1820.35030	         7.98324e+57
          1821.15660	         5.59967e+57
          1821.96290	         5.73720e+57
          1822.76920	         7.62711e+57
          1823.57550	         7.65115e+57
          1824.38180	         7.76461e+57
          1825.18810	         7.86839e+57
          1825.99440	         7.79770e+57
          1826.80070	         7.00357e+57
          1827.60700	         6.12794e+57
          1828.41330	         5.34699e+57
          1829.21960	         5.89859e+57
          1830.02590	         6.92418e+57
          1830.83220	         7.51092e+57
          1831.63850	         7.33977e+57
          1832.44480	         6.75239e+57
          1833.25110	         6.69234e+57
          1834.05740	         6.51443e+57
          1834.86370	         5.96649e+57
          1835.67000	         5.23398e+57
          1836.47630	         6.89623e+57
          1837.28260	         8.04784e+57
          1838.08890	         8.04478e+57
          1838.89520	         7.75487e+57
          1839.70150	         7.14681e+57
          1840.50780	         6.78980e+57
          1841.31410	         6.10013e+57
          1842.12040	         6.97082e+57
          1842.92670	         6.83051e+57
          1843.73300	         6.71136e+57
          1844.53930	         6.08224e+57
          1845.34560	         6.48465e+57
          1846.15190	         7.54927e+57
          1846.95820	         7.94395e+57
          1847.76450	         6.55825e+57
          1848.57080	         5.10793e+57
          1849.37710	         5.73021e+57
          1850.18340	         6.90146e+57
          1850.98970	         7.21005e+57
          1851.79600	         6.06655e+57
          1852.60230	         5.42875e+57
          1853.40860	         6.41141e+57
          1854.21490	         7.06994e+57
          1855.02120	         6.93831e+57
          1855.82750	         5.18941e+57
          1856.63380	         5.34423e+57
          1857.44010	         5.93416e+57
          1858.24640	         6.46446e+57
          1859.05270	         6.19831e+57
          1859.85900	         5.93359e+57
          1860.66530	         4.99309e+57
          1861.47160	         5.84338e+57
          1862.27790	         7.29553e+57
          1863.08420	         7.88996e+57
          1863.89050	         8.06929e+57
          1864.69680	         6.70175e+57
          1865.50310	         6.68704e+57
          1866.30940	         6.24365e+57
          1867.11570	         6.26719e+57
          1867.92200	         7.00401e+57
          1868.72830	         7.19914e+57
          1869.53460	         6.72738e+57
          1870.34090	         7.19881e+57
          1871.14720	         7.92436e+57
          1871.95350	         7.26383e+57
          1872.75980	         6.60627e+57
          1873.56610	         5.95778e+57
          1874.37240	         5.64796e+57
          1875.17870	         5.81055e+57
          1875.98500	         7.01920e+57
          1876.79130	         7.63045e+57
          1877.59760	         7.03359e+57
          1878.40390	         6.08457e+57
          1879.21020	         5.55005e+57
          1880.01650	         6.81270e+57
          1880.82280	         8.23812e+57
          1881.62910	         9.21809e+57
          1882.43540	         9.28317e+57
          1883.24170	         6.92181e+57
          1884.04800	         6.03912e+57
          1884.85430	         6.70168e+57
          1885.66060	         7.66911e+57
          1886.46690	         8.20330e+57
          1887.27320	         7.92102e+57
          1888.07950	         5.91273e+57
          1888.88580	         5.83266e+57
          1889.69210	         7.82815e+57
          1890.49840	         7.50410e+57
          1891.30470	         7.22883e+57
          1892.11100	         8.12055e+57
          1892.91730	         8.19864e+57
          1893.72360	         7.96417e+57
          1894.52990	         7.09589e+57
          1895.33620	         7.16931e+57
          1896.14250	         6.11394e+57
          1896.94880	         5.64349e+57
          1897.75510	         4.57830e+57
          1898.56140	         5.53017e+57
          1899.36770	         6.99412e+57
          1900.17400	         5.17546e+57
          1900.98030	         5.10264e+57
          1901.78660	         5.95586e+57
          1902.59290	         6.38282e+57
          1903.39920	         7.78477e+57
          1904.20550	         9.32823e+57
          1905.01180	         9.60411e+57
          1905.81810	         1.06068e+58
          1906.62440	         1.29706e+58
          1907.43070	         1.56449e+58
          1908.23700	         1.39829e+58
          1909.04330	         1.17995e+58
          1909.84960	         9.61926e+57
          1910.65590	         8.64092e+57
          1911.46220	         8.49817e+57
          1912.26850	         7.25187e+57
          1913.07480	         5.59291e+57
          1913.88110	         5.57581e+57
          1914.68740	         5.53464e+57
          1915.49370	         5.37356e+57
          1916.30000	         5.55270e+57
          1917.10630	         6.41099e+57
          1917.91260	         6.42450e+57
          1918.71890	         5.39737e+57
          1919.52520	         5.51190e+57
          1920.33150	         4.61326e+57
          1921.13780	         5.61228e+57
          1921.94410	         7.21412e+57
          1922.75040	         7.14460e+57
          1923.55670	         7.46533e+57
          1924.36300	         6.79420e+57
          1925.16930	         5.89366e+57
          1925.97560	         5.13589e+57
          1926.78190	         4.16552e+57
          1927.58820	         5.48966e+57
          1928.39450	         5.81163e+57
          1929.20080	         4.40434e+57
          1930.00710	         6.59489e+57
          1930.81340	         8.20897e+57
          1931.61970	         6.24641e+57
          1932.42600	         7.06787e+57
          1933.23230	         7.54857e+57
          1934.03860	         5.92376e+57
          1934.84490	         5.70610e+57
          1935.65120	         7.38036e+57
          1936.45750	         9.44908e+57
          1937.26380	         7.19121e+57
          1938.07010	         7.55000e+57
          1938.87640	         7.75246e+57
          1939.68270	         7.09581e+57
          1940.48900	         7.53445e+57
          1941.29530	         6.87879e+57
          1942.10160	         7.66216e+57
          1942.90790	         7.13178e+57
          1943.71420	         6.36396e+57
          1944.52050	         6.27856e+57
          1945.32680	         4.89502e+57
          1946.13310	         5.48731e+57
          1946.93940	         6.81498e+57
          1947.74570	         6.57465e+57
          1948.55200	         5.94244e+57
          1949.35830	         6.39873e+57
          1950.16460	         6.55622e+57
          1950.97090	         6.11333e+57
          1951.77720	         7.13343e+57
          1952.58350	         7.66854e+57
          1953.38980	         5.72743e+57
          1954.19610	         3.48894e+57
          1955.00240	         3.80507e+57
          1955.80870	         5.24678e+57
          1956.61500	         5.93460e+57
          1957.42130	         5.60779e+57
          1958.22760	         6.04079e+57
          1959.03390	         6.31196e+57
          1959.84020	         6.70049e+57
          1960.64650	         7.16096e+57
          1961.45280	         6.05392e+57
          1962.25910	         5.20503e+57
          1963.06540	         5.64935e+57
          1963.87170	         5.24501e+57
          1964.67800	         6.63716e+57
          1965.48430	         7.53947e+57
          1966.29060	         5.94886e+57
          1967.09690	         6.04465e+57
          1967.90320	         6.44682e+57
          1968.70950	         6.84967e+57
          1969.51580	         5.43380e+57
          1970.32210	         5.66242e+57
          1971.12840	         5.75878e+57
          1971.93470	         3.33662e+57
          1972.74100	         4.58022e+57
          1973.54730	         6.36836e+57
          1974.35360	         5.52954e+57
          1975.15990	         6.12375e+57
          1975.96620	         6.55254e+57
          1976.77250	         7.46730e+57
          1977.57880	         7.46935e+57
          1978.38510	         5.90086e+57
          1979.19140	         6.73991e+57
          1979.99770	         6.53133e+57
          1980.80400	         7.18249e+57
          1981.61030	         6.04044e+57
          1982.41660	         5.43582e+57
          1983.22290	         5.23042e+57
          1984.02920	         5.54811e+57
          1984.83550	         5.63231e+57
          1985.64180	         6.26012e+57
          1986.44810	         6.60423e+57
          1987.25440	         5.98003e+57
          1988.06070	         5.57521e+57
          1988.86700	         6.12486e+57
          1989.67330	         6.65881e+57
          1990.47960	         5.87270e+57
          1991.28590	         5.83529e+57
          1992.09220	         5.09560e+57
          1992.89850	         5.09199e+57
          1993.70480	         5.68631e+57
          1994.51110	         4.55333e+57
          1995.31740	         4.85724e+57
          1996.12370	         5.45770e+57
          1996.93000	         7.01524e+57
          1997.73630	         7.74889e+57
          1998.54260	         6.67408e+57
          1999.34890	         5.44206e+57
          2000.15520	         6.36723e+57
          2000.96150	         6.17085e+57
          2001.76780	         5.24849e+57
          2002.57410	         4.17006e+57
          2003.38040	         5.74231e+57
          2004.18670	         5.62515e+57
          2004.99300	         6.17230e+57
          2005.79930	         6.77903e+57
          2006.60560	         6.86770e+57
          2007.41190	         5.97638e+57
          2008.21820	         5.80486e+57
          2009.02450	         5.79984e+57
          2009.83080	         6.68100e+57
          2010.63710	         6.84448e+57
          2011.44340	         6.06897e+57
          2012.24970	         6.78589e+57
          2013.05600	         7.33408e+57
          2013.86230	         6.21111e+57
          2014.66860	         5.60566e+57
          2015.47490	         6.28438e+57
          2016.28120	         6.41022e+57
          2017.08750	         6.40040e+57
          2017.89380	         7.10309e+57
          2018.70010	         6.16560e+57
          2019.50640	         5.68011e+57
          2020.31270	         7.17349e+57
          2021.11900	         7.07576e+57
          2021.92530	         6.17073e+57
          2022.73160	         7.23683e+57
          2023.53790	         7.07383e+57
          2024.34420	         5.75563e+57
          2025.15050	         4.79887e+57
          2025.95680	         5.54503e+57
          2026.76310	         6.03323e+57
          2027.56940	         5.33175e+57
          2028.37570	         5.59925e+57
          2029.18200	         4.97170e+57
          2029.98830	         5.61611e+57
          2030.79460	         6.97877e+57
          2031.60090	         6.63766e+57
          2032.40720	         5.11481e+57
          2033.21350	         5.28758e+57
          2034.01980	         5.22144e+57
          2034.82610	         4.59423e+57
          2035.63240	         4.86716e+57
          2036.43870	         6.15514e+57
          2037.24500	         6.21843e+57
          2038.05130	         5.84311e+57
          2038.85760	         6.49953e+57
          2039.66390	         5.69108e+57
          2040.47020	         5.19926e+57
          2041.27650	         5.65494e+57
          2042.08280	         5.04440e+57
          2042.88910	         5.02968e+57
          2043.69540	         6.18897e+57
          2044.50170	         6.35393e+57
          2045.30800	         7.05124e+57
          2046.11430	         6.21005e+57
          2046.92060	         5.35541e+57
          2047.72690	         5.66486e+57
          2048.53320	         5.63465e+57
          2049.33950	         4.58789e+57
          2050.14580	         4.55627e+57
          2050.95210	         6.51520e+57
          2051.75840	         6.69417e+57
          2052.56470	         5.06908e+57
          2053.37100	         4.66841e+57
          2054.17730	         5.33206e+57
          2054.98360	         4.37936e+57
          2055.78990	         2.38092e+57
          2056.59620	         2.82383e+57
          2057.40250	         5.53918e+57
          2058.20880	         6.93585e+57
          2059.01510	         4.90122e+57
          2059.82140	         4.86711e+57
          2060.62770	         1.03467e+58
          2061.43400	         1.58226e+58
          2062.24030	         1.58983e+58
          2063.04660	         6.45127e+57
          2063.85290	         1.74569e+57
          2064.65920	        -5.11365e+57
          2065.46550	        -9.76579e+57
          2066.27180	        -8.54709e+57
          2067.07810	         2.84955e+57
          2067.88440	         4.47168e+57
          2068.69070	         4.85964e+57
          2069.49700	         4.10320e+57
          2070.30330	         2.54201e+57
          2071.10960	         4.77723e+57
          2071.91590	         5.60226e+57
          2072.72220	         4.03740e+57
          2073.52850	         5.60305e+57
          2074.33480	         4.68394e+57
          2075.14110	         5.18564e+57
          2075.94740	         4.75632e+57
          2076.75370	         3.66173e+57
          2077.56000	         4.49092e+57
          2078.36630	         4.42626e+57
          2079.17260	         5.01494e+57
          2079.97890	         5.31509e+57
          2080.78520	         6.29947e+57
          2081.59150	         5.02726e+57
          2082.39780	         5.23774e+57
          2083.20410	         3.41091e+57
          2084.01040	         2.13097e+57
          2084.81670	         4.25728e+57
          2085.62300	         3.04396e+57
          2086.42930	         3.97106e+57
          2087.23560	         2.55949e+57
          2088.04190	         1.73695e+57
          2088.84820	         2.87341e+57
          2089.65450	         3.12190e+57
          2090.46080	         1.93878e+57
          2091.26710	         1.77450e+57
          2092.07340	         2.42194e+57
          2092.87970	         2.34147e+57
          2093.68600	         1.67822e+56
          2094.49230	         1.26445e+57
          2095.29860	         4.18855e+57
          2096.10490	         1.05404e+57
          2096.91120	        -2.49355e+56
          2097.71750	         2.12599e+57
          2098.52380	         2.12990e+57
          2099.33010	         2.94031e+57
          2100.13640	         1.43218e+57
          2100.94270	         2.16373e+57
          2101.74900	         3.64466e+57
          2102.55530	         4.23845e+57
          2103.36160	         2.18273e+57
          2104.16790	         2.47257e+57
          2104.97420	         1.30470e+57
          2105.78050	        -9.03689e+55
          2106.58680	         2.54808e+57
          2107.39310	        -1.81575e+56
          2108.19940	        -9.64713e+53
          2109.00570	        -4.35661e+56
          2109.81200	         1.13767e+57
          2110.61830	         3.06029e+57
          2111.42460	         1.67146e+57
          2112.23090	         9.25530e+56
          2113.03720	        -3.70334e+56
          2113.84350	         9.25985e+56
          2114.64980	         4.85753e+57
          2115.45610	        -3.95776e+56
          2116.26240	        -3.69759e+57
          2117.06870	         4.01964e+56
          2117.87500	        -1.75702e+57
          2118.68130	        -1.69839e+57
          2119.48760	        -1.14654e+57
          2120.29390	        -2.97264e+57
          2121.10020	        -2.82149e+57
          2121.90650	         1.31479e+57
          2122.71280	        -1.74626e+57
          2123.51910	        -1.16198e+57
          2124.32540	        -1.27693e+57
          2125.13170	        -2.75601e+57
          2125.93800	         2.72996e+56
          2126.74430	        -1.00626e+58
          2127.55060	        -2.85971e+57
          2128.35690	        -4.79578e+56
          2129.16320	        -2.61253e+57
          2129.96950	        -7.26809e+57
          2130.77580	        -6.20929e+56
          2131.58210	         2.14990e+57
          2132.38840	         3.64644e+57
          2133.19470	        -1.91720e+57
          2134.00100	        -7.20515e+56
          2134.80730	        -4.44158e+57
          2135.61360	        -2.52386e+57
          2136.41990	         8.67126e+57
          2137.22620	         1.26148e+58
          2138.03250	         2.89140e+57
          2138.83880	        -8.68362e+57
          2139.64510	        -6.23595e+57
          2140.45140	        -5.67728e+57
          2141.25770	        -5.27592e+57
          2142.06400	        -2.98937e+57
          2142.87030	         4.97999e+57
          2143.67660	         4.76822e+57
          2144.48290	         8.98564e+57
          2145.28920	         1.21810e+58
          2146.09550	        -1.31819e+57
          2146.90180	        -6.89153e+57
          2147.70810	        -7.07012e+57
          2148.51440	        -6.89438e+57
          2149.32070	        -5.35588e+57
          2150.12700	        -8.81263e+57
          2150.93330	        -2.45043e+57
          2151.73960	        -9.80688e+56
          2152.54590	         6.82662e+57
          2153.35220	        -6.25000e+56
          2154.15850	        -4.67679e+57
          2154.96480	        -9.53433e+56
          2155.77110	        -4.33886e+57
          2156.57740	        -5.03247e+57
          2157.38370	        -1.03244e+58
          2158.19000	        -6.53485e+57
          2158.99630	         5.39744e+56
          2159.80260	        -1.13335e+58
          2160.60890	        -1.64702e+57
          2161.41520	         1.82437e+57
          2162.22150	         1.08027e+57
          2163.02780	        -1.29007e+57
          2163.83410	        -6.45122e+57
          2164.64040	        -9.34984e+57
          2165.44670	        -1.31926e+58
          2166.25300	        -1.74923e+58
          2167.05930	        -9.78693e+57
          2167.86560	        -2.23364e+57
          2168.67190	         3.82136e+57
          2169.47820	        -3.11928e+57
          2170.28450	        -3.53009e+57
          2171.09080	        -2.91728e+56
          2171.89710	         2.23511e+57
          2172.70340	         1.46506e+57
          2173.50970	        -4.16468e+57
          2174.31600	        -3.13104e+57
          2175.12230	         3.23401e+57
          2175.92860	        -4.29912e+57
          2176.73490	        -8.69723e+57
          2177.54120	        -1.43873e+57
          2178.34750	        -3.74319e+57
          2179.15380	                 nan
          2179.96010	                 nan
          2180.76640	                 nan
          2181.57270	                 nan
          2182.37900	                 nan
          2183.18530	                 nan
          2183.99160	                 nan
          2184.79790	                 nan
          2185.60420	                 nan
          2186.41050	                 nan
          2187.21680	                 nan
          2188.02310	                 nan
          2188.82940	                 nan
          2189.63570	                 nan
          2190.44200	                 nan
          2191.24830	                 nan
          2192.05460	                 nan
          2192.86090	                 nan
          2193.66720	                 nan
          2194.47350	                 nan
          2195.27980	                 nan
          2196.08610	                 nan
          2196.89240	                 nan
          2197.69870	                 nan
          2198.50500	                 nan
          2199.31130	                 nan
          2200.11760	                 nan
          2200.92390	                 nan
          2201.73020	                 nan
          2202.53650	                 nan
          2203.34280	                 nan
          2204.14910	                 nan
          2204.95540	                 nan
          2205.76170	                 nan
          2206.56800	                 nan
          2207.37430	                 nan
          2208.18060	                 nan
          2208.98690	                 nan
          2209.79320	                 nan
          2210.59950	                 nan
          2211.40580	                 nan
          2212.21210	                 nan
          2213.01840	                 nan
          2213.82470	                 nan
          2214.63100	                 nan
          2215.43730	         0.00000e+00
