#sample_103_stacked_spectrum_rest_UV-bands_median_H-alpha_noDC.txt
#median Lum: 1.70434e+42
#Rest-frame wavelength (A) | Luminosity (erg/s/A)
#
          1110.00000	         0.00000e+00
          1110.80630	        -4.13259e+59
          1111.61260	         2.18522e+59
          1112.41890	         1.37351e+58
          1113.22520	         1.88017e+59
          1114.03150	         3.13633e+59
          1114.83780	         3.64263e+59
          1115.64410	         1.84751e+59
          1116.45040	         1.32373e+59
          1117.25670	         1.34633e+59
          1118.06300	         2.14640e+58
          1118.86930	        -1.01246e+59
          1119.67560	         1.17136e+59
          1120.48190	        -2.88177e+57
          1121.28820	        -8.98658e+58
          1122.09450	         3.70905e+58
          1122.90080	         2.98617e+58
          1123.70710	         4.62099e+58
          1124.51340	         5.84939e+58
          1125.31970	        -3.43146e+57
          1126.12600	         1.04709e+58
          1126.93230	        -5.14087e+58
          1127.73860	        -3.22030e+58
          1128.54490	         4.69597e+58
          1129.35120	         2.88593e+58
          1130.15750	        -3.18720e+58
          1130.96380	        -3.02752e+58
          1131.77010	         2.59106e+58
          1132.57640	         1.90705e+58
          1133.38270	         3.61559e+58
          1134.18900	         2.75595e+58
          1134.99530	         9.31063e+57
          1135.80160	        -8.34500e+57
          1136.60790	        -1.03363e+58
          1137.41420	        -3.51786e+58
          1138.22050	         1.88840e+58
          1139.02680	         4.43305e+58
          1139.83310	         2.85708e+58
          1140.63940	         3.63899e+58
          1141.44570	        -1.92191e+58
          1142.25200	        -1.75043e+58
          1143.05830	         5.00453e+57
          1143.86460	         1.95225e+58
          1144.67090	         2.55084e+58
          1145.47720	         1.59841e+58
          1146.28350	         1.17024e+58
          1147.08980	         1.92634e+58
          1147.89610	         2.31968e+58
          1148.70240	         2.16990e+58
          1149.50870	         1.34063e+58
          1150.31500	         1.55423e+58
          1151.12130	         1.27790e+58
          1151.92760	         1.06718e+58
          1152.73390	         1.49442e+58
          1153.54020	         7.60500e+57
          1154.34650	         2.75590e+58
          1155.15280	         3.03813e+58
          1155.95910	         1.44172e+58
          1156.76540	         1.27916e+58
          1157.57170	         7.42985e+57
          1158.37800	         4.76208e+57
          1159.18430	        -6.65791e+57
          1159.99060	        -3.98411e+56
          1160.79690	         1.42662e+57
          1161.60320	         1.94981e+58
          1162.40950	         1.46533e+58
          1163.21580	         1.48350e+58
          1164.02210	         1.38034e+58
          1164.82840	         5.01732e+57
          1165.63470	         1.30132e+58
          1166.44100	         3.37356e+58
          1167.24730	         2.63831e+58
          1168.05360	         9.13674e+57
          1168.85990	         4.61087e+57
          1169.66620	         1.33944e+58
          1170.47250	         1.51605e+58
          1171.27880	         1.38516e+58
          1172.08510	         1.62743e+58
          1172.89140	         1.05817e+58
          1173.69770	         4.94927e+57
          1174.50400	         7.34917e+57
          1175.31030	         1.31163e+58
          1176.11660	         1.75930e+58
          1176.92290	         1.68852e+58
          1177.72920	         8.36960e+57
          1178.53550	         7.06826e+57
          1179.34180	         1.02216e+58
          1180.14810	         7.48020e+57
          1180.95440	         4.19403e+57
          1181.76070	         4.01846e+57
          1182.56700	         7.61028e+57
          1183.37330	         7.68713e+57
          1184.17960	         1.34073e+58
          1184.98590	         1.55231e+58
          1185.79220	         1.18259e+58
          1186.59850	         1.39535e+58
          1187.40480	         9.67397e+57
          1188.21110	         1.12832e+58
          1189.01740	         1.11969e+58
          1189.82370	         1.52735e+58
          1190.63000	         1.27916e+58
          1191.43630	         1.25102e+58
          1192.24260	         8.65744e+57
          1193.04890	         1.33325e+58
          1193.85520	         1.50762e+58
          1194.66150	         9.59761e+57
          1195.46780	         5.96938e+57
          1196.27410	         1.14537e+58
          1197.08040	         1.13637e+58
          1197.88670	         1.09618e+58
          1198.69300	         1.65597e+58
          1199.49930	         1.78223e+58
          1200.30560	         1.74892e+58
          1201.11190	         1.17618e+58
          1201.91820	         6.33818e+57
          1202.72450	         7.61851e+57
          1203.53080	         1.22671e+58
          1204.33710	         9.27140e+57
          1205.14340	         8.44719e+57
          1205.94970	         6.03158e+57
          1206.75600	         8.69114e+57
          1207.56230	         7.34874e+57
          1208.36860	         8.13978e+57
          1209.17490	         6.65622e+57
          1209.98120	         9.75876e+57
          1210.78750	         9.27772e+57
          1211.59380	         1.30188e+58
          1212.40010	         1.97570e+58
          1213.20640	         2.18904e+58
          1214.01270	         1.90477e+58
          1214.81900	         2.42066e+58
          1215.62530	         4.29524e+58
          1216.43160	         8.75360e+58
          1217.23790	         1.55445e+59
          1218.04420	         1.18193e+59
          1218.85050	         8.70860e+58
          1219.65680	         5.93251e+58
          1220.46310	         3.44644e+58
          1221.26940	         1.95040e+58
          1222.07570	         1.31780e+58
          1222.88200	         1.26831e+58
          1223.68830	         9.18679e+57
          1224.49460	         4.31210e+57
          1225.30090	         5.96925e+57
          1226.10720	         3.86597e+57
          1226.91350	         4.48479e+57
          1227.71980	         9.73403e+57
          1228.52610	         8.66893e+57
          1229.33240	         8.71878e+57
          1230.13870	         1.30399e+58
          1230.94500	         8.98078e+57
          1231.75130	         7.25382e+57
          1232.55760	         8.16421e+57
          1233.36390	         5.43598e+57
          1234.17020	         8.10093e+57
          1234.97650	         8.89759e+57
          1235.78280	         8.38201e+57
          1236.58910	         9.06105e+57
          1237.39540	         1.25625e+58
          1238.20170	         1.25217e+58
          1239.00800	         9.24226e+57
          1239.81430	         1.03551e+58
          1240.62060	         7.90019e+57
          1241.42690	         8.84302e+57
          1242.23320	         1.29522e+58
          1243.03950	         8.72297e+57
          1243.84580	         7.02141e+57
          1244.65210	         9.47809e+57
          1245.45840	         1.10533e+58
          1246.26470	         1.21271e+58
          1247.07100	         8.51934e+57
          1247.87730	         6.97792e+57
          1248.68360	         5.92098e+57
          1249.48990	         7.25832e+57
          1250.29620	         6.35172e+57
          1251.10250	         5.83992e+57
          1251.90880	         3.11230e+57
          1252.71510	         2.44951e+57
          1253.52140	         7.07864e+57
          1254.32770	         1.16293e+58
          1255.13400	         1.45030e+58
          1255.94030	         1.13536e+58
          1256.74660	         8.13113e+57
          1257.55290	         9.29389e+57
          1258.35920	         7.85905e+57
          1259.16550	         4.33563e+57
          1259.97180	         4.90473e+57
          1260.77810	         6.72471e+57
          1261.58440	         9.94837e+57
          1262.39070	         8.79517e+57
          1263.19700	         8.84472e+57
          1264.00330	         8.86292e+57
          1264.80960	         1.02614e+58
          1265.61590	         1.19300e+58
          1266.42220	         1.25422e+58
          1267.22850	         1.18345e+58
          1268.03480	         1.35107e+58
          1268.84110	         1.51127e+58
          1269.64740	         1.48384e+58
          1270.45370	         1.56689e+58
          1271.26000	         1.35001e+58
          1272.06630	         1.07538e+58
          1272.87260	         1.17951e+58
          1273.67890	         1.22029e+58
          1274.48520	         1.17883e+58
          1275.29150	         1.09731e+58
          1276.09780	         1.21335e+58
          1276.90410	         1.66944e+58
          1277.71040	         1.41589e+58
          1278.51670	         1.12796e+58
          1279.32300	         1.31908e+58
          1280.12930	         1.33623e+58
          1280.93560	         1.22976e+58
          1281.74190	         1.12353e+58
          1282.54820	         1.34639e+58
          1283.35450	         1.11749e+58
          1284.16080	         9.51380e+57
          1284.96710	         1.35166e+58
          1285.77340	         1.14403e+58
          1286.57970	         1.09399e+58
          1287.38600	         1.58440e+58
          1288.19230	         1.82734e+58
          1288.99860	         1.46987e+58
          1289.80490	         1.09608e+58
          1290.61120	         1.47994e+58
          1291.41750	         1.64824e+58
          1292.22380	         1.27504e+58
          1293.03010	         1.00492e+58
          1293.83640	         9.03637e+57
          1294.64270	         7.93300e+57
          1295.44900	         6.36967e+57
          1296.25530	         7.38981e+57
          1297.06160	         8.44886e+57
          1297.86790	         8.37354e+57
          1298.67420	         8.18128e+57
          1299.48050	         9.52712e+57
          1300.28680	         1.03151e+58
          1301.09310	         6.82930e+57
          1301.89940	         3.61496e+57
          1302.70570	         5.59135e+57
          1303.51200	         7.83768e+57
          1304.31830	         1.04053e+58
          1305.12460	         1.12306e+58
          1305.93090	         1.15696e+58
          1306.73720	         1.24422e+58
          1307.54350	         1.44220e+58
          1308.34980	         1.48693e+58
          1309.15610	         1.45006e+58
          1309.96240	         1.40698e+58
          1310.76870	         1.23279e+58
          1311.57500	         9.64499e+57
          1312.38130	         1.01912e+58
          1313.18760	         1.39175e+58
          1313.99390	         1.51788e+58
          1314.80020	         1.41660e+58
          1315.60650	         1.39964e+58
          1316.41280	         1.11896e+58
          1317.21910	         9.41759e+57
          1318.02540	         1.05246e+58
          1318.83170	         1.34538e+58
          1319.63800	         1.37054e+58
          1320.44430	         1.26748e+58
          1321.25060	         1.26463e+58
          1322.05690	         1.25193e+58
          1322.86320	         1.22121e+58
          1323.66950	         1.21550e+58
          1324.47580	         1.00139e+58
          1325.28210	         8.93683e+57
          1326.08840	         1.05378e+58
          1326.89470	         1.25415e+58
          1327.70100	         1.22013e+58
          1328.50730	         9.06522e+57
          1329.31360	         7.58909e+57
          1330.11990	         9.16639e+57
          1330.92620	         9.23322e+57
          1331.73250	         1.19601e+58
          1332.53880	         1.13585e+58
          1333.34510	         1.07247e+58
          1334.15140	         9.85575e+57
          1334.95770	         8.78215e+57
          1335.76400	         1.05173e+58
          1336.57030	         1.14520e+58
          1337.37660	         1.01816e+58
          1338.18290	         1.15889e+58
          1338.98920	         1.24065e+58
          1339.79550	         1.06105e+58
          1340.60180	         1.13739e+58
          1341.40810	         1.28967e+58
          1342.21440	         1.10721e+58
          1343.02070	         1.16733e+58
          1343.82700	         1.30061e+58
          1344.63330	         1.28201e+58
          1345.43960	         1.26737e+58
          1346.24590	         1.14007e+58
          1347.05220	         1.30045e+58
          1347.85850	         1.26944e+58
          1348.66480	         1.26833e+58
          1349.47110	         1.33302e+58
          1350.27740	         1.12401e+58
          1351.08370	         1.05631e+58
          1351.89000	         1.08772e+58
          1352.69630	         1.14843e+58
          1353.50260	         1.15365e+58
          1354.30890	         1.04603e+58
          1355.11520	         1.24102e+58
          1355.92150	         1.22722e+58
          1356.72780	         1.08910e+58
          1357.53410	         1.10082e+58
          1358.34040	         1.20689e+58
          1359.14670	         1.09809e+58
          1359.95300	         9.99253e+57
          1360.75930	         1.04928e+58
          1361.56560	         1.03467e+58
          1362.37190	         1.11243e+58
          1363.17820	         1.19094e+58
          1363.98450	         1.28679e+58
          1364.79080	         1.36685e+58
          1365.59710	         1.23746e+58
          1366.40340	         1.16928e+58
          1367.20970	         1.09663e+58
          1368.01600	         9.97612e+57
          1368.82230	         9.22682e+57
          1369.62860	         1.00765e+58
          1370.43490	         1.11747e+58
          1371.24120	         1.03185e+58
          1372.04750	         9.16499e+57
          1372.85380	         1.20159e+58
          1373.66010	         1.27729e+58
          1374.46640	         1.00434e+58
          1375.27270	         9.16164e+57
          1376.07900	         8.19780e+57
          1376.88530	         7.86303e+57
          1377.69160	         8.09303e+57
          1378.49790	         6.85312e+57
          1379.30420	         6.86897e+57
          1380.11050	         9.61110e+57
          1380.91680	         9.24244e+57
          1381.72310	         8.73578e+57
          1382.52940	         8.61228e+57
          1383.33570	         8.34405e+57
          1384.14200	         9.13437e+57
          1384.94830	         1.07441e+58
          1385.75460	         1.05853e+58
          1386.56090	         1.04805e+58
          1387.36720	         1.11094e+58
          1388.17350	         1.20094e+58
          1388.97980	         1.12014e+58
          1389.78610	         1.03365e+58
          1390.59240	         7.47467e+57
          1391.39870	         7.75713e+57
          1392.20500	         9.51918e+57
          1393.01130	         8.13804e+57
          1393.81760	         7.89526e+57
          1394.62390	         8.80482e+57
          1395.43020	         6.92171e+57
          1396.23650	         6.09854e+57
          1397.04280	         8.44488e+57
          1397.84910	         8.84355e+57
          1398.65540	         8.23056e+57
          1399.46170	         1.05010e+58
          1400.26800	         9.39465e+57
          1401.07430	         8.02190e+57
          1401.88060	         6.86820e+57
          1402.68690	         8.52979e+57
          1403.49320	         9.99954e+57
          1404.29950	         1.04232e+58
          1405.10580	         1.17829e+58
          1405.91210	         1.22943e+58
          1406.71840	         1.11341e+58
          1407.52470	         9.81109e+57
          1408.33100	         1.02382e+58
          1409.13730	         1.14621e+58
          1409.94360	         1.14030e+58
          1410.74990	         1.11366e+58
          1411.55620	         1.06558e+58
          1412.36250	         1.05183e+58
          1413.16880	         9.81261e+57
          1413.97510	         8.54375e+57
          1414.78140	         8.87449e+57
          1415.58770	         1.08519e+58
          1416.39400	         1.19937e+58
          1417.20030	         1.05328e+58
          1418.00660	         8.66826e+57
          1418.81290	         9.48812e+57
          1419.61920	         1.01367e+58
          1420.42550	         1.39164e+58
          1421.23180	         1.40905e+58
          1422.03810	         1.25840e+58
          1422.84440	         1.26658e+58
          1423.65070	         1.33974e+58
          1424.45700	         1.13714e+58
          1425.26330	         7.97205e+57
          1426.06960	         9.01287e+57
          1426.87590	         1.12527e+58
          1427.68220	         9.79364e+57
          1428.48850	         1.07259e+58
          1429.29480	         1.15409e+58
          1430.10110	         9.45543e+57
          1430.90740	         7.90632e+57
          1431.71370	         8.27783e+57
          1432.52000	         9.02642e+57
          1433.32630	         8.64484e+57
          1434.13260	         7.85456e+57
          1434.93890	         9.05366e+57
          1435.74520	         9.40520e+57
          1436.55150	         9.84651e+57
          1437.35780	         9.44323e+57
          1438.16410	         8.46287e+57
          1438.97040	         8.60437e+57
          1439.77670	         8.35098e+57
          1440.58300	         9.78245e+57
          1441.38930	         9.69181e+57
          1442.19560	         8.94317e+57
          1443.00190	         9.66132e+57
          1443.80820	         1.11320e+58
          1444.61450	         1.07315e+58
          1445.42080	         9.17231e+57
          1446.22710	         1.04998e+58
          1447.03340	         1.03583e+58
          1447.83970	         1.10747e+58
          1448.64600	         1.15733e+58
          1449.45230	         1.11722e+58
          1450.25860	         1.03674e+58
          1451.06490	         9.49869e+57
          1451.87120	         8.77559e+57
          1452.67750	         7.77505e+57
          1453.48380	         8.20238e+57
          1454.29010	         7.60277e+57
          1455.09640	         8.91287e+57
          1455.90270	         1.00262e+58
          1456.70900	         8.24921e+57
          1457.51530	         8.68015e+57
          1458.32160	         1.18908e+58
          1459.12790	         1.19119e+58
          1459.93420	         9.92880e+57
          1460.74050	         7.81001e+57
          1461.54680	         8.46881e+57
          1462.35310	         8.96798e+57
          1463.15940	         1.00308e+58
          1463.96570	         1.20265e+58
          1464.77200	         1.21913e+58
          1465.57830	         9.61808e+57
          1466.38460	         9.19655e+57
          1467.19090	         9.54717e+57
          1467.99720	         1.02296e+58
          1468.80350	         9.92475e+57
          1469.60980	         9.04080e+57
          1470.41610	         9.20111e+57
          1471.22240	         8.22051e+57
          1472.02870	         8.57899e+57
          1472.83500	         1.02094e+58
          1473.64130	         9.98947e+57
          1474.44760	         1.04455e+58
          1475.25390	         9.33291e+57
          1476.06020	         9.00962e+57
          1476.86650	         8.74286e+57
          1477.67280	         8.11364e+57
          1478.47910	         7.94179e+57
          1479.28540	         8.75654e+57
          1480.09170	         1.02169e+58
          1480.89800	         1.00680e+58
          1481.70430	         9.01625e+57
          1482.51060	         7.94679e+57
          1483.31690	         7.76273e+57
          1484.12320	         7.97398e+57
          1484.92950	         8.45413e+57
          1485.73580	         7.94454e+57
          1486.54210	         8.16196e+57
          1487.34840	         8.86697e+57
          1488.15470	         8.60421e+57
          1488.96100	         8.76816e+57
          1489.76730	         9.14914e+57
          1490.57360	         8.85018e+57
          1491.37990	         7.65846e+57
          1492.18620	         8.56935e+57
          1492.99250	         8.85771e+57
          1493.79880	         9.07360e+57
          1494.60510	         9.69182e+57
          1495.41140	         7.80401e+57
          1496.21770	         8.70319e+57
          1497.02400	         1.16506e+58
          1497.83030	         9.96993e+57
          1498.63660	         6.36034e+57
          1499.44290	         5.88045e+57
          1500.24920	         7.52974e+57
          1501.05550	         8.76510e+57
          1501.86180	         8.83946e+57
          1502.66810	         8.56434e+57
          1503.47440	         7.73178e+57
          1504.28070	         7.78985e+57
          1505.08700	         9.11302e+57
          1505.89330	         8.80182e+57
          1506.69960	         7.98896e+57
          1507.50590	         8.26123e+57
          1508.31220	         9.22142e+57
          1509.11850	         8.96413e+57
          1509.92480	         9.11581e+57
          1510.73110	         9.18990e+57
          1511.53740	         7.94871e+57
          1512.34370	         7.01553e+57
          1513.15000	         8.61451e+57
          1513.95630	         9.90671e+57
          1514.76260	         8.95485e+57
          1515.56890	         7.57608e+57
          1516.37520	         7.50558e+57
          1517.18150	         7.39156e+57
          1517.98780	         7.52529e+57
          1518.79410	         7.50831e+57
          1519.60040	         8.31420e+57
          1520.40670	         9.15713e+57
          1521.21300	         9.20940e+57
          1522.01930	         8.69360e+57
          1522.82560	         9.75208e+57
          1523.63190	         1.13701e+58
          1524.43820	         9.66047e+57
          1525.24450	         6.33476e+57
          1526.05080	         5.68248e+57
          1526.85710	         6.41933e+57
          1527.66340	         7.80648e+57
          1528.46970	         8.75765e+57
          1529.27600	         7.68960e+57
          1530.08230	         7.75364e+57
          1530.88860	         8.25268e+57
          1531.69490	         8.11161e+57
          1532.50120	         8.58819e+57
          1533.30750	         1.04688e+58
          1534.11380	         1.03340e+58
          1534.92010	         9.25823e+57
          1535.72640	         9.59696e+57
          1536.53270	         9.44882e+57
          1537.33900	         8.52686e+57
          1538.14530	         9.36662e+57
          1538.95160	         9.25558e+57
          1539.75790	         8.41601e+57
          1540.56420	         9.46524e+57
          1541.37050	         9.38263e+57
          1542.17680	         7.70755e+57
          1542.98310	         8.58633e+57
          1543.78940	         9.00427e+57
          1544.59570	         7.56355e+57
          1545.40200	         7.60688e+57
          1546.20830	         9.15553e+57
          1547.01460	         1.03923e+58
          1547.82090	         1.06199e+58
          1548.62720	         1.13382e+58
          1549.43350	         1.08988e+58
          1550.23980	         1.03228e+58
          1551.04610	         1.13402e+58
          1551.85240	         1.20464e+58
          1552.65870	         1.16408e+58
          1553.46500	         1.02072e+58
          1554.27130	         1.06686e+58
          1555.07760	         1.06267e+58
          1555.88390	         9.47632e+57
          1556.69020	         9.55942e+57
          1557.49650	         9.70796e+57
          1558.30280	         9.54552e+57
          1559.10910	         9.17751e+57
          1559.91540	         9.25824e+57
          1560.72170	         8.85763e+57
          1561.52800	         8.15761e+57
          1562.33430	         8.42670e+57
          1563.14060	         8.22909e+57
          1563.94690	         8.05144e+57
          1564.75320	         8.67891e+57
          1565.55950	         7.44097e+57
          1566.36580	         7.61038e+57
          1567.17210	         9.33785e+57
          1567.97840	         8.87610e+57
          1568.78470	         8.30064e+57
          1569.59100	         9.16731e+57
          1570.39730	         8.23237e+57
          1571.20360	         7.20754e+57
          1572.00990	         7.83546e+57
          1572.81620	         8.15295e+57
          1573.62250	         9.63720e+57
          1574.42880	         9.15951e+57
          1575.23510	         7.33139e+57
          1576.04140	         8.32596e+57
          1576.84770	         8.79441e+57
          1577.65400	         8.62099e+57
          1578.46030	         9.30672e+57
          1579.26660	         1.02947e+58
          1580.07290	         9.07776e+57
          1580.87920	         7.51529e+57
          1581.68550	         7.22184e+57
          1582.49180	         8.42310e+57
          1583.29810	         7.56686e+57
          1584.10440	         7.78439e+57
          1584.91070	         8.25093e+57
          1585.71700	         8.04112e+57
          1586.52330	         8.69415e+57
          1587.32960	         8.93059e+57
          1588.13590	         9.27991e+57
          1588.94220	         8.36956e+57
          1589.74850	         8.27829e+57
          1590.55480	         8.70444e+57
          1591.36110	         8.31750e+57
          1592.16740	         8.62549e+57
          1592.97370	         7.78719e+57
          1593.78000	         8.27034e+57
          1594.58630	         9.56564e+57
          1595.39260	         8.80570e+57
          1596.19890	         8.40889e+57
          1597.00520	         9.34031e+57
          1597.81150	         8.84883e+57
          1598.61780	         6.92718e+57
          1599.42410	         7.04030e+57
          1600.23040	         6.85945e+57
          1601.03670	         7.00033e+57
          1601.84300	         6.98091e+57
          1602.64930	         8.35596e+57
          1603.45560	         8.50626e+57
          1604.26190	         8.02782e+57
          1605.06820	         7.71502e+57
          1605.87450	         6.79400e+57
          1606.68080	         6.59677e+57
          1607.48710	         5.82321e+57
          1608.29340	         6.33946e+57
          1609.09970	         7.43847e+57
          1609.90600	         7.28180e+57
          1610.71230	         6.25278e+57
          1611.51860	         7.12747e+57
          1612.32490	         7.52432e+57
          1613.13120	         8.46794e+57
          1613.93750	         8.11950e+57
          1614.74380	         8.53049e+57
          1615.55010	         9.33142e+57
          1616.35640	         8.17276e+57
          1617.16270	         8.89963e+57
          1617.96900	         9.99829e+57
          1618.77530	         8.66721e+57
          1619.58160	         8.47197e+57
          1620.38790	         8.02942e+57
          1621.19420	         8.98979e+57
          1622.00050	         9.08325e+57
          1622.80680	         8.69005e+57
          1623.61310	         7.92295e+57
          1624.41940	         8.29735e+57
          1625.22570	         9.89381e+57
          1626.03200	         8.28616e+57
          1626.83830	         7.73025e+57
          1627.64460	         6.86029e+57
          1628.45090	         5.91793e+57
          1629.25720	         8.42746e+57
          1630.06350	         9.80948e+57
          1630.86980	         6.57002e+57
          1631.67610	         7.53184e+57
          1632.48240	         9.37427e+57
          1633.28870	         9.17285e+57
          1634.09500	         1.01332e+58
          1634.90130	         1.03497e+58
          1635.70760	         7.56183e+57
          1636.51390	         6.90582e+57
          1637.32020	         7.15680e+57
          1638.12650	         8.88024e+57
          1638.93280	         1.07208e+58
          1639.73910	         1.12102e+58
          1640.54540	         1.04793e+58
          1641.35170	         9.19451e+57
          1642.15800	         9.59037e+57
          1642.96430	         9.90711e+57
          1643.77060	         8.41864e+57
          1644.57690	         7.11184e+57
          1645.38320	         7.73712e+57
          1646.18950	         5.52286e+57
          1646.99580	         7.98984e+57
          1647.80210	         9.08507e+57
          1648.60840	         8.56488e+57
          1649.41470	         8.12592e+57
          1650.22100	         7.33716e+57
          1651.02730	         7.58871e+57
          1651.83360	         8.03213e+57
          1652.63990	         7.85008e+57
          1653.44620	         8.20965e+57
          1654.25250	         7.27091e+57
          1655.05880	         7.02167e+57
          1655.86510	         8.24514e+57
          1656.67140	         8.63246e+57
          1657.47770	         7.52950e+57
          1658.28400	         8.03987e+57
          1659.09030	         8.94571e+57
          1659.89660	         9.34504e+57
          1660.70290	         9.25370e+57
          1661.50920	         9.89553e+57
          1662.31550	         9.07260e+57
          1663.12180	         8.47770e+57
          1663.92810	         9.55247e+57
          1664.73440	         1.13765e+58
          1665.54070	         1.24389e+58
          1666.34700	         1.18547e+58
          1667.15330	         1.07166e+58
          1667.95960	         8.83336e+57
          1668.76590	         6.85840e+57
          1669.57220	         6.87922e+57
          1670.37850	         7.40161e+57
          1671.18480	         7.78933e+57
          1671.99110	         7.63261e+57
          1672.79740	         7.78315e+57
          1673.60370	         6.57054e+57
          1674.41000	         7.01512e+57
          1675.21630	         7.78369e+57
          1676.02260	         7.40468e+57
          1676.82890	         6.71289e+57
          1677.63520	         7.45752e+57
          1678.44150	         7.78899e+57
          1679.24780	         7.93185e+57
          1680.05410	         8.13778e+57
          1680.86040	         6.70177e+57
          1681.66670	         6.79457e+57
          1682.47300	         8.84736e+57
          1683.27930	         9.43366e+57
          1684.08560	         8.43219e+57
          1684.89190	         8.39132e+57
          1685.69820	         6.91246e+57
          1686.50450	         5.75106e+57
          1687.31080	         5.81883e+57
          1688.11710	         6.56231e+57
          1688.92340	         6.42576e+57
          1689.72970	         6.32417e+57
          1690.53600	         7.94877e+57
          1691.34230	         8.47527e+57
          1692.14860	         8.08734e+57
          1692.95490	         7.82811e+57
          1693.76120	         7.84853e+57
          1694.56750	         8.29712e+57
          1695.37380	         7.81192e+57
          1696.18010	         7.90574e+57
          1696.98640	         8.95163e+57
          1697.79270	         7.90197e+57
          1698.59900	         7.85119e+57
          1699.40530	         7.38291e+57
          1700.21160	         7.55687e+57
          1701.01790	         9.11883e+57
          1701.82420	         8.24612e+57
          1702.63050	         8.45500e+57
          1703.43680	         8.93516e+57
          1704.24310	         8.52419e+57
          1705.04940	         8.32403e+57
          1705.85570	         7.69664e+57
          1706.66200	         8.00392e+57
          1707.46830	         7.99539e+57
          1708.27460	         7.73710e+57
          1709.08090	         6.80374e+57
          1709.88720	         6.57043e+57
          1710.69350	         6.54460e+57
          1711.49980	         7.16289e+57
          1712.30610	         7.27180e+57
          1713.11240	         7.94731e+57
          1713.91870	         7.12251e+57
          1714.72500	         7.38429e+57
          1715.53130	         8.67857e+57
          1716.33760	         8.13230e+57
          1717.14390	         6.88649e+57
          1717.95020	         8.06279e+57
          1718.75650	         8.87520e+57
          1719.56280	         8.31725e+57
          1720.36910	         6.70793e+57
          1721.17540	         7.17959e+57
          1721.98170	         5.97935e+57
          1722.78800	         6.22495e+57
          1723.59430	         7.69886e+57
          1724.40060	         8.04405e+57
          1725.20690	         8.44741e+57
          1726.01320	         8.13243e+57
          1726.81950	         7.06966e+57
          1727.62580	         6.72255e+57
          1728.43210	         6.78566e+57
          1729.23840	         7.57768e+57
          1730.04470	         8.17737e+57
          1730.85100	         8.06708e+57
          1731.65730	         8.58187e+57
          1732.46360	         7.80634e+57
          1733.26990	         7.88830e+57
          1734.07620	         7.58127e+57
          1734.88250	         7.36333e+57
          1735.68880	         7.46601e+57
          1736.49510	         7.85897e+57
          1737.30140	         7.94776e+57
          1738.10770	         6.75466e+57
          1738.91400	         7.96733e+57
          1739.72030	         7.71560e+57
          1740.52660	         5.84247e+57
          1741.33290	         5.73644e+57
          1742.13920	         6.10584e+57
          1742.94550	         7.24914e+57
          1743.75180	         7.38634e+57
          1744.55810	         8.18583e+57
          1745.36440	         7.94890e+57
          1746.17070	         5.70377e+57
          1746.97700	         4.99786e+57
          1747.78330	         6.70491e+57
          1748.58960	         6.89482e+57
          1749.39590	         6.08396e+57
          1750.20220	         6.85454e+57
          1751.00850	         6.15566e+57
          1751.81480	         6.10536e+57
          1752.62110	         6.93972e+57
          1753.42740	         8.39403e+57
          1754.23370	         5.86550e+57
          1755.04000	         5.49233e+57
          1755.84630	         7.39041e+57
          1756.65260	         8.07927e+57
          1757.45890	         8.41944e+57
          1758.26520	         7.44518e+57
          1759.07150	         9.25822e+57
          1759.87780	         9.63207e+57
          1760.68410	         8.60161e+57
          1761.49040	         8.31347e+57
          1762.29670	         7.58628e+57
          1763.10300	         7.26459e+57
          1763.90930	         7.11211e+57
          1764.71560	         7.88085e+57
          1765.52190	         8.21781e+57
          1766.32820	         9.14092e+57
          1767.13450	         8.62717e+57
          1767.94080	         6.95785e+57
          1768.74710	         7.01479e+57
          1769.55340	         6.74366e+57
          1770.35970	         5.62652e+57
          1771.16600	         6.79259e+57
          1771.97230	         7.91215e+57
          1772.77860	         8.26035e+57
          1773.58490	         7.25420e+57
          1774.39120	         7.51077e+57
          1775.19750	         6.96729e+57
          1776.00380	         7.21842e+57
          1776.81010	         7.54633e+57
          1777.61640	         6.90082e+57
          1778.42270	         7.25559e+57
          1779.22900	         7.03471e+57
          1780.03530	         5.86527e+57
          1780.84160	         7.68082e+57
          1781.64790	         8.60813e+57
          1782.45420	         7.40167e+57
          1783.26050	         6.39153e+57
          1784.06680	         8.29875e+57
          1784.87310	         7.88728e+57
          1785.67940	         6.88309e+57
          1786.48570	         7.16134e+57
          1787.29200	         5.94632e+57
          1788.09830	         6.10600e+57
          1788.90460	         5.56495e+57
          1789.71090	         4.55652e+57
          1790.51720	         5.45973e+57
          1791.32350	         7.14130e+57
          1792.12980	         8.18444e+57
          1792.93610	         8.04745e+57
          1793.74240	         8.17566e+57
          1794.54870	         8.76616e+57
          1795.35500	         9.27254e+57
          1796.16130	         7.98345e+57
          1796.96760	         5.92230e+57
          1797.77390	         6.05252e+57
          1798.58020	         7.15829e+57
          1799.38650	         6.44397e+57
          1800.19280	         6.38744e+57
          1800.99910	         7.59753e+57
          1801.80540	         7.66938e+57
          1802.61170	         8.42664e+57
          1803.41800	         9.33566e+57
          1804.22430	         8.00367e+57
          1805.03060	         6.45220e+57
          1805.83690	         6.92879e+57
          1806.64320	         8.50065e+57
          1807.44950	         7.32687e+57
          1808.25580	         7.24291e+57
          1809.06210	         8.76953e+57
          1809.86840	         8.03030e+57
          1810.67470	         7.91965e+57
          1811.48100	         9.18706e+57
          1812.28730	         9.19320e+57
          1813.09360	         7.68763e+57
          1813.89990	         7.34161e+57
          1814.70620	         6.93722e+57
          1815.51250	         8.00300e+57
          1816.31880	         8.74179e+57
          1817.12510	         7.29478e+57
          1817.93140	         6.03328e+57
          1818.73770	         6.94100e+57
          1819.54400	         8.61949e+57
          1820.35030	         8.57257e+57
          1821.15660	         7.18023e+57
          1821.96290	         6.96016e+57
          1822.76920	         6.53524e+57
          1823.57550	         6.97897e+57
          1824.38180	         7.57032e+57
          1825.18810	         8.74247e+57
          1825.99440	         8.31230e+57
          1826.80070	         7.37771e+57
          1827.60700	         6.46862e+57
          1828.41330	         5.41554e+57
          1829.21960	         6.00605e+57
          1830.02590	         7.09984e+57
          1830.83220	         7.47980e+57
          1831.63850	         6.26964e+57
          1832.44480	         7.65652e+57
          1833.25110	         8.70569e+57
          1834.05740	         8.34562e+57
          1834.86370	         7.04298e+57
          1835.67000	         5.83398e+57
          1836.47630	         7.70958e+57
          1837.28260	         8.61743e+57
          1838.08890	         8.15099e+57
          1838.89520	         8.41474e+57
          1839.70150	         8.18065e+57
          1840.50780	         7.82724e+57
          1841.31410	         7.64841e+57
          1842.12040	         6.34788e+57
          1842.92670	         6.96874e+57
          1843.73300	         6.79678e+57
          1844.53930	         6.54371e+57
          1845.34560	         7.91525e+57
          1846.15190	         7.96377e+57
          1846.95820	         7.06456e+57
          1847.76450	         6.70083e+57
          1848.57080	         6.22371e+57
          1849.37710	         6.56366e+57
          1850.18340	         7.28797e+57
          1850.98970	         7.66691e+57
          1851.79600	         7.98627e+57
          1852.60230	         7.13076e+57
          1853.40860	         5.10702e+57
          1854.21490	         6.14333e+57
          1855.02120	         6.22830e+57
          1855.82750	         5.14044e+57
          1856.63380	         6.67676e+57
          1857.44010	         7.67492e+57
          1858.24640	         7.14226e+57
          1859.05270	         7.12399e+57
          1859.85900	         5.12483e+57
          1860.66530	         5.26759e+57
          1861.47160	         8.37962e+57
          1862.27790	         8.07556e+57
          1863.08420	         7.92549e+57
          1863.89050	         7.99029e+57
          1864.69680	         8.12340e+57
          1865.50310	         7.35896e+57
          1866.30940	         5.96083e+57
          1867.11570	         6.51719e+57
          1867.92200	         8.04229e+57
          1868.72830	         7.42453e+57
          1869.53460	         6.12529e+57
          1870.34090	         7.30599e+57
          1871.14720	         8.45066e+57
          1871.95350	         7.42785e+57
          1872.75980	         7.66937e+57
          1873.56610	         7.21669e+57
          1874.37240	         5.80000e+57
          1875.17870	         6.17568e+57
          1875.98500	         7.74557e+57
          1876.79130	         7.50851e+57
          1877.59760	         6.88738e+57
          1878.40390	         5.83619e+57
          1879.21020	         5.46383e+57
          1880.01650	         6.37416e+57
          1880.82280	         7.66731e+57
          1881.62910	         8.79207e+57
          1882.43540	         1.03422e+58
          1883.24170	         9.17439e+57
          1884.04800	         7.44106e+57
          1884.85430	         7.99388e+57
          1885.66060	         8.60675e+57
          1886.46690	         8.20097e+57
          1887.27320	         7.94937e+57
          1888.07950	         6.88257e+57
          1888.88580	         8.02136e+57
          1889.69210	         9.77950e+57
          1890.49840	         8.27021e+57
          1891.30470	         6.94351e+57
          1892.11100	         8.04490e+57
          1892.91730	         7.80476e+57
          1893.72360	         7.35836e+57
          1894.52990	         8.05357e+57
          1895.33620	         8.66089e+57
          1896.14250	         7.10885e+57
          1896.94880	         6.24483e+57
          1897.75510	         5.01882e+57
          1898.56140	         5.33831e+57
          1899.36770	         7.88454e+57
          1900.17400	         6.02453e+57
          1900.98030	         5.83080e+57
          1901.78660	         7.55360e+57
          1902.59290	         7.51979e+57
          1903.39920	         7.84790e+57
          1904.20550	         8.92603e+57
          1905.01180	         9.38390e+57
          1905.81810	         1.02430e+58
          1906.62440	         1.19207e+58
          1907.43070	         1.47195e+58
          1908.23700	         1.50624e+58
          1909.04330	         1.29901e+58
          1909.84960	         1.12792e+58
          1910.65590	         9.97373e+57
          1911.46220	         9.45136e+57
          1912.26850	         7.35057e+57
          1913.07480	         6.15206e+57
          1913.88110	         5.58280e+57
          1914.68740	         5.84219e+57
          1915.49370	         6.08473e+57
          1916.30000	         6.37838e+57
          1917.10630	         7.41432e+57
          1917.91260	         7.11491e+57
          1918.71890	         7.17154e+57
          1919.52520	         6.51008e+57
          1920.33150	         6.24688e+57
          1921.13780	         6.97856e+57
          1921.94410	         7.24014e+57
          1922.75040	         7.71315e+57
          1923.55670	         7.68310e+57
          1924.36300	         7.16408e+57
          1925.16930	         6.08893e+57
          1925.97560	         5.65418e+57
          1926.78190	         5.26488e+57
          1927.58820	         6.23814e+57
          1928.39450	         6.21323e+57
          1929.20080	         5.50824e+57
          1930.00710	         6.75223e+57
          1930.81340	         7.98931e+57
          1931.61970	         7.44426e+57
          1932.42600	         7.70034e+57
          1933.23230	         7.33994e+57
          1934.03860	         6.89277e+57
          1934.84490	         5.69680e+57
          1935.65120	         7.17714e+57
          1936.45750	         8.81287e+57
          1937.26380	         7.76834e+57
          1938.07010	         7.02601e+57
          1938.87640	         7.32189e+57
          1939.68270	         8.30307e+57
          1940.48900	         8.06375e+57
          1941.29530	         7.97719e+57
          1942.10160	         7.90428e+57
          1942.90790	         7.40929e+57
          1943.71420	         6.63593e+57
          1944.52050	         5.82504e+57
          1945.32680	         6.42021e+57
          1946.13310	         8.33220e+57
          1946.93940	         8.37476e+57
          1947.74570	         7.57963e+57
          1948.55200	         6.18073e+57
          1949.35830	         5.88461e+57
          1950.16460	         6.45508e+57
          1950.97090	         7.41573e+57
          1951.77720	         7.91904e+57
          1952.58350	         8.65943e+57
          1953.38980	         6.35754e+57
          1954.19610	         4.77442e+57
          1955.00240	         4.87229e+57
          1955.80870	         5.99420e+57
          1956.61500	         6.19563e+57
          1957.42130	         6.19215e+57
          1958.22760	         6.74216e+57
          1959.03390	         6.79557e+57
          1959.84020	         6.86381e+57
          1960.64650	         5.74930e+57
          1961.45280	         6.98153e+57
          1962.25910	         6.85530e+57
          1963.06540	         6.57794e+57
          1963.87170	         7.45038e+57
          1964.67800	         6.97265e+57
          1965.48430	         6.79233e+57
          1966.29060	         6.74990e+57
          1967.09690	         7.60268e+57
          1967.90320	         7.34957e+57
          1968.70950	         6.41238e+57
          1969.51580	         7.05429e+57
          1970.32210	         7.52788e+57
          1971.12840	         6.94956e+57
          1971.93470	         4.81496e+57
          1972.74100	         5.16238e+57
          1973.54730	         7.31956e+57
          1974.35360	         7.73358e+57
          1975.15990	         7.29923e+57
          1975.96620	         6.86164e+57
          1976.77250	         8.40009e+57
          1977.57880	         7.65510e+57
          1978.38510	         7.08672e+57
          1979.19140	         7.78211e+57
          1979.99770	         7.73350e+57
          1980.80400	         7.56563e+57
          1981.61030	         7.28432e+57
          1982.41660	         5.69308e+57
          1983.22290	         6.06801e+57
          1984.02920	         5.25700e+57
          1984.83550	         6.11601e+57
          1985.64180	         6.83823e+57
          1986.44810	         6.51403e+57
          1987.25440	         5.53868e+57
          1988.06070	         5.86553e+57
          1988.86700	         6.20263e+57
          1989.67330	         5.97222e+57
          1990.47960	         7.26954e+57
          1991.28590	         7.22419e+57
          1992.09220	         5.76016e+57
          1992.89850	         5.17519e+57
          1993.70480	         5.74672e+57
          1994.51110	         5.69612e+57
          1995.31740	         3.98647e+57
          1996.12370	         4.26602e+57
          1996.93000	         6.47904e+57
          1997.73630	         7.67497e+57
          1998.54260	         6.88214e+57
          1999.34890	         6.17384e+57
          2000.15520	         6.88400e+57
          2000.96150	         7.14802e+57
          2001.76780	         6.25091e+57
          2002.57410	         6.95709e+57
          2003.38040	         6.48858e+57
          2004.18670	         6.75156e+57
          2004.99300	         6.81140e+57
          2005.79930	         6.67283e+57
          2006.60560	         6.25586e+57
          2007.41190	         5.97743e+57
          2008.21820	         6.63174e+57
          2009.02450	         7.70472e+57
          2009.83080	         6.32893e+57
          2010.63710	         6.05656e+57
          2011.44340	         6.79787e+57
          2012.24970	         7.05653e+57
          2013.05600	         6.64010e+57
          2013.86230	         6.22434e+57
          2014.66860	         5.24161e+57
          2015.47490	         4.62962e+57
          2016.28120	         4.98653e+57
          2017.08750	         4.87490e+57
          2017.89380	         6.27172e+57
          2018.70010	         6.27041e+57
          2019.50640	         5.82124e+57
          2020.31270	         7.32193e+57
          2021.11900	         6.03988e+57
          2021.92530	         6.77007e+57
          2022.73160	         8.27250e+57
          2023.53790	         7.86868e+57
          2024.34420	         6.84285e+57
          2025.15050	         5.81514e+57
          2025.95680	         5.33975e+57
          2026.76310	         6.36184e+57
          2027.56940	         7.74248e+57
          2028.37570	         6.64370e+57
          2029.18200	         6.24350e+57
          2029.98830	         6.65723e+57
          2030.79460	         6.39597e+57
          2031.60090	         6.29095e+57
          2032.40720	         5.50202e+57
          2033.21350	         5.17170e+57
          2034.01980	         5.18394e+57
          2034.82610	         4.75153e+57
          2035.63240	         5.19194e+57
          2036.43870	         4.88210e+57
          2037.24500	         5.81650e+57
          2038.05130	         5.98704e+57
          2038.85760	         6.24991e+57
          2039.66390	         6.22613e+57
          2040.47020	         5.91144e+57
          2041.27650	         7.51228e+57
          2042.08280	         5.62501e+57
          2042.88910	         4.84677e+57
          2043.69540	         5.00881e+57
          2044.50170	         3.86285e+57
          2045.30800	         4.33968e+57
          2046.11430	         4.69173e+57
          2046.92060	         5.74797e+57
          2047.72690	         7.50121e+57
          2048.53320	         5.74695e+57
          2049.33950	         5.12435e+57
          2050.14580	         6.36864e+57
          2050.95210	         6.55350e+57
          2051.75840	         6.92658e+57
          2052.56470	         5.28931e+57
          2053.37100	         4.95270e+57
          2054.17730	         4.68971e+57
          2054.98360	         4.89653e+57
          2055.78990	         3.47389e+57
          2056.59620	         3.26521e+57
          2057.40250	         4.63757e+57
          2058.20880	         7.17882e+57
          2059.01510	         6.95879e+57
          2059.82140	         7.37070e+57
          2060.62770	         1.02236e+58
          2061.43400	         1.51786e+58
          2062.24030	         1.13601e+58
          2063.04660	         3.11596e+57
          2063.85290	         2.16109e+57
          2064.65920	        -1.78723e+57
          2065.46550	        -7.15414e+57
          2066.27180	        -6.73132e+57
          2067.07810	         3.27682e+57
          2067.88440	         4.47896e+57
          2068.69070	         5.88033e+57
          2069.49700	         5.38915e+57
          2070.30330	         3.28450e+57
          2071.10960	         4.96525e+57
          2071.91590	         7.28179e+57
          2072.72220	         5.03345e+57
          2073.52850	         5.34806e+57
          2074.33480	         4.67561e+57
          2075.14110	         4.28778e+57
          2075.94740	         4.62889e+57
          2076.75370	         4.87273e+57
          2077.56000	         4.80662e+57
          2078.36630	         6.05893e+57
          2079.17260	         6.14588e+57
          2079.97890	         6.42530e+57
          2080.78520	         6.13407e+57
          2081.59150	         5.07858e+57
          2082.39780	         4.46573e+57
          2083.20410	         2.13346e+57
          2084.01040	         8.33323e+56
          2084.81670	         1.73676e+57
          2085.62300	         2.24775e+57
          2086.42930	         2.42026e+57
          2087.23560	         3.09260e+57
          2088.04190	         3.82092e+57
          2088.84820	         4.23561e+57
          2089.65450	         3.51936e+57
          2090.46080	         2.66353e+57
          2091.26710	         3.93262e+57
          2092.07340	         4.36470e+57
          2092.87970	         3.45758e+57
          2093.68600	         3.11481e+56
          2094.49230	         2.66386e+57
          2095.29860	         3.94781e+57
          2096.10490	         2.63260e+57
          2096.91120	         4.52136e+55
          2097.71750	        -3.40522e+56
          2098.52380	         3.93041e+56
          2099.33010	         2.96697e+56
          2100.13640	         2.54252e+57
          2100.94270	         1.98656e+57
          2101.74900	         1.84111e+57
          2102.55530	         2.13744e+57
          2103.36160	         8.97429e+56
          2104.16790	         2.14331e+57
          2104.97420	         8.40807e+56
          2105.78050	         1.07913e+57
          2106.58680	         9.14125e+56
          2107.39310	        -6.86771e+56
          2108.19940	         5.88221e+54
          2109.00570	        -2.88596e+57
          2109.81200	        -1.28751e+57
          2110.61830	         1.33736e+57
          2111.42460	         4.35794e+56
          2112.23090	         6.05142e+56
          2113.03720	        -1.46368e+57
          2113.84350	        -5.15930e+56
          2114.64980	         3.69686e+57
          2115.45610	        -1.53271e+57
          2116.26240	        -5.79163e+57
          2117.06870	        -2.71944e+57
          2117.87500	        -2.69023e+57
          2118.68130	         3.83850e+57
          2119.48760	         3.18003e+57
          2120.29390	         1.58202e+57
          2121.10020	        -3.84206e+57
          2121.90650	        -7.77140e+56
          2122.71280	         4.56393e+57
          2123.51910	         7.13930e+57
          2124.32540	         2.92143e+57
          2125.13170	        -2.82025e+57
          2125.93800	         3.84283e+57
          2126.74430	         3.30314e+57
          2127.55060	        -1.77372e+57
          2128.35690	        -3.19223e+57
          2129.16320	         3.54241e+57
          2129.96950	        -3.30269e+57
          2130.77580	         3.26565e+57
          2131.58210	         1.24638e+57
          2132.38840	         1.29648e+56
          2133.19470	        -2.77167e+56
          2134.00100	        -5.10846e+56
          2134.80730	        -4.08800e+57
          2135.61360	        -4.91189e+57
          2136.41990	        -1.29939e+57
          2137.22620	         5.76223e+57
          2138.03250	         2.02214e+57
          2138.83880	        -3.30427e+57
          2139.64510	        -5.30353e+57
          2140.45140	        -7.30309e+57
          2141.25770	        -1.02617e+58
          2142.06400	        -6.52963e+57
          2142.87030	         5.58993e+56
          2143.67660	         9.68533e+57
          2144.48290	        -4.01324e+56
          2145.28920	         3.04927e+56
          2146.09550	        -6.65626e+57
          2146.90180	        -6.20575e+57
          2147.70810	        -1.16043e+58
          2148.51440	        -4.54876e+57
          2149.32070	        -1.28635e+58
          2150.12700	        -1.43028e+58
          2150.93330	        -7.93575e+57
          2151.73960	        -3.04545e+57
          2152.54590	        -3.49932e+57
          2153.35220	        -2.48126e+57
          2154.15850	        -7.10992e+57
          2154.96480	        -9.07015e+57
          2155.77110	        -1.29190e+57
          2156.57740	         1.33572e+57
          2157.38370	         4.85930e+57
          2158.19000	        -3.04122e+57
          2158.99630	         2.60839e+57
          2159.80260	        -1.14196e+58
          2160.60890	        -4.02451e+57
          2161.41520	         5.94639e+56
          2162.22150	         1.02911e+57
          2163.02780	        -7.22905e+57
          2163.83410	        -8.33948e+57
          2164.64040	        -5.38580e+57
          2165.44670	        -6.60525e+57
          2166.25300	        -1.10563e+58
          2167.05930	         9.35496e+56
          2167.86560	        -2.93871e+57
          2168.67190	        -4.72924e+57
          2169.47820	        -1.62321e+57
          2170.28450	        -8.16033e+57
          2171.09080	        -7.76067e+57
          2171.89710	        -5.52170e+57
          2172.70340	         4.50580e+57
          2173.50970	        -5.26524e+57
          2174.31600	        -5.99716e+57
          2175.12230	         5.00748e+56
          2175.92860	        -6.10881e+57
          2176.73490	        -5.49034e+57
          2177.54120	        -1.29667e+57
          2178.34750	        -3.69472e+57
          2179.15380	                 nan
          2179.96010	                 nan
          2180.76640	                 nan
          2181.57270	                 nan
          2182.37900	                 nan
          2183.18530	                 nan
          2183.99160	                 nan
          2184.79790	                 nan
          2185.60420	                 nan
          2186.41050	                 nan
          2187.21680	                 nan
          2188.02310	                 nan
          2188.82940	                 nan
          2189.63570	                 nan
          2190.44200	                 nan
          2191.24830	                 nan
          2192.05460	                 nan
          2192.86090	                 nan
          2193.66720	                 nan
          2194.47350	                 nan
          2195.27980	                 nan
          2196.08610	                 nan
          2196.89240	                 nan
          2197.69870	                 nan
          2198.50500	                 nan
          2199.31130	                 nan
          2200.11760	                 nan
          2200.92390	                 nan
          2201.73020	                 nan
          2202.53650	                 nan
          2203.34280	                 nan
          2204.14910	                 nan
          2204.95540	                 nan
          2205.76170	                 nan
          2206.56800	                 nan
          2207.37430	                 nan
          2208.18060	                 nan
          2208.98690	                 nan
          2209.79320	                 nan
          2210.59950	                 nan
          2211.40580	                 nan
          2212.21210	                 nan
          2213.01840	                 nan
          2213.82470	                 nan
          2214.63100	                 nan
          2215.43730	         0.00000e+00
