#sample_27_stacked_spectrum_rest_UV-bands_median_H-alpha_noDC.txt
#median Lum: 1.70257e+42
#Rest-frame wavelength (A) | Luminosity (erg/s/A)
#
          1110.00000	         0.00000e+00
          1110.80630	        -1.90697e+59
          1111.61260	        -2.03304e+59
          1112.41890	        -6.30932e+57
          1113.22520	        -1.41852e+58
          1114.03150	        -2.31820e+59
          1114.83780	         1.82922e+59
          1115.64410	        -1.27213e+58
          1116.45040	        -5.33655e+58
          1117.25670	         5.01820e+57
          1118.06300	         2.47472e+59
          1118.86930	         1.01808e+59
          1119.67560	         1.27042e+59
          1120.48190	        -7.84897e+58
          1121.28820	        -2.18971e+59
          1122.09450	         3.75402e+58
          1122.90080	         1.91470e+58
          1123.70710	         1.77362e+58
          1124.51340	         8.22352e+58
          1125.31970	        -3.60605e+58
          1126.12600	        -1.53434e+58
          1126.93230	        -8.33595e+58
          1127.73860	        -3.63960e+58
          1128.54490	         5.45926e+58
          1129.35120	         3.72887e+58
          1130.15750	        -2.05577e+58
          1130.96380	        -5.15824e+58
          1131.77010	         7.34961e+57
          1132.57640	         3.91035e+58
          1133.38270	         5.21837e+58
          1134.18900	         3.56549e+58
          1134.99530	         3.01121e+58
          1135.80160	         4.11906e+58
          1136.60790	         2.77047e+58
          1137.41420	         5.87404e+57
          1138.22050	         3.84830e+58
          1139.02680	         1.18222e+58
          1139.83310	         3.50894e+58
          1140.63940	         1.35931e+58
          1141.44570	        -1.83416e+58
          1142.25200	        -1.40842e+58
          1143.05830	         1.10622e+58
          1143.86460	         2.81942e+58
          1144.67090	         2.58967e+58
          1145.47720	         9.67176e+57
          1146.28350	         1.36657e+58
          1147.08980	         8.49851e+57
          1147.89610	         1.64619e+58
          1148.70240	         3.14174e+58
          1149.50870	         2.19229e+58
          1150.31500	         1.93783e+58
          1151.12130	         1.03244e+58
          1151.92760	        -2.32262e+57
          1152.73390	        -2.60117e+55
          1153.54020	         7.73067e+57
          1154.34650	         2.27894e+58
          1155.15280	         2.45851e+58
          1155.95910	         5.26705e+57
          1156.76540	         8.95343e+57
          1157.57170	        -2.63213e+57
          1158.37800	        -1.07406e+58
          1159.18430	        -5.05511e+57
          1159.99060	         1.09194e+57
          1160.79690	        -3.14366e+57
          1161.60320	         6.56865e+57
          1162.40950	         1.36674e+58
          1163.21580	         2.35535e+58
          1164.02210	         1.74704e+58
          1164.82840	         5.56430e+57
          1165.63470	         1.94362e+58
          1166.44100	         3.48323e+58
          1167.24730	         2.71991e+58
          1168.05360	         1.16638e+58
          1168.85990	         6.56493e+56
          1169.66620	         9.63509e+56
          1170.47250	         6.63977e+57
          1171.27880	         5.09123e+57
          1172.08510	         1.70691e+58
          1172.89140	         1.77772e+58
          1173.69770	         1.27481e+57
          1174.50400	         7.85377e+57
          1175.31030	         1.53378e+58
          1176.11660	         1.75670e+58
          1176.92290	         1.50537e+58
          1177.72920	         1.04095e+58
          1178.53550	         5.23230e+57
          1179.34180	         7.47688e+56
          1180.14810	         9.75221e+56
          1180.95440	         1.25290e+58
          1181.76070	         9.28138e+57
          1182.56700	         1.03280e+58
          1183.37330	         9.37019e+57
          1184.17960	         1.18266e+58
          1184.98590	         7.25211e+57
          1185.79220	         8.92437e+57
          1186.59850	         1.06236e+58
          1187.40480	         9.36602e+57
          1188.21110	         8.71419e+57
          1189.01740	         8.59481e+57
          1189.82370	         6.36038e+57
          1190.63000	         1.30590e+58
          1191.43630	         1.29105e+58
          1192.24260	         1.29555e+58
          1193.04890	         1.89914e+58
          1193.85520	         1.37204e+58
          1194.66150	         7.52419e+57
          1195.46780	         9.39362e+57
          1196.27410	         1.38904e+58
          1197.08040	         1.07645e+58
          1197.88670	         1.56922e+58
          1198.69300	         1.29805e+58
          1199.49930	         1.03370e+58
          1200.30560	         8.90040e+57
          1201.11190	         8.30423e+57
          1201.91820	         9.35562e+57
          1202.72450	         5.97862e+57
          1203.53080	         1.65881e+58
          1204.33710	         1.25010e+58
          1205.14340	         8.86082e+57
          1205.94970	         8.68091e+57
          1206.75600	         6.53536e+57
          1207.56230	         7.86831e+57
          1208.36860	         1.01014e+58
          1209.17490	         6.28653e+57
          1209.98120	         8.28171e+57
          1210.78750	         7.13341e+57
          1211.59380	         1.33191e+58
          1212.40010	         1.83033e+58
          1213.20640	         1.91360e+58
          1214.01270	         2.42277e+58
          1214.81900	         3.03867e+58
          1215.62530	         4.64903e+58
          1216.43160	         8.90179e+58
          1217.23790	         1.54197e+59
          1218.04420	         1.16813e+59
          1218.85050	         8.20216e+58
          1219.65680	         5.35473e+58
          1220.46310	         3.25245e+58
          1221.26940	         1.99883e+58
          1222.07570	         1.15556e+58
          1222.88200	         1.05103e+58
          1223.68830	         1.21005e+58
          1224.49460	         6.15444e+57
          1225.30090	         2.35504e+57
          1226.10720	         5.71165e+57
          1226.91350	         4.68317e+57
          1227.71980	         7.60503e+57
          1228.52610	         1.09148e+58
          1229.33240	         1.11235e+58
          1230.13870	         1.04546e+58
          1230.94500	         1.02577e+58
          1231.75130	         6.50645e+57
          1232.55760	         8.56079e+57
          1233.36390	         1.03842e+58
          1234.17020	         1.12009e+58
          1234.97650	         8.46569e+57
          1235.78280	         7.19418e+57
          1236.58910	         8.45682e+57
          1237.39540	         9.51099e+57
          1238.20170	         8.75817e+57
          1239.00800	         1.01681e+58
          1239.81430	         1.32123e+58
          1240.62060	         1.11081e+58
          1241.42690	         1.24393e+58
          1242.23320	         1.16223e+58
          1243.03950	         7.87979e+57
          1243.84580	         8.71385e+57
          1244.65210	         1.10044e+58
          1245.45840	         1.21546e+58
          1246.26470	         9.11034e+57
          1247.07100	         5.51761e+57
          1247.87730	         5.64367e+57
          1248.68360	         4.66648e+57
          1249.48990	         7.57526e+57
          1250.29620	         8.00480e+57
          1251.10250	         8.10225e+57
          1251.90880	         6.03277e+57
          1252.71510	         4.63309e+57
          1253.52140	         5.67176e+57
          1254.32770	         9.96993e+57
          1255.13400	         1.37219e+58
          1255.94030	         1.20378e+58
          1256.74660	         1.02196e+58
          1257.55290	         1.07342e+58
          1258.35920	         1.01732e+58
          1259.16550	         6.48696e+57
          1259.97180	         3.51007e+57
          1260.77810	         5.81372e+57
          1261.58440	         1.23176e+58
          1262.39070	         1.09660e+58
          1263.19700	         8.95177e+57
          1264.00330	         6.91297e+57
          1264.80960	         9.58061e+57
          1265.61590	         1.19110e+58
          1266.42220	         1.24093e+58
          1267.22850	         1.26727e+58
          1268.03480	         1.46740e+58
          1268.84110	         1.43442e+58
          1269.64740	         1.18811e+58
          1270.45370	         1.28770e+58
          1271.26000	         1.15818e+58
          1272.06630	         9.39838e+57
          1272.87260	         1.39476e+58
          1273.67890	         1.56560e+58
          1274.48520	         1.35277e+58
          1275.29150	         1.17179e+58
          1276.09780	         1.05418e+58
          1276.90410	         1.39402e+58
          1277.71040	         1.35494e+58
          1278.51670	         1.26465e+58
          1279.32300	         1.40943e+58
          1280.12930	         1.36899e+58
          1280.93560	         1.20653e+58
          1281.74190	         1.06726e+58
          1282.54820	         1.26935e+58
          1283.35450	         1.11675e+58
          1284.16080	         1.12773e+58
          1284.96710	         1.52891e+58
          1285.77340	         1.32820e+58
          1286.57970	         1.21570e+58
          1287.38600	         1.50319e+58
          1288.19230	         1.85995e+58
          1288.99860	         1.66494e+58
          1289.80490	         1.19991e+58
          1290.61120	         1.24121e+58
          1291.41750	         1.48528e+58
          1292.22380	         1.36032e+58
          1293.03010	         1.11187e+58
          1293.83640	         1.20105e+58
          1294.64270	         9.96048e+57
          1295.44900	         6.66491e+57
          1296.25530	         5.92734e+57
          1297.06160	         1.09358e+58
          1297.86790	         1.19510e+58
          1298.67420	         9.51313e+57
          1299.48050	         1.06170e+58
          1300.28680	         1.15099e+58
          1301.09310	         8.15290e+57
          1301.89940	         4.31456e+57
          1302.70570	         5.61843e+57
          1303.51200	         8.29947e+57
          1304.31830	         9.66076e+57
          1305.12460	         9.97017e+57
          1305.93090	         1.28114e+58
          1306.73720	         1.40981e+58
          1307.54350	         1.47661e+58
          1308.34980	         1.40948e+58
          1309.15610	         1.33471e+58
          1309.96240	         1.32247e+58
          1310.76870	         1.31850e+58
          1311.57500	         1.21014e+58
          1312.38130	         1.05041e+58
          1313.18760	         1.38552e+58
          1313.99390	         1.60779e+58
          1314.80020	         1.54087e+58
          1315.60650	         1.26961e+58
          1316.41280	         1.18089e+58
          1317.21910	         1.13016e+58
          1318.02540	         1.15873e+58
          1318.83170	         1.27659e+58
          1319.63800	         1.33493e+58
          1320.44430	         1.05999e+58
          1321.25060	         1.19583e+58
          1322.05690	         1.29363e+58
          1322.86320	         1.35013e+58
          1323.66950	         1.18234e+58
          1324.47580	         9.06169e+57
          1325.28210	         9.99642e+57
          1326.08840	         1.11933e+58
          1326.89470	         1.23330e+58
          1327.70100	         1.14459e+58
          1328.50730	         9.31105e+57
          1329.31360	         9.27874e+57
          1330.11990	         1.09397e+58
          1330.92620	         1.11040e+58
          1331.73250	         1.09181e+58
          1332.53880	         9.27251e+57
          1333.34510	         9.49252e+57
          1334.15140	         9.91450e+57
          1334.95770	         8.82805e+57
          1335.76400	         9.99087e+57
          1336.57030	         1.09567e+58
          1337.37660	         9.44596e+57
          1338.18290	         1.01820e+58
          1338.98920	         1.17369e+58
          1339.79550	         1.09545e+58
          1340.60180	         1.18232e+58
          1341.40810	         1.27333e+58
          1342.21440	         1.06546e+58
          1343.02070	         1.27424e+58
          1343.82700	         1.46539e+58
          1344.63330	         1.27378e+58
          1345.43960	         1.40385e+58
          1346.24590	         1.24237e+58
          1347.05220	         1.24139e+58
          1347.85850	         1.25143e+58
          1348.66480	         1.34289e+58
          1349.47110	         1.13072e+58
          1350.27740	         1.02884e+58
          1351.08370	         1.21036e+58
          1351.89000	         1.26148e+58
          1352.69630	         9.94536e+57
          1353.50260	         1.03051e+58
          1354.30890	         1.13024e+58
          1355.11520	         1.16602e+58
          1355.92150	         1.11653e+58
          1356.72780	         1.08273e+58
          1357.53410	         1.11711e+58
          1358.34040	         1.13055e+58
          1359.14670	         1.05369e+58
          1359.95300	         1.20892e+58
          1360.75930	         1.28646e+58
          1361.56560	         1.02834e+58
          1362.37190	         1.05418e+58
          1363.17820	         1.09651e+58
          1363.98450	         1.05978e+58
          1364.79080	         1.20045e+58
          1365.59710	         1.34116e+58
          1366.40340	         1.16339e+58
          1367.20970	         1.01198e+58
          1368.01600	         1.12015e+58
          1368.82230	         9.47495e+57
          1369.62860	         8.45875e+57
          1370.43490	         8.91761e+57
          1371.24120	         9.67649e+57
          1372.04750	         7.56938e+57
          1372.85380	         1.00509e+58
          1373.66010	         1.07611e+58
          1374.46640	         9.99923e+57
          1375.27270	         1.03429e+58
          1376.07900	         9.67699e+57
          1376.88530	         9.17758e+57
          1377.69160	         8.40618e+57
          1378.49790	         7.04284e+57
          1379.30420	         8.09871e+57
          1380.11050	         9.69229e+57
          1380.91680	         8.72402e+57
          1381.72310	         8.72418e+57
          1382.52940	         7.67214e+57
          1383.33570	         7.78152e+57
          1384.14200	         8.90324e+57
          1384.94830	         1.05762e+58
          1385.75460	         9.60932e+57
          1386.56090	         1.05283e+58
          1387.36720	         1.30250e+58
          1388.17350	         1.36621e+58
          1388.97980	         1.05491e+58
          1389.78610	         8.51152e+57
          1390.59240	         7.56763e+57
          1391.39870	         6.82543e+57
          1392.20500	         8.64733e+57
          1393.01130	         8.27509e+57
          1393.81760	         7.40949e+57
          1394.62390	         8.28607e+57
          1395.43020	         7.31341e+57
          1396.23650	         5.68475e+57
          1397.04280	         7.13007e+57
          1397.84910	         8.83374e+57
          1398.65540	         8.87545e+57
          1399.46170	         9.04582e+57
          1400.26800	         7.95653e+57
          1401.07430	         6.51220e+57
          1401.88060	         8.48960e+57
          1402.68690	         9.46140e+57
          1403.49320	         9.80793e+57
          1404.29950	         9.53116e+57
          1405.10580	         1.04710e+58
          1405.91210	         1.08020e+58
          1406.71840	         1.07416e+58
          1407.52470	         1.05167e+58
          1408.33100	         9.80304e+57
          1409.13730	         1.08784e+58
          1409.94360	         1.25882e+58
          1410.74990	         1.21138e+58
          1411.55620	         1.08170e+58
          1412.36250	         9.88229e+57
          1413.16880	         9.32264e+57
          1413.97510	         8.11736e+57
          1414.78140	         8.89307e+57
          1415.58770	         1.06702e+58
          1416.39400	         9.72870e+57
          1417.20030	         9.89656e+57
          1418.00660	         9.76892e+57
          1418.81290	         1.06720e+58
          1419.61920	         1.04250e+58
          1420.42550	         1.12953e+58
          1421.23180	         1.34575e+58
          1422.03810	         1.28337e+58
          1422.84440	         1.10162e+58
          1423.65070	         1.08849e+58
          1424.45700	         1.00441e+58
          1425.26330	         8.14757e+57
          1426.06960	         9.25497e+57
          1426.87590	         1.06787e+58
          1427.68220	         1.08771e+58
          1428.48850	         1.12119e+58
          1429.29480	         9.84356e+57
          1430.10110	         9.03402e+57
          1430.90740	         8.26821e+57
          1431.71370	         8.27476e+57
          1432.52000	         8.75794e+57
          1433.32630	         7.81356e+57
          1434.13260	         7.29308e+57
          1434.93890	         8.15922e+57
          1435.74520	         8.95094e+57
          1436.55150	         1.00733e+58
          1437.35780	         9.60510e+57
          1438.16410	         1.01025e+58
          1438.97040	         9.38429e+57
          1439.77670	         8.75830e+57
          1440.58300	         8.43424e+57
          1441.38930	         9.29625e+57
          1442.19560	         1.06027e+58
          1443.00190	         9.38663e+57
          1443.80820	         1.02608e+58
          1444.61450	         1.01594e+58
          1445.42080	         9.71252e+57
          1446.22710	         1.04666e+58
          1447.03340	         1.03736e+58
          1447.83970	         1.03757e+58
          1448.64600	         1.07396e+58
          1449.45230	         1.03708e+58
          1450.25860	         1.03193e+58
          1451.06490	         9.10620e+57
          1451.87120	         8.23489e+57
          1452.67750	         8.26847e+57
          1453.48380	         8.48544e+57
          1454.29010	         7.47384e+57
          1455.09640	         7.68050e+57
          1455.90270	         9.82115e+57
          1456.70900	         1.01089e+58
          1457.51530	         1.05357e+58
          1458.32160	         1.27683e+58
          1459.12790	         1.09385e+58
          1459.93420	         9.90061e+57
          1460.74050	         8.12730e+57
          1461.54680	         8.94083e+57
          1462.35310	         7.95768e+57
          1463.15940	         9.27069e+57
          1463.96570	         1.18251e+58
          1464.77200	         1.28218e+58
          1465.57830	         1.03320e+58
          1466.38460	         8.99752e+57
          1467.19090	         8.65594e+57
          1467.99720	         9.00000e+57
          1468.80350	         9.20161e+57
          1469.60980	         9.46034e+57
          1470.41610	         1.06635e+58
          1471.22240	         9.63038e+57
          1472.02870	         8.91204e+57
          1472.83500	         8.60698e+57
          1473.64130	         8.43758e+57
          1474.44760	         9.17378e+57
          1475.25390	         9.18861e+57
          1476.06020	         9.86661e+57
          1476.86650	         8.59670e+57
          1477.67280	         8.35545e+57
          1478.47910	         7.84138e+57
          1479.28540	         7.31055e+57
          1480.09170	         7.88005e+57
          1480.89800	         8.74295e+57
          1481.70430	         9.49774e+57
          1482.51060	         8.16799e+57
          1483.31690	         6.21341e+57
          1484.12320	         6.59294e+57
          1484.92950	         7.26453e+57
          1485.73580	         7.15602e+57
          1486.54210	         8.43167e+57
          1487.34840	         9.38588e+57
          1488.15470	         9.99027e+57
          1488.96100	         9.60300e+57
          1489.76730	         8.66401e+57
          1490.57360	         8.38986e+57
          1491.37990	         7.60994e+57
          1492.18620	         7.46377e+57
          1492.99250	         8.13558e+57
          1493.79880	         8.75591e+57
          1494.60510	         8.31775e+57
          1495.41140	         7.18840e+57
          1496.21770	         8.55442e+57
          1497.02400	         1.10971e+58
          1497.83030	         9.59462e+57
          1498.63660	         7.41920e+57
          1499.44290	         6.48990e+57
          1500.24920	         6.89544e+57
          1501.05550	         7.54842e+57
          1501.86180	         7.77073e+57
          1502.66810	         8.00606e+57
          1503.47440	         9.21713e+57
          1504.28070	         9.47165e+57
          1505.08700	         9.68389e+57
          1505.89330	         9.83757e+57
          1506.69960	         9.28436e+57
          1507.50590	         8.46471e+57
          1508.31220	         8.38216e+57
          1509.11850	         8.15608e+57
          1509.92480	         8.96454e+57
          1510.73110	         9.18269e+57
          1511.53740	         7.74434e+57
          1512.34370	         7.35411e+57
          1513.15000	         8.80121e+57
          1513.95630	         9.47968e+57
          1514.76260	         8.60654e+57
          1515.56890	         8.04384e+57
          1516.37520	         8.70194e+57
          1517.18150	         8.72937e+57
          1517.98780	         8.41632e+57
          1518.79410	         7.66023e+57
          1519.60040	         7.41548e+57
          1520.40670	         8.88611e+57
          1521.21300	         9.64316e+57
          1522.01930	         8.72677e+57
          1522.82560	         9.73606e+57
          1523.63190	         1.04506e+58
          1524.43820	         8.82337e+57
          1525.24450	         6.31536e+57
          1526.05080	         5.41732e+57
          1526.85710	         6.12163e+57
          1527.66340	         6.54301e+57
          1528.46970	         7.76920e+57
          1529.27600	         7.09876e+57
          1530.08230	         7.68323e+57
          1530.88860	         9.01902e+57
          1531.69490	         8.86475e+57
          1532.50120	         9.94462e+57
          1533.30750	         1.04331e+58
          1534.11380	         9.60420e+57
          1534.92010	         9.45164e+57
          1535.72640	         9.85940e+57
          1536.53270	         9.10894e+57
          1537.33900	         8.32508e+57
          1538.14530	         8.19313e+57
          1538.95160	         8.44768e+57
          1539.75790	         9.68203e+57
          1540.56420	         9.05972e+57
          1541.37050	         7.88279e+57
          1542.17680	         6.99100e+57
          1542.98310	         7.40307e+57
          1543.78940	         7.90463e+57
          1544.59570	         6.90756e+57
          1545.40200	         7.40003e+57
          1546.20830	         9.38866e+57
          1547.01460	         1.14049e+58
          1547.82090	         1.24499e+58
          1548.62720	         1.26731e+58
          1549.43350	         1.09667e+58
          1550.23980	         1.05973e+58
          1551.04610	         1.29418e+58
          1551.85240	         1.29507e+58
          1552.65870	         1.20667e+58
          1553.46500	         1.00755e+58
          1554.27130	         9.55822e+57
          1555.07760	         9.98926e+57
          1555.88390	         8.71163e+57
          1556.69020	         9.25588e+57
          1557.49650	         9.20837e+57
          1558.30280	         8.60544e+57
          1559.10910	         9.08710e+57
          1559.91540	         9.37336e+57
          1560.72170	         9.83670e+57
          1561.52800	         9.45605e+57
          1562.33430	         8.65146e+57
          1563.14060	         8.24154e+57
          1563.94690	         8.65835e+57
          1564.75320	         8.99512e+57
          1565.55950	         7.65005e+57
          1566.36580	         6.88652e+57
          1567.17210	         9.56479e+57
          1567.97840	         9.72524e+57
          1568.78470	         8.52013e+57
          1569.59100	         8.56225e+57
          1570.39730	         7.81804e+57
          1571.20360	         6.79114e+57
          1572.00990	         7.63386e+57
          1572.81620	         9.26207e+57
          1573.62250	         1.00862e+58
          1574.42880	         9.51933e+57
          1575.23510	         7.88787e+57
          1576.04140	         8.57053e+57
          1576.84770	         9.48364e+57
          1577.65400	         9.26695e+57
          1578.46030	         1.01422e+58
          1579.26660	         1.05598e+58
          1580.07290	         9.33803e+57
          1580.87920	         7.52726e+57
          1581.68550	         7.75106e+57
          1582.49180	         8.87080e+57
          1583.29810	         8.14135e+57
          1584.10440	         8.60016e+57
          1584.91070	         8.37500e+57
          1585.71700	         8.24396e+57
          1586.52330	         9.16644e+57
          1587.32960	         9.48128e+57
          1588.13590	         8.87758e+57
          1588.94220	         7.34833e+57
          1589.74850	         7.44294e+57
          1590.55480	         8.04970e+57
          1591.36110	         7.62501e+57
          1592.16740	         8.16264e+57
          1592.97370	         8.59188e+57
          1593.78000	         9.95668e+57
          1594.58630	         9.63781e+57
          1595.39260	         8.14938e+57
          1596.19890	         9.21224e+57
          1597.00520	         9.59414e+57
          1597.81150	         9.42166e+57
          1598.61780	         7.88167e+57
          1599.42410	         7.38662e+57
          1600.23040	         7.45993e+57
          1601.03670	         8.16073e+57
          1601.84300	         7.75888e+57
          1602.64930	         8.07549e+57
          1603.45560	         8.96662e+57
          1604.26190	         8.53857e+57
          1605.06820	         8.12990e+57
          1605.87450	         7.67960e+57
          1606.68080	         8.14251e+57
          1607.48710	         6.80161e+57
          1608.29340	         5.61686e+57
          1609.09970	         7.17266e+57
          1609.90600	         8.36774e+57
          1610.71230	         7.10220e+57
          1611.51860	         7.03524e+57
          1612.32490	         6.46856e+57
          1613.13120	         7.17233e+57
          1613.93750	         8.11561e+57
          1614.74380	         8.91427e+57
          1615.55010	         9.21415e+57
          1616.35640	         9.68592e+57
          1617.16270	         9.90288e+57
          1617.96900	         1.04760e+58
          1618.77530	         8.68240e+57
          1619.58160	         8.20828e+57
          1620.38790	         8.87530e+57
          1621.19420	         9.13346e+57
          1622.00050	         7.91010e+57
          1622.80680	         8.22376e+57
          1623.61310	         7.78185e+57
          1624.41940	         8.29002e+57
          1625.22570	         9.56309e+57
          1626.03200	         8.33898e+57
          1626.83830	         7.71500e+57
          1627.64460	         7.63547e+57
          1628.45090	         6.87495e+57
          1629.25720	         8.12362e+57
          1630.06350	         9.77863e+57
          1630.86980	         7.92643e+57
          1631.67610	         8.22188e+57
          1632.48240	         8.50453e+57
          1633.28870	         8.58655e+57
          1634.09500	         9.68068e+57
          1634.90130	         1.07315e+58
          1635.70760	         7.76666e+57
          1636.51390	         7.01278e+57
          1637.32020	         8.56234e+57
          1638.12650	         9.51717e+57
          1638.93280	         1.00484e+58
          1639.73910	         9.92792e+57
          1640.54540	         9.68090e+57
          1641.35170	         8.49370e+57
          1642.15800	         8.55712e+57
          1642.96430	         9.51970e+57
          1643.77060	         9.08897e+57
          1644.57690	         8.32046e+57
          1645.38320	         8.72747e+57
          1646.18950	         8.33651e+57
          1646.99580	         1.00544e+58
          1647.80210	         9.04777e+57
          1648.60840	         8.19394e+57
          1649.41470	         8.40785e+57
          1650.22100	         7.73554e+57
          1651.02730	         7.13290e+57
          1651.83360	         7.33403e+57
          1652.63990	         8.29317e+57
          1653.44620	         8.97732e+57
          1654.25250	         8.35190e+57
          1655.05880	         7.50173e+57
          1655.86510	         8.32836e+57
          1656.67140	         8.51353e+57
          1657.47770	         7.30221e+57
          1658.28400	         7.81828e+57
          1659.09030	         8.34710e+57
          1659.89660	         8.67697e+57
          1660.70290	         9.03884e+57
          1661.50920	         9.35734e+57
          1662.31550	         8.79147e+57
          1663.12180	         8.40745e+57
          1663.92810	         9.68772e+57
          1664.73440	         1.07487e+58
          1665.54070	         1.12691e+58
          1666.34700	         1.15574e+58
          1667.15330	         1.11252e+58
          1667.95960	         9.65768e+57
          1668.76590	         7.41118e+57
          1669.57220	         6.48263e+57
          1670.37850	         7.58583e+57
          1671.18480	         7.68631e+57
          1671.99110	         8.16858e+57
          1672.79740	         7.36930e+57
          1673.60370	         6.51612e+57
          1674.41000	         6.98820e+57
          1675.21630	         6.91357e+57
          1676.02260	         6.40166e+57
          1676.82890	         6.82112e+57
          1677.63520	         6.67622e+57
          1678.44150	         7.56316e+57
          1679.24780	         8.24500e+57
          1680.05410	         7.95376e+57
          1680.86040	         6.41707e+57
          1681.66670	         7.22065e+57
          1682.47300	         8.53462e+57
          1683.27930	         8.04888e+57
          1684.08560	         8.72469e+57
          1684.89190	         8.32213e+57
          1685.69820	         5.56874e+57
          1686.50450	         5.45487e+57
          1687.31080	         6.63356e+57
          1688.11710	         8.12020e+57
          1688.92340	         7.17904e+57
          1689.72970	         6.89652e+57
          1690.53600	         7.18353e+57
          1691.34230	         7.38847e+57
          1692.14860	         8.14816e+57
          1692.95490	         7.57238e+57
          1693.76120	         6.98456e+57
          1694.56750	         7.08062e+57
          1695.37380	         8.69775e+57
          1696.18010	         9.01641e+57
          1696.98640	         8.19495e+57
          1697.79270	         7.88473e+57
          1698.59900	         8.56755e+57
          1699.40530	         8.38360e+57
          1700.21160	         7.05639e+57
          1701.01790	         7.84015e+57
          1701.82420	         7.86572e+57
          1702.63050	         8.15654e+57
          1703.43680	         7.83345e+57
          1704.24310	         8.50351e+57
          1705.04940	         8.70903e+57
          1705.85570	         7.36556e+57
          1706.66200	         8.20368e+57
          1707.46830	         8.64467e+57
          1708.27460	         7.21108e+57
          1709.08090	         7.14625e+57
          1709.88720	         7.18167e+57
          1710.69350	         7.14759e+57
          1711.49980	         5.98757e+57
          1712.30610	         6.97955e+57
          1713.11240	         9.28293e+57
          1713.91870	         8.34983e+57
          1714.72500	         8.33024e+57
          1715.53130	         9.05328e+57
          1716.33760	         7.45836e+57
          1717.14390	         7.19477e+57
          1717.95020	         7.84287e+57
          1718.75650	         8.08285e+57
          1719.56280	         8.61619e+57
          1720.36910	         7.87710e+57
          1721.17540	         7.31519e+57
          1721.98170	         6.40140e+57
          1722.78800	         6.52014e+57
          1723.59430	         7.45121e+57
          1724.40060	         8.24370e+57
          1725.20690	         8.09819e+57
          1726.01320	         7.95220e+57
          1726.81950	         7.21333e+57
          1727.62580	         6.71086e+57
          1728.43210	         6.95505e+57
          1729.23840	         7.63171e+57
          1730.04470	         8.12447e+57
          1730.85100	         8.34036e+57
          1731.65730	         8.55693e+57
          1732.46360	         7.87324e+57
          1733.26990	         6.92543e+57
          1734.07620	         6.81184e+57
          1734.88250	         7.65011e+57
          1735.68880	         7.58350e+57
          1736.49510	         8.39267e+57
          1737.30140	         8.40101e+57
          1738.10770	         7.29321e+57
          1738.91400	         7.68288e+57
          1739.72030	         7.88020e+57
          1740.52660	         6.35215e+57
          1741.33290	         5.56900e+57
          1742.13920	         5.92158e+57
          1742.94550	         7.06971e+57
          1743.75180	         7.61162e+57
          1744.55810	         7.94342e+57
          1745.36440	         7.54670e+57
          1746.17070	         5.30458e+57
          1746.97700	         5.33116e+57
          1747.78330	         6.91322e+57
          1748.58960	         7.12918e+57
          1749.39590	         6.31697e+57
          1750.20220	         6.76679e+57
          1751.00850	         6.22110e+57
          1751.81480	         6.55486e+57
          1752.62110	         6.70072e+57
          1753.42740	         7.35116e+57
          1754.23370	         7.18058e+57
          1755.04000	         7.32633e+57
          1755.84630	         6.25783e+57
          1756.65260	         7.71566e+57
          1757.45890	         8.85734e+57
          1758.26520	         7.48717e+57
          1759.07150	         8.31385e+57
          1759.87780	         7.46451e+57
          1760.68410	         7.25770e+57
          1761.49040	         6.77676e+57
          1762.29670	         5.74502e+57
          1763.10300	         6.54773e+57
          1763.90930	         7.00313e+57
          1764.71560	         7.90647e+57
          1765.52190	         7.89150e+57
          1766.32820	         8.45145e+57
          1767.13450	         8.58163e+57
          1767.94080	         6.16743e+57
          1768.74710	         4.99226e+57
          1769.55340	         5.85247e+57
          1770.35970	         6.15109e+57
          1771.16600	         6.86660e+57
          1771.97230	         8.09978e+57
          1772.77860	         8.25420e+57
          1773.58490	         7.75117e+57
          1774.39120	         6.90629e+57
          1775.19750	         7.05236e+57
          1776.00380	         6.63810e+57
          1776.81010	         6.32664e+57
          1777.61640	         7.24901e+57
          1778.42270	         7.46922e+57
          1779.22900	         6.42359e+57
          1780.03530	         6.37174e+57
          1780.84160	         7.59642e+57
          1781.64790	         9.19301e+57
          1782.45420	         7.88763e+57
          1783.26050	         6.87519e+57
          1784.06680	         6.80513e+57
          1784.87310	         7.18140e+57
          1785.67940	         7.46263e+57
          1786.48570	         6.95906e+57
          1787.29200	         6.18950e+57
          1788.09830	         6.58711e+57
          1788.90460	         6.12434e+57
          1789.71090	         5.06069e+57
          1790.51720	         4.88004e+57
          1791.32350	         8.11561e+57
          1792.12980	         9.73426e+57
          1792.93610	         8.17029e+57
          1793.74240	         7.50914e+57
          1794.54870	         7.74136e+57
          1795.35500	         8.20623e+57
          1796.16130	         8.31237e+57
          1796.96760	         7.32920e+57
          1797.77390	         7.59248e+57
          1798.58020	         7.03920e+57
          1799.38650	         7.14202e+57
          1800.19280	         8.16013e+57
          1800.99910	         7.56271e+57
          1801.80540	         5.98581e+57
          1802.61170	         7.27045e+57
          1803.41800	         7.32595e+57
          1804.22430	         6.83247e+57
          1805.03060	         6.74218e+57
          1805.83690	         8.06427e+57
          1806.64320	         8.57107e+57
          1807.44950	         8.66216e+57
          1808.25580	         7.33615e+57
          1809.06210	         6.68957e+57
          1809.86840	         6.67937e+57
          1810.67470	         7.73052e+57
          1811.48100	         8.29674e+57
          1812.28730	         8.38382e+57
          1813.09360	         7.60922e+57
          1813.89990	         7.95091e+57
          1814.70620	         7.41796e+57
          1815.51250	         8.39270e+57
          1816.31880	         9.30049e+57
          1817.12510	         7.95270e+57
          1817.93140	         5.92251e+57
          1818.73770	         6.73855e+57
          1819.54400	         7.59688e+57
          1820.35030	         7.74061e+57
          1821.15660	         6.07974e+57
          1821.96290	         6.23390e+57
          1822.76920	         7.39272e+57
          1823.57550	         7.54857e+57
          1824.38180	         7.65454e+57
          1825.18810	         7.86532e+57
          1825.99440	         8.22684e+57
          1826.80070	         8.03240e+57
          1827.60700	         6.48864e+57
          1828.41330	         6.21648e+57
          1829.21960	         6.36954e+57
          1830.02590	         6.74194e+57
          1830.83220	         7.85755e+57
          1831.63850	         8.43951e+57
          1832.44480	         7.22039e+57
          1833.25110	         7.12243e+57
          1834.05740	         7.88515e+57
          1834.86370	         6.40674e+57
          1835.67000	         6.03067e+57
          1836.47630	         7.25803e+57
          1837.28260	         8.65177e+57
          1838.08890	         9.07026e+57
          1838.89520	         9.00978e+57
          1839.70150	         7.49643e+57
          1840.50780	         7.25631e+57
          1841.31410	         7.64055e+57
          1842.12040	         6.72204e+57
          1842.92670	         6.96656e+57
          1843.73300	         7.09159e+57
          1844.53930	         7.14469e+57
          1845.34560	         7.02138e+57
          1846.15190	         6.62609e+57
          1846.95820	         6.96883e+57
          1847.76450	         6.61730e+57
          1848.57080	         6.87443e+57
          1849.37710	         6.97140e+57
          1850.18340	         7.23947e+57
          1850.98970	         8.47131e+57
          1851.79600	         7.73005e+57
          1852.60230	         7.42236e+57
          1853.40860	         7.63617e+57
          1854.21490	         6.32383e+57
          1855.02120	         5.59368e+57
          1855.82750	         4.60609e+57
          1856.63380	         5.35947e+57
          1857.44010	         6.22738e+57
          1858.24640	         7.57882e+57
          1859.05270	         6.37444e+57
          1859.85900	         5.16694e+57
          1860.66530	         6.18647e+57
          1861.47160	         7.35087e+57
          1862.27790	         7.01960e+57
          1863.08420	         7.58108e+57
          1863.89050	         8.24764e+57
          1864.69680	         8.64770e+57
          1865.50310	         8.02488e+57
          1866.30940	         6.32603e+57
          1867.11570	         6.48322e+57
          1867.92200	         7.23336e+57
          1868.72830	         7.24587e+57
          1869.53460	         7.28608e+57
          1870.34090	         6.88012e+57
          1871.14720	         7.38089e+57
          1871.95350	         6.18899e+57
          1872.75980	         6.61770e+57
          1873.56610	         6.62208e+57
          1874.37240	         6.10683e+57
          1875.17870	         6.79718e+57
          1875.98500	         7.08848e+57
          1876.79130	         7.56160e+57
          1877.59760	         7.19548e+57
          1878.40390	         6.04907e+57
          1879.21020	         5.50285e+57
          1880.01650	         7.10159e+57
          1880.82280	         8.46236e+57
          1881.62910	         9.77133e+57
          1882.43540	         9.89545e+57
          1883.24170	         7.90517e+57
          1884.04800	         6.66797e+57
          1884.85430	         7.20436e+57
          1885.66060	         7.90367e+57
          1886.46690	         7.93492e+57
          1887.27320	         6.73570e+57
          1888.07950	         5.65532e+57
          1888.88580	         6.78372e+57
          1889.69210	         8.67365e+57
          1890.49840	         8.45246e+57
          1891.30470	         7.69172e+57
          1892.11100	         8.73196e+57
          1892.91730	         8.75208e+57
          1893.72360	         7.28707e+57
          1894.52990	         7.31214e+57
          1895.33620	         8.83161e+57
          1896.14250	         7.77497e+57
          1896.94880	         7.10627e+57
          1897.75510	         5.68650e+57
          1898.56140	         6.24684e+57
          1899.36770	         7.76347e+57
          1900.17400	         7.38762e+57
          1900.98030	         7.23666e+57
          1901.78660	         7.98066e+57
          1902.59290	         7.03591e+57
          1903.39920	         8.31435e+57
          1904.20550	         8.89988e+57
          1905.01180	         9.73680e+57
          1905.81810	         1.06586e+58
          1906.62440	         1.23448e+58
          1907.43070	         1.50923e+58
          1908.23700	         1.66317e+58
          1909.04330	         1.31005e+58
          1909.84960	         1.12049e+58
          1910.65590	         1.00933e+58
          1911.46220	         9.82026e+57
          1912.26850	         7.61562e+57
          1913.07480	         5.81631e+57
          1913.88110	         5.13309e+57
          1914.68740	         5.00984e+57
          1915.49370	         5.76721e+57
          1916.30000	         6.96762e+57
          1917.10630	         7.65810e+57
          1917.91260	         6.61297e+57
          1918.71890	         6.20625e+57
          1919.52520	         6.23534e+57
          1920.33150	         6.26845e+57
          1921.13780	         7.08016e+57
          1921.94410	         8.09520e+57
          1922.75040	         8.04530e+57
          1923.55670	         7.76645e+57
          1924.36300	         7.12598e+57
          1925.16930	         6.81182e+57
          1925.97560	         5.94761e+57
          1926.78190	         5.17645e+57
          1927.58820	         6.39294e+57
          1928.39450	         6.26096e+57
          1929.20080	         5.85478e+57
          1930.00710	         7.28570e+57
          1930.81340	         7.20739e+57
          1931.61970	         6.06925e+57
          1932.42600	         6.48681e+57
          1933.23230	         7.03769e+57
          1934.03860	         6.71178e+57
          1934.84490	         5.51365e+57
          1935.65120	         6.64918e+57
          1936.45750	         8.51871e+57
          1937.26380	         7.07720e+57
          1938.07010	         7.22891e+57
          1938.87640	         6.95758e+57
          1939.68270	         7.62838e+57
          1940.48900	         8.30093e+57
          1941.29530	         7.82381e+57
          1942.10160	         7.46134e+57
          1942.90790	         6.11076e+57
          1943.71420	         7.10450e+57
          1944.52050	         6.85863e+57
          1945.32680	         5.35876e+57
          1946.13310	         6.52563e+57
          1946.93940	         8.46151e+57
          1947.74570	         8.14050e+57
          1948.55200	         7.15491e+57
          1949.35830	         5.75678e+57
          1950.16460	         4.50518e+57
          1950.97090	         5.68560e+57
          1951.77720	         6.99953e+57
          1952.58350	         7.09593e+57
          1953.38980	         6.58703e+57
          1954.19610	         4.54323e+57
          1955.00240	         4.88651e+57
          1955.80870	         6.65262e+57
          1956.61500	         6.82677e+57
          1957.42130	         7.09456e+57
          1958.22760	         7.04471e+57
          1959.03390	         8.11632e+57
          1959.84020	         7.90745e+57
          1960.64650	         7.66058e+57
          1961.45280	         6.48874e+57
          1962.25910	         6.30121e+57
          1963.06540	         6.65222e+57
          1963.87170	         6.03461e+57
          1964.67800	         6.93599e+57
          1965.48430	         7.54101e+57
          1966.29060	         6.64225e+57
          1967.09690	         6.92503e+57
          1967.90320	         7.11813e+57
          1968.70950	         7.23430e+57
          1969.51580	         6.41001e+57
          1970.32210	         5.41627e+57
          1971.12840	         6.03519e+57
          1971.93470	         5.12745e+57
          1972.74100	         4.04546e+57
          1973.54730	         6.19061e+57
          1974.35360	         7.26896e+57
          1975.15990	         8.48084e+57
          1975.96620	         7.12283e+57
          1976.77250	         6.79582e+57
          1977.57880	         7.05711e+57
          1978.38510	         6.43497e+57
          1979.19140	         7.33106e+57
          1979.99770	         8.42016e+57
          1980.80400	         8.07190e+57
          1981.61030	         7.25082e+57
          1982.41660	         5.75314e+57
          1983.22290	         6.18534e+57
          1984.02920	         5.91863e+57
          1984.83550	         5.36469e+57
          1985.64180	         6.22346e+57
          1986.44810	         5.95932e+57
          1987.25440	         5.55460e+57
          1988.06070	         4.48814e+57
          1988.86700	         6.33322e+57
          1989.67330	         6.95859e+57
          1990.47960	         6.52772e+57
          1991.28590	         7.22152e+57
          1992.09220	         6.41533e+57
          1992.89850	         5.85643e+57
          1993.70480	         4.30296e+57
          1994.51110	         2.88995e+57
          1995.31740	         5.56079e+57
          1996.12370	         5.81229e+57
          1996.93000	         6.23938e+57
          1997.73630	         7.69291e+57
          1998.54260	         8.36816e+57
          1999.34890	         8.30092e+57
          2000.15520	         6.79440e+57
          2000.96150	         7.50832e+57
          2001.76780	         6.21909e+57
          2002.57410	         4.40513e+57
          2003.38040	         5.34738e+57
          2004.18670	         6.34208e+57
          2004.99300	         6.57532e+57
          2005.79930	         7.83579e+57
          2006.60560	         6.53616e+57
          2007.41190	         6.41475e+57
          2008.21820	         7.02015e+57
          2009.02450	         6.02291e+57
          2009.83080	         5.59519e+57
          2010.63710	         6.46552e+57
          2011.44340	         7.19034e+57
          2012.24970	         6.59122e+57
          2013.05600	         6.77940e+57
          2013.86230	         5.35840e+57
          2014.66860	         5.43558e+57
          2015.47490	         6.85349e+57
          2016.28120	         5.73963e+57
          2017.08750	         5.56617e+57
          2017.89380	         6.28449e+57
          2018.70010	         7.04568e+57
          2019.50640	         6.65917e+57
          2020.31270	         5.69156e+57
          2021.11900	         5.94732e+57
          2021.92530	         7.00942e+57
          2022.73160	         7.90446e+57
          2023.53790	         7.63951e+57
          2024.34420	         6.95579e+57
          2025.15050	         6.66975e+57
          2025.95680	         6.78926e+57
          2026.76310	         6.71894e+57
          2027.56940	         6.88366e+57
          2028.37570	         6.99166e+57
          2029.18200	         6.13351e+57
          2029.98830	         5.41154e+57
          2030.79460	         6.53590e+57
          2031.60090	         4.93263e+57
          2032.40720	         5.93627e+57
          2033.21350	         4.57125e+57
          2034.01980	         5.44832e+57
          2034.82610	         4.68720e+57
          2035.63240	         4.87368e+57
          2036.43870	         5.05378e+57
          2037.24500	         5.91683e+57
          2038.05130	         6.54150e+57
          2038.85760	         6.35487e+57
          2039.66390	         6.36178e+57
          2040.47020	         5.83917e+57
          2041.27650	         6.85115e+57
          2042.08280	         5.59577e+57
          2042.88910	         5.18847e+57
          2043.69540	         4.52845e+57
          2044.50170	         5.79499e+57
          2045.30800	         4.43980e+57
          2046.11430	         4.78360e+57
          2046.92060	         6.22461e+57
          2047.72690	         6.30684e+57
          2048.53320	         4.52329e+57
          2049.33950	         3.49990e+57
          2050.14580	         4.94858e+57
          2050.95210	         5.89672e+57
          2051.75840	         7.90618e+57
          2052.56470	         5.30929e+57
          2053.37100	         4.27662e+57
          2054.17730	         4.73180e+57
          2054.98360	         4.73951e+57
          2055.78990	         3.43350e+57
          2056.59620	         3.90931e+57
          2057.40250	         4.27966e+57
          2058.20880	         7.25919e+57
          2059.01510	         7.83844e+57
          2059.82140	         6.66091e+57
          2060.62770	         9.03147e+57
          2061.43400	         1.55616e+58
          2062.24030	         1.26822e+58
          2063.04660	         4.92067e+57
          2063.85290	         1.42721e+57
          2064.65920	        -1.86393e+57
          2065.46550	        -8.18984e+57
          2066.27180	        -1.04858e+58
          2067.07810	         3.17373e+57
          2067.88440	         5.26208e+57
          2068.69070	         8.34109e+57
          2069.49700	         7.09902e+57
          2070.30330	         3.97098e+57
          2071.10960	         5.77231e+57
          2071.91590	         5.40863e+57
          2072.72220	         3.82263e+57
          2073.52850	         5.91140e+57
          2074.33480	         4.81539e+57
          2075.14110	         5.50248e+57
          2075.94740	         3.57970e+57
          2076.75370	         4.34498e+57
          2077.56000	         5.14627e+57
          2078.36630	         6.04447e+57
          2079.17260	         5.66016e+57
          2079.97890	         6.91663e+57
          2080.78520	         6.73341e+57
          2081.59150	         5.40965e+57
          2082.39780	         4.27744e+57
          2083.20410	         2.88934e+57
          2084.01040	         2.17019e+57
          2084.81670	         4.30217e+57
          2085.62300	         3.67874e+57
          2086.42930	         4.02120e+57
          2087.23560	         3.54491e+57
          2088.04190	         4.81037e+57
          2088.84820	         5.17520e+57
          2089.65450	         3.98127e+57
          2090.46080	         1.60857e+57
          2091.26710	         2.44711e+57
          2092.07340	         4.34022e+57
          2092.87970	         3.98842e+57
          2093.68600	        -2.46805e+56
          2094.49230	        -5.50882e+56
          2095.29860	         4.77765e+57
          2096.10490	         2.07231e+57
          2096.91120	         4.81823e+56
          2097.71750	         2.31812e+56
          2098.52380	         2.02275e+57
          2099.33010	         1.50570e+57
          2100.13640	         1.20685e+57
          2100.94270	         2.82909e+57
          2101.74900	         3.44684e+57
          2102.55530	         4.49372e+57
          2103.36160	         2.75609e+57
          2104.16790	         3.07238e+57
          2104.97420	         3.80642e+57
          2105.78050	         2.42377e+57
          2106.58680	         8.13741e+56
          2107.39310	         4.75712e+55
          2108.19940	         2.68485e+57
          2109.00570	         2.09268e+57
          2109.81200	        -5.81069e+55
          2110.61830	         6.58762e+56
          2111.42460	         3.01558e+57
          2112.23090	         2.84349e+57
          2113.03720	         3.82292e+57
          2113.84350	         1.47900e+57
          2114.64980	         1.19473e+57
          2115.45610	        -2.46305e+57
          2116.26240	        -4.39736e+57
          2117.06870	        -1.35696e+56
          2117.87500	        -4.81172e+57
          2118.68130	        -2.18120e+57
          2119.48760	         8.52245e+56
          2120.29390	         2.56804e+57
          2121.10020	        -2.03862e+57
          2121.90650	        -3.79046e+57
          2122.71280	        -4.56077e+57
          2123.51910	         1.62852e+57
          2124.32540	        -6.10379e+56
          2125.13170	        -2.17614e+57
          2125.93800	         3.15358e+57
          2126.74430	        -4.96792e+57
          2127.55060	        -6.02650e+57
          2128.35690	        -3.89303e+57
          2129.16320	        -1.65326e+57
          2129.96950	        -4.28787e+57
          2130.77580	         6.48736e+56
          2131.58210	         1.26432e+57
          2132.38840	         1.23575e+57
          2133.19470	         4.55160e+56
          2134.00100	         2.93127e+57
          2134.80730	        -5.93023e+57
          2135.61360	         7.34141e+56
          2136.41990	         2.10148e+57
          2137.22620	         1.16268e+57
          2138.03250	        -7.61586e+57
          2138.83880	        -5.08309e+57
          2139.64510	        -1.64888e+57
          2140.45140	         2.63638e+57
          2141.25770	        -1.46231e+58
          2142.06400	        -1.28207e+58
          2142.87030	         2.20102e+57
          2143.67660	         1.33816e+58
          2144.48290	         5.77836e+57
          2145.28920	         1.12214e+58
          2146.09550	        -3.69416e+57
          2146.90180	        -1.20242e+58
          2147.70810	        -8.29273e+57
          2148.51440	        -9.48889e+57
          2149.32070	        -6.79685e+57
          2150.12700	        -5.78017e+57
          2150.93330	        -4.33375e+57
          2151.73960	        -1.04830e+56
          2152.54590	         2.95872e+57
          2153.35220	         3.85968e+57
          2154.15850	        -2.18811e+56
          2154.96480	         2.04021e+57
          2155.77110	         3.52990e+57
          2156.57740	        -1.39690e+58
          2157.38370	        -8.38449e+57
          2158.19000	        -4.52857e+57
          2158.99630	        -7.01865e+57
          2159.80260	        -1.40546e+58
          2160.60890	        -8.19026e+57
          2161.41520	         1.76021e+57
          2162.22150	         2.51473e+57
          2163.02780	         4.84198e+57
          2163.83410	         1.63381e+57
          2164.64040	        -9.58329e+57
          2165.44670	        -1.12005e+58
          2166.25300	        -6.57017e+57
          2167.05930	        -1.06175e+58
          2167.86560	        -1.09378e+58
          2168.67190	         3.42315e+56
          2169.47820	         2.28649e+57
          2170.28450	         7.56062e+57
          2171.09080	        -8.17066e+56
          2171.89710	        -3.55072e+57
          2172.70340	         3.78373e+57
          2173.50970	        -5.12337e+57
          2174.31600	        -1.82673e+57
          2175.12230	        -2.63692e+56
          2175.92860	        -5.76334e+57
          2176.73490	        -2.87969e+57
          2177.54120	        -9.80247e+56
          2178.34750	        -5.46352e+57
          2179.15380	                 nan
          2179.96010	                 nan
          2180.76640	                 nan
          2181.57270	                 nan
          2182.37900	                 nan
          2183.18530	                 nan
          2183.99160	                 nan
          2184.79790	                 nan
          2185.60420	                 nan
          2186.41050	                 nan
          2187.21680	                 nan
          2188.02310	                 nan
          2188.82940	                 nan
          2189.63570	                 nan
          2190.44200	                 nan
          2191.24830	                 nan
          2192.05460	                 nan
          2192.86090	                 nan
          2193.66720	                 nan
          2194.47350	                 nan
          2195.27980	                 nan
          2196.08610	                 nan
          2196.89240	                 nan
          2197.69870	                 nan
          2198.50500	                 nan
          2199.31130	                 nan
          2200.11760	                 nan
          2200.92390	                 nan
          2201.73020	                 nan
          2202.53650	                 nan
          2203.34280	                 nan
          2204.14910	                 nan
          2204.95540	                 nan
          2205.76170	                 nan
          2206.56800	                 nan
          2207.37430	                 nan
          2208.18060	                 nan
          2208.98690	                 nan
          2209.79320	                 nan
          2210.59950	                 nan
          2211.40580	                 nan
          2212.21210	                 nan
          2213.01840	                 nan
          2213.82470	                 nan
          2214.63100	                 nan
          2215.43730	         0.00000e+00
