#sample_476_stacked_spectrum_rest_UV-bands_median_H-alpha_noDC.txt
#median Lum: 1.70805e+42
#Rest-frame wavelength (A) | Luminosity (erg/s/A)
#
          1110.00000	         0.00000e+00
          1110.80630	        -4.21367e+59
          1111.61260	        -1.04909e+59
          1112.41890	         1.22113e+59
          1113.22520	         2.47646e+59
          1114.03150	        -6.26454e+58
          1114.83780	        -3.63014e+58
          1115.64410	        -4.72600e+58
          1116.45040	         3.07591e+58
          1117.25670	         1.35453e+59
          1118.06300	         5.63192e+58
          1118.86930	        -4.15753e+58
          1119.67560	         6.65294e+58
          1120.48190	        -4.50183e+57
          1121.28820	        -1.38715e+59
          1122.09450	         9.57308e+58
          1122.90080	         7.05088e+58
          1123.70710	         3.17592e+58
          1124.51340	         1.16480e+59
          1125.31970	        -1.42728e+58
          1126.12600	        -3.71791e+58
          1126.93230	        -8.43300e+58
          1127.73860	        -5.89837e+58
          1128.54490	         5.79283e+57
          1129.35120	         3.04323e+58
          1130.15750	         1.19692e+58
          1130.96380	        -5.54017e+58
          1131.77010	         1.13772e+58
          1132.57640	         5.25724e+58
          1133.38270	         4.57596e+58
          1134.18900	         2.32795e+58
          1134.99530	         2.63700e+58
          1135.80160	         2.98343e+58
          1136.60790	         1.67818e+58
          1137.41420	        -1.23639e+58
          1138.22050	         3.44707e+58
          1139.02680	         9.37147e+57
          1139.83310	         4.63537e+57
          1140.63940	         1.90526e+58
          1141.44570	        -2.49487e+58
          1142.25200	        -6.41620e+57
          1143.05830	         1.82755e+58
          1143.86460	         4.95755e+58
          1144.67090	         3.47774e+58
          1145.47720	         1.07088e+58
          1146.28350	         1.67579e+58
          1147.08980	         2.31459e+58
          1147.89610	         3.34393e+58
          1148.70240	         3.55805e+58
          1149.50870	         2.21211e+58
          1150.31500	         9.86278e+57
          1151.12130	         1.44033e+58
          1151.92760	         6.30299e+56
          1152.73390	         6.16193e+57
          1153.54020	         1.29381e+58
          1154.34650	         2.38340e+58
          1155.15280	         2.13241e+58
          1155.95910	         1.04007e+58
          1156.76540	         7.44127e+57
          1157.57170	        -3.65992e+57
          1158.37800	        -8.30704e+57
          1159.18430	        -5.88357e+57
          1159.99060	         3.30383e+57
          1160.79690	         8.05977e+57
          1161.60320	         1.37114e+58
          1162.40950	         1.29246e+58
          1163.21580	         1.91549e+58
          1164.02210	         2.01953e+58
          1164.82840	         1.48960e+58
          1165.63470	         2.54686e+58
          1166.44100	         2.29229e+58
          1167.24730	         1.42356e+58
          1168.05360	         1.66262e+58
          1168.85990	         6.27572e+57
          1169.66620	         3.56672e+57
          1170.47250	         1.20410e+58
          1171.27880	         1.15250e+58
          1172.08510	         1.45872e+58
          1172.89140	         1.16219e+58
          1173.69770	         1.54247e+58
          1174.50400	         1.40459e+58
          1175.31030	         1.97060e+58
          1176.11660	         1.79637e+58
          1176.92290	         1.45159e+58
          1177.72920	         1.41468e+58
          1178.53550	         4.91271e+57
          1179.34180	         2.46375e+57
          1180.14810	         9.87080e+57
          1180.95440	         1.08163e+58
          1181.76070	         6.90799e+57
          1182.56700	         6.28709e+57
          1183.37330	         6.20345e+57
          1184.17960	         1.05676e+58
          1184.98590	         9.29659e+57
          1185.79220	         2.98034e+57
          1186.59850	         1.05869e+58
          1187.40480	         1.39334e+58
          1188.21110	         1.34869e+58
          1189.01740	         7.94351e+57
          1189.82370	         1.13157e+58
          1190.63000	         1.34117e+58
          1191.43630	         1.04495e+58
          1192.24260	         6.79640e+57
          1193.04890	         1.53335e+58
          1193.85520	         8.81595e+57
          1194.66150	         6.55375e+57
          1195.46780	         1.10605e+58
          1196.27410	         1.22690e+58
          1197.08040	         9.94134e+57
          1197.88670	         1.78676e+58
          1198.69300	         1.70860e+58
          1199.49930	         1.85282e+58
          1200.30560	         1.63690e+58
          1201.11190	         1.50862e+58
          1201.91820	         1.09935e+58
          1202.72450	         5.72509e+57
          1203.53080	         8.79899e+57
          1204.33710	         8.84797e+57
          1205.14340	         6.20607e+57
          1205.94970	         1.00203e+58
          1206.75600	         7.44855e+57
          1207.56230	         5.31002e+57
          1208.36860	         4.33250e+57
          1209.17490	         2.53500e+57
          1209.98120	         5.02947e+57
          1210.78750	         9.11704e+57
          1211.59380	         8.74342e+57
          1212.40010	         1.78201e+58
          1213.20640	         1.96956e+58
          1214.01270	         2.07686e+58
          1214.81900	         2.56874e+58
          1215.62530	         4.48167e+58
          1216.43160	         9.27728e+58
          1217.23790	         1.52598e+59
          1218.04420	         1.15469e+59
          1218.85050	         8.71901e+58
          1219.65680	         5.54546e+58
          1220.46310	         2.71333e+58
          1221.26940	         1.99688e+58
          1222.07570	         1.34502e+58
          1222.88200	         1.13288e+58
          1223.68830	         1.06561e+58
          1224.49460	         7.10014e+57
          1225.30090	         8.71063e+57
          1226.10720	         8.28675e+57
          1226.91350	         6.87630e+57
          1227.71980	         9.93266e+57
          1228.52610	         1.37650e+58
          1229.33240	         9.56377e+57
          1230.13870	         9.75830e+57
          1230.94500	         8.55443e+57
          1231.75130	         7.26761e+57
          1232.55760	         9.56714e+57
          1233.36390	         1.05042e+58
          1234.17020	         7.72807e+57
          1234.97650	         6.66035e+57
          1235.78280	         5.12789e+57
          1236.58910	         9.12909e+57
          1237.39540	         1.10594e+58
          1238.20170	         1.04500e+58
          1239.00800	         1.41860e+58
          1239.81430	         1.60595e+58
          1240.62060	         1.11561e+58
          1241.42690	         1.12557e+58
          1242.23320	         1.21427e+58
          1243.03950	         9.95370e+57
          1243.84580	         9.97636e+57
          1244.65210	         1.06331e+58
          1245.45840	         7.11230e+57
          1246.26470	         9.68687e+57
          1247.07100	         1.15815e+58
          1247.87730	         6.92602e+57
          1248.68360	         6.46621e+57
          1249.48990	         8.79764e+57
          1250.29620	         9.93680e+57
          1251.10250	         7.36943e+57
          1251.90880	         4.14227e+57
          1252.71510	         6.47965e+57
          1253.52140	         6.95305e+57
          1254.32770	         9.31320e+57
          1255.13400	         1.44561e+58
          1255.94030	         1.43345e+58
          1256.74660	         9.99548e+57
          1257.55290	         1.01585e+58
          1258.35920	         8.46913e+57
          1259.16550	         6.43781e+57
          1259.97180	         5.63750e+57
          1260.77810	         1.04878e+58
          1261.58440	         1.17154e+58
          1262.39070	         8.26051e+57
          1263.19700	         9.31603e+57
          1264.00330	         9.12373e+57
          1264.80960	         9.22240e+57
          1265.61590	         1.09425e+58
          1266.42220	         1.05646e+58
          1267.22850	         9.81669e+57
          1268.03480	         1.42192e+58
          1268.84110	         1.54504e+58
          1269.64740	         1.22975e+58
          1270.45370	         1.08669e+58
          1271.26000	         9.69948e+57
          1272.06630	         8.78695e+57
          1272.87260	         9.94174e+57
          1273.67890	         1.09007e+58
          1274.48520	         1.02803e+58
          1275.29150	         1.12180e+58
          1276.09780	         1.31629e+58
          1276.90410	         1.57776e+58
          1277.71040	         1.39587e+58
          1278.51670	         1.23314e+58
          1279.32300	         1.25674e+58
          1280.12930	         1.39530e+58
          1280.93560	         1.18499e+58
          1281.74190	         1.35482e+58
          1282.54820	         1.38822e+58
          1283.35450	         8.75898e+57
          1284.16080	         7.52551e+57
          1284.96710	         1.01581e+58
          1285.77340	         1.09322e+58
          1286.57970	         1.12126e+58
          1287.38600	         1.38650e+58
          1288.19230	         1.70200e+58
          1288.99860	         1.55414e+58
          1289.80490	         1.22464e+58
          1290.61120	         1.27992e+58
          1291.41750	         1.52063e+58
          1292.22380	         1.13170e+58
          1293.03010	         1.02001e+58
          1293.83640	         1.14722e+58
          1294.64270	         1.18814e+58
          1295.44900	         7.08480e+57
          1296.25530	         6.14826e+57
          1297.06160	         1.00720e+58
          1297.86790	         9.10027e+57
          1298.67420	         1.00610e+58
          1299.48050	         1.00325e+58
          1300.28680	         9.62462e+57
          1301.09310	         8.13224e+57
          1301.89940	         4.44103e+57
          1302.70570	         6.67155e+57
          1303.51200	         7.31768e+57
          1304.31830	         8.81213e+57
          1305.12460	         9.54129e+57
          1305.93090	         1.13329e+58
          1306.73720	         1.17543e+58
          1307.54350	         1.18479e+58
          1308.34980	         1.49142e+58
          1309.15610	         1.62973e+58
          1309.96240	         1.45003e+58
          1310.76870	         1.50388e+58
          1311.57500	         1.39669e+58
          1312.38130	         9.85514e+57
          1313.18760	         1.36132e+58
          1313.99390	         1.75854e+58
          1314.80020	         1.73628e+58
          1315.60650	         1.63389e+58
          1316.41280	         1.27575e+58
          1317.21910	         1.19877e+58
          1318.02540	         1.26059e+58
          1318.83170	         1.33407e+58
          1319.63800	         1.18538e+58
          1320.44430	         1.09131e+58
          1321.25060	         1.25177e+58
          1322.05690	         1.27832e+58
          1322.86320	         1.24516e+58
          1323.66950	         1.17337e+58
          1324.47580	         9.23744e+57
          1325.28210	         9.00922e+57
          1326.08840	         1.01997e+58
          1326.89470	         1.18886e+58
          1327.70100	         8.96980e+57
          1328.50730	         7.88547e+57
          1329.31360	         8.91985e+57
          1330.11990	         9.09337e+57
          1330.92620	         8.77314e+57
          1331.73250	         1.03403e+58
          1332.53880	         9.73738e+57
          1333.34510	         8.70725e+57
          1334.15140	         9.04695e+57
          1334.95770	         8.71852e+57
          1335.76400	         1.03154e+58
          1336.57030	         1.13694e+58
          1337.37660	         1.05810e+58
          1338.18290	         9.27702e+57
          1338.98920	         9.48058e+57
          1339.79550	         8.74866e+57
          1340.60180	         1.00491e+58
          1341.40810	         1.33807e+58
          1342.21440	         1.18926e+58
          1343.02070	         1.18420e+58
          1343.82700	         1.39713e+58
          1344.63330	         1.27663e+58
          1345.43960	         1.22058e+58
          1346.24590	         1.22865e+58
          1347.05220	         1.22931e+58
          1347.85850	         1.09892e+58
          1348.66480	         1.10210e+58
          1349.47110	         1.14888e+58
          1350.27740	         1.17254e+58
          1351.08370	         1.19729e+58
          1351.89000	         1.23429e+58
          1352.69630	         1.03981e+58
          1353.50260	         1.16398e+58
          1354.30890	         1.20801e+58
          1355.11520	         1.21997e+58
          1355.92150	         1.20325e+58
          1356.72780	         1.04781e+58
          1357.53410	         1.04420e+58
          1358.34040	         1.11407e+58
          1359.14670	         1.00499e+58
          1359.95300	         1.01692e+58
          1360.75930	         1.10772e+58
          1361.56560	         1.05077e+58
          1362.37190	         1.20410e+58
          1363.17820	         1.19489e+58
          1363.98450	         1.07128e+58
          1364.79080	         1.24451e+58
          1365.59710	         1.29244e+58
          1366.40340	         1.16329e+58
          1367.20970	         1.14113e+58
          1368.01600	         1.00547e+58
          1368.82230	         9.59780e+57
          1369.62860	         1.07234e+58
          1370.43490	         9.66009e+57
          1371.24120	         9.76972e+57
          1372.04750	         9.50196e+57
          1372.85380	         1.12395e+58
          1373.66010	         1.17394e+58
          1374.46640	         1.06286e+58
          1375.27270	         1.00415e+58
          1376.07900	         8.28349e+57
          1376.88530	         8.88020e+57
          1377.69160	         9.00408e+57
          1378.49790	         7.85469e+57
          1379.30420	         8.46349e+57
          1380.11050	         9.68458e+57
          1380.91680	         8.43492e+57
          1381.72310	         6.60792e+57
          1382.52940	         7.30195e+57
          1383.33570	         7.43353e+57
          1384.14200	         9.44748e+57
          1384.94830	         1.00204e+58
          1385.75460	         1.06599e+58
          1386.56090	         1.04365e+58
          1387.36720	         9.29336e+57
          1388.17350	         1.14647e+58
          1388.97980	         1.09850e+58
          1389.78610	         8.80656e+57
          1390.59240	         7.24495e+57
          1391.39870	         6.78410e+57
          1392.20500	         8.24861e+57
          1393.01130	         8.04356e+57
          1393.81760	         7.10712e+57
          1394.62390	         7.75177e+57
          1395.43020	         7.76512e+57
          1396.23650	         7.77113e+57
          1397.04280	         7.44616e+57
          1397.84910	         9.23573e+57
          1398.65540	         9.43463e+57
          1399.46170	         9.75060e+57
          1400.26800	         8.32272e+57
          1401.07430	         7.48902e+57
          1401.88060	         7.49005e+57
          1402.68690	         9.66168e+57
          1403.49320	         9.68375e+57
          1404.29950	         8.69894e+57
          1405.10580	         9.87736e+57
          1405.91210	         1.15982e+58
          1406.71840	         1.18421e+58
          1407.52470	         1.09742e+58
          1408.33100	         1.13511e+58
          1409.13730	         1.18687e+58
          1409.94360	         1.12936e+58
          1410.74990	         1.07720e+58
          1411.55620	         9.84290e+57
          1412.36250	         9.35989e+57
          1413.16880	         9.34105e+57
          1413.97510	         8.96510e+57
          1414.78140	         8.49937e+57
          1415.58770	         1.06625e+58
          1416.39400	         1.23939e+58
          1417.20030	         1.21458e+58
          1418.00660	         1.04788e+58
          1418.81290	         1.10533e+58
          1419.61920	         1.11046e+58
          1420.42550	         1.21188e+58
          1421.23180	         1.29265e+58
          1422.03810	         1.23657e+58
          1422.84440	         1.00140e+58
          1423.65070	         1.16941e+58
          1424.45700	         1.08827e+58
          1425.26330	         7.95897e+57
          1426.06960	         8.06667e+57
          1426.87590	         1.06246e+58
          1427.68220	         1.08878e+58
          1428.48850	         1.08466e+58
          1429.29480	         9.84873e+57
          1430.10110	         9.32409e+57
          1430.90740	         8.72760e+57
          1431.71370	         8.93398e+57
          1432.52000	         8.46990e+57
          1433.32630	         7.70209e+57
          1434.13260	         8.30435e+57
          1434.93890	         8.73050e+57
          1435.74520	         9.87670e+57
          1436.55150	         1.01442e+58
          1437.35780	         8.91539e+57
          1438.16410	         8.13820e+57
          1438.97040	         8.41034e+57
          1439.77670	         8.93497e+57
          1440.58300	         9.08926e+57
          1441.38930	         8.91025e+57
          1442.19560	         9.20243e+57
          1443.00190	         9.37607e+57
          1443.80820	         1.12375e+58
          1444.61450	         1.12089e+58
          1445.42080	         9.12059e+57
          1446.22710	         1.04755e+58
          1447.03340	         1.00247e+58
          1447.83970	         1.00236e+58
          1448.64600	         1.09084e+58
          1449.45230	         1.09749e+58
          1450.25860	         1.03177e+58
          1451.06490	         9.35711e+57
          1451.87120	         9.69332e+57
          1452.67750	         7.83830e+57
          1453.48380	         8.11210e+57
          1454.29010	         8.27661e+57
          1455.09640	         7.70148e+57
          1455.90270	         7.82943e+57
          1456.70900	         9.01353e+57
          1457.51530	         1.07599e+58
          1458.32160	         1.11664e+58
          1459.12790	         1.23336e+58
          1459.93420	         1.05172e+58
          1460.74050	         7.42015e+57
          1461.54680	         8.89163e+57
          1462.35310	         8.77873e+57
          1463.15940	         8.90649e+57
          1463.96570	         9.58411e+57
          1464.77200	         1.10430e+58
          1465.57830	         1.02066e+58
          1466.38460	         9.61850e+57
          1467.19090	         8.96572e+57
          1467.99720	         8.03968e+57
          1468.80350	         9.03254e+57
          1469.60980	         9.90901e+57
          1470.41610	         1.00515e+58
          1471.22240	         1.03126e+58
          1472.02870	         1.02542e+58
          1472.83500	         1.03572e+58
          1473.64130	         1.04766e+58
          1474.44760	         1.02316e+58
          1475.25390	         9.25544e+57
          1476.06020	         8.58579e+57
          1476.86650	         7.37251e+57
          1477.67280	         8.39961e+57
          1478.47910	         7.59689e+57
          1479.28540	         6.98996e+57
          1480.09170	         8.20254e+57
          1480.89800	         9.24509e+57
          1481.70430	         9.93854e+57
          1482.51060	         8.34349e+57
          1483.31690	         6.81365e+57
          1484.12320	         7.13599e+57
          1484.92950	         7.38816e+57
          1485.73580	         7.66968e+57
          1486.54210	         8.80331e+57
          1487.34840	         8.92409e+57
          1488.15470	         7.60812e+57
          1488.96100	         7.72084e+57
          1489.76730	         9.02604e+57
          1490.57360	         8.59614e+57
          1491.37990	         7.17615e+57
          1492.18620	         7.54089e+57
          1492.99250	         7.03423e+57
          1493.79880	         7.88438e+57
          1494.60510	         9.51795e+57
          1495.41140	         8.97772e+57
          1496.21770	         8.67562e+57
          1497.02400	         1.03835e+58
          1497.83030	         9.43433e+57
          1498.63660	         7.95677e+57
          1499.44290	         7.04751e+57
          1500.24920	         8.26642e+57
          1501.05550	         7.75123e+57
          1501.86180	         8.50815e+57
          1502.66810	         9.67597e+57
          1503.47440	         9.03822e+57
          1504.28070	         9.15501e+57
          1505.08700	         9.77714e+57
          1505.89330	         9.27750e+57
          1506.69960	         8.66907e+57
          1507.50590	         8.93773e+57
          1508.31220	         8.92005e+57
          1509.11850	         8.80631e+57
          1509.92480	         9.39141e+57
          1510.73110	         9.58935e+57
          1511.53740	         7.84154e+57
          1512.34370	         7.80402e+57
          1513.15000	         9.74605e+57
          1513.95630	         1.11114e+58
          1514.76260	         1.02936e+58
          1515.56890	         8.03621e+57
          1516.37520	         8.02708e+57
          1517.18150	         7.74896e+57
          1517.98780	         6.99333e+57
          1518.79410	         7.29549e+57
          1519.60040	         7.95845e+57
          1520.40670	         8.97351e+57
          1521.21300	         9.64371e+57
          1522.01930	         9.49328e+57
          1522.82560	         9.55100e+57
          1523.63190	         9.44524e+57
          1524.43820	         8.42912e+57
          1525.24450	         6.15171e+57
          1526.05080	         5.99607e+57
          1526.85710	         6.33585e+57
          1527.66340	         6.85738e+57
          1528.46970	         8.64267e+57
          1529.27600	         8.51780e+57
          1530.08230	         7.35811e+57
          1530.88860	         7.42279e+57
          1531.69490	         8.69829e+57
          1532.50120	         1.00217e+58
          1533.30750	         1.06372e+58
          1534.11380	         1.00422e+58
          1534.92010	         9.22950e+57
          1535.72640	         8.91842e+57
          1536.53270	         8.97633e+57
          1537.33900	         8.66744e+57
          1538.14530	         9.07669e+57
          1538.95160	         9.47796e+57
          1539.75790	         8.18100e+57
          1540.56420	         8.35511e+57
          1541.37050	         8.88798e+57
          1542.17680	         7.64805e+57
          1542.98310	         8.30641e+57
          1543.78940	         7.60399e+57
          1544.59570	         5.58465e+57
          1545.40200	         7.21262e+57
          1546.20830	         9.40394e+57
          1547.01460	         1.05224e+58
          1547.82090	         1.13722e+58
          1548.62720	         1.17628e+58
          1549.43350	         1.15785e+58
          1550.23980	         1.13659e+58
          1551.04610	         1.19076e+58
          1551.85240	         1.15717e+58
          1552.65870	         1.14736e+58
          1553.46500	         1.01978e+58
          1554.27130	         9.96654e+57
          1555.07760	         1.00582e+58
          1555.88390	         8.41719e+57
          1556.69020	         8.73235e+57
          1557.49650	         8.61676e+57
          1558.30280	         8.39570e+57
          1559.10910	         8.77688e+57
          1559.91540	         8.54585e+57
          1560.72170	         8.36031e+57
          1561.52800	         8.49228e+57
          1562.33430	         8.47093e+57
          1563.14060	         8.22866e+57
          1563.94690	         8.28537e+57
          1564.75320	         8.42600e+57
          1565.55950	         6.94061e+57
          1566.36580	         6.79394e+57
          1567.17210	         8.70113e+57
          1567.97840	         8.68905e+57
          1568.78470	         8.90658e+57
          1569.59100	         9.35215e+57
          1570.39730	         7.71492e+57
          1571.20360	         6.44935e+57
          1572.00990	         7.53687e+57
          1572.81620	         8.90545e+57
          1573.62250	         9.78485e+57
          1574.42880	         8.79995e+57
          1575.23510	         8.28027e+57
          1576.04140	         8.23884e+57
          1576.84770	         7.88971e+57
          1577.65400	         8.57871e+57
          1578.46030	         9.01680e+57
          1579.26660	         1.01568e+58
          1580.07290	         9.57512e+57
          1580.87920	         7.54682e+57
          1581.68550	         7.04434e+57
          1582.49180	         6.95735e+57
          1583.29810	         7.53722e+57
          1584.10440	         8.60837e+57
          1584.91070	         8.69016e+57
          1585.71700	         7.96155e+57
          1586.52330	         8.67177e+57
          1587.32960	         8.74026e+57
          1588.13590	         8.67510e+57
          1588.94220	         8.18865e+57
          1589.74850	         8.79461e+57
          1590.55480	         8.98151e+57
          1591.36110	         8.05915e+57
          1592.16740	         7.50616e+57
          1592.97370	         8.02500e+57
          1593.78000	         8.34768e+57
          1594.58630	         8.58534e+57
          1595.39260	         8.62893e+57
          1596.19890	         9.15572e+57
          1597.00520	         9.56436e+57
          1597.81150	         8.31767e+57
          1598.61780	         7.02376e+57
          1599.42410	         6.49531e+57
          1600.23040	         6.65783e+57
          1601.03670	         7.69851e+57
          1601.84300	         8.11444e+57
          1602.64930	         8.33135e+57
          1603.45560	         8.78686e+57
          1604.26190	         7.57687e+57
          1605.06820	         6.99541e+57
          1605.87450	         6.57952e+57
          1606.68080	         6.71354e+57
          1607.48710	         6.50664e+57
          1608.29340	         5.63213e+57
          1609.09970	         7.15675e+57
          1609.90600	         8.71408e+57
          1610.71230	         7.47367e+57
          1611.51860	         7.05360e+57
          1612.32490	         7.17157e+57
          1613.13120	         8.76399e+57
          1613.93750	         8.28821e+57
          1614.74380	         8.19538e+57
          1615.55010	         9.53796e+57
          1616.35640	         8.72952e+57
          1617.16270	         9.51765e+57
          1617.96900	         9.45763e+57
          1618.77530	         8.42400e+57
          1619.58160	         9.89773e+57
          1620.38790	         9.85397e+57
          1621.19420	         9.38991e+57
          1622.00050	         8.03848e+57
          1622.80680	         8.51728e+57
          1623.61310	         8.61368e+57
          1624.41940	         8.91734e+57
          1625.22570	         9.43928e+57
          1626.03200	         8.86248e+57
          1626.83830	         8.10874e+57
          1627.64460	         6.81673e+57
          1628.45090	         5.96972e+57
          1629.25720	         8.46615e+57
          1630.06350	         9.08034e+57
          1630.86980	         6.59332e+57
          1631.67610	         7.84865e+57
          1632.48240	         8.99994e+57
          1633.28870	         8.91501e+57
          1634.09500	         8.53323e+57
          1634.90130	         9.77752e+57
          1635.70760	         8.56329e+57
          1636.51390	         6.91579e+57
          1637.32020	         6.24610e+57
          1638.12650	         8.47808e+57
          1638.93280	         9.26284e+57
          1639.73910	         9.24668e+57
          1640.54540	         9.23028e+57
          1641.35170	         8.04254e+57
          1642.15800	         9.07287e+57
          1642.96430	         8.89512e+57
          1643.77060	         8.60185e+57
          1644.57690	         8.09959e+57
          1645.38320	         9.20671e+57
          1646.18950	         8.27760e+57
          1646.99580	         8.41794e+57
          1647.80210	         7.53574e+57
          1648.60840	         7.17147e+57
          1649.41470	         8.78182e+57
          1650.22100	         8.27834e+57
          1651.02730	         7.35423e+57
          1651.83360	         7.98795e+57
          1652.63990	         7.45067e+57
          1653.44620	         7.56804e+57
          1654.25250	         7.61582e+57
          1655.05880	         7.40046e+57
          1655.86510	         7.37010e+57
          1656.67140	         7.89015e+57
          1657.47770	         8.04333e+57
          1658.28400	         8.64112e+57
          1659.09030	         8.99910e+57
          1659.89660	         9.48105e+57
          1660.70290	         1.00204e+58
          1661.50920	         9.70208e+57
          1662.31550	         8.20315e+57
          1663.12180	         8.13627e+57
          1663.92810	         9.14372e+57
          1664.73440	         1.08775e+58
          1665.54070	         1.24741e+58
          1666.34700	         1.26198e+58
          1667.15330	         1.13108e+58
          1667.95960	         9.37217e+57
          1668.76590	         7.50332e+57
          1669.57220	         6.55545e+57
          1670.37850	         7.11708e+57
          1671.18480	         8.12883e+57
          1671.99110	         7.91370e+57
          1672.79740	         6.17966e+57
          1673.60370	         5.99179e+57
          1674.41000	         7.61098e+57
          1675.21630	         7.21784e+57
          1676.02260	         6.74906e+57
          1676.82890	         6.94521e+57
          1677.63520	         6.73835e+57
          1678.44150	         7.32736e+57
          1679.24780	         8.48619e+57
          1680.05410	         7.22894e+57
          1680.86040	         6.34351e+57
          1681.66670	         7.12193e+57
          1682.47300	         8.53152e+57
          1683.27930	         8.78310e+57
          1684.08560	         8.59663e+57
          1684.89190	         7.52843e+57
          1685.69820	         5.91234e+57
          1686.50450	         6.64251e+57
          1687.31080	         6.55639e+57
          1688.11710	         6.93291e+57
          1688.92340	         6.61899e+57
          1689.72970	         6.76121e+57
          1690.53600	         6.83553e+57
          1691.34230	         7.16862e+57
          1692.14860	         8.23954e+57
          1692.95490	         7.58434e+57
          1693.76120	         7.62719e+57
          1694.56750	         8.31512e+57
          1695.37380	         8.75287e+57
          1696.18010	         9.24231e+57
          1696.98640	         9.31428e+57
          1697.79270	         8.58006e+57
          1698.59900	         8.12304e+57
          1699.40530	         6.84373e+57
          1700.21160	         7.09174e+57
          1701.01790	         9.18946e+57
          1701.82420	         8.63347e+57
          1702.63050	         7.36373e+57
          1703.43680	         7.72957e+57
          1704.24310	         8.46028e+57
          1705.04940	         7.81233e+57
          1705.85570	         7.64455e+57
          1706.66200	         8.40930e+57
          1707.46830	         7.54248e+57
          1708.27460	         7.25721e+57
          1709.08090	         6.98957e+57
          1709.88720	         7.33448e+57
          1710.69350	         7.04852e+57
          1711.49980	         6.45901e+57
          1712.30610	         7.10635e+57
          1713.11240	         8.11689e+57
          1713.91870	         7.96731e+57
          1714.72500	         8.35818e+57
          1715.53130	         8.77372e+57
          1716.33760	         7.50327e+57
          1717.14390	         7.49546e+57
          1717.95020	         8.38793e+57
          1718.75650	         7.89468e+57
          1719.56280	         8.22812e+57
          1720.36910	         8.10007e+57
          1721.17540	         7.06080e+57
          1721.98170	         5.88818e+57
          1722.78800	         6.40355e+57
          1723.59430	         7.19706e+57
          1724.40060	         7.81094e+57
          1725.20690	         8.21167e+57
          1726.01320	         8.02016e+57
          1726.81950	         7.36865e+57
          1727.62580	         7.22259e+57
          1728.43210	         6.97290e+57
          1729.23840	         7.54141e+57
          1730.04470	         7.50958e+57
          1730.85100	         8.73528e+57
          1731.65730	         8.75847e+57
          1732.46360	         7.36128e+57
          1733.26990	         7.97324e+57
          1734.07620	         7.78553e+57
          1734.88250	         8.12410e+57
          1735.68880	         7.82487e+57
          1736.49510	         7.54966e+57
          1737.30140	         7.47884e+57
          1738.10770	         6.82432e+57
          1738.91400	         6.34586e+57
          1739.72030	         6.54234e+57
          1740.52660	         5.77044e+57
          1741.33290	         6.17178e+57
          1742.13920	         6.08625e+57
          1742.94550	         6.78676e+57
          1743.75180	         7.43617e+57
          1744.55810	         7.85657e+57
          1745.36440	         7.06696e+57
          1746.17070	         5.58937e+57
          1746.97700	         5.98736e+57
          1747.78330	         5.59466e+57
          1748.58960	         6.27932e+57
          1749.39590	         7.48169e+57
          1750.20220	         7.44093e+57
          1751.00850	         6.31348e+57
          1751.81480	         5.59752e+57
          1752.62110	         7.14533e+57
          1753.42740	         7.95427e+57
          1754.23370	         7.79535e+57
          1755.04000	         7.55035e+57
          1755.84630	         8.02314e+57
          1756.65260	         9.02942e+57
          1757.45890	         8.93829e+57
          1758.26520	         8.66931e+57
          1759.07150	         1.01593e+58
          1759.87780	         8.50256e+57
          1760.68410	         7.27165e+57
          1761.49040	         7.30551e+57
          1762.29670	         6.18302e+57
          1763.10300	         7.00051e+57
          1763.90930	         6.98675e+57
          1764.71560	         7.80516e+57
          1765.52190	         6.97435e+57
          1766.32820	         7.94998e+57
          1767.13450	         8.27440e+57
          1767.94080	         6.11494e+57
          1768.74710	         6.16534e+57
          1769.55340	         7.94923e+57
          1770.35970	         7.52096e+57
          1771.16600	         7.77162e+57
          1771.97230	         8.78756e+57
          1772.77860	         8.17623e+57
          1773.58490	         7.12782e+57
          1774.39120	         5.96266e+57
          1775.19750	         5.62920e+57
          1776.00380	         6.49943e+57
          1776.81010	         7.77747e+57
          1777.61640	         7.03212e+57
          1778.42270	         6.22705e+57
          1779.22900	         5.92805e+57
          1780.03530	         6.71181e+57
          1780.84160	         7.92347e+57
          1781.64790	         8.28921e+57
          1782.45420	         7.57435e+57
          1783.26050	         7.14322e+57
          1784.06680	         7.10227e+57
          1784.87310	         7.48290e+57
          1785.67940	         7.84971e+57
          1786.48570	         7.01121e+57
          1787.29200	         5.51646e+57
          1788.09830	         5.57761e+57
          1788.90460	         6.07580e+57
          1789.71090	         5.38458e+57
          1790.51720	         5.13554e+57
          1791.32350	         7.37604e+57
          1792.12980	         9.63024e+57
          1792.93610	         8.86089e+57
          1793.74240	         7.87438e+57
          1794.54870	         8.48046e+57
          1795.35500	         8.84800e+57
          1796.16130	         7.78153e+57
          1796.96760	         7.40098e+57
          1797.77390	         8.61999e+57
          1798.58020	         7.96618e+57
          1799.38650	         6.63191e+57
          1800.19280	         6.81281e+57
          1800.99910	         6.66069e+57
          1801.80540	         6.81634e+57
          1802.61170	         8.98763e+57
          1803.41800	         8.88604e+57
          1804.22430	         7.69560e+57
          1805.03060	         6.82585e+57
          1805.83690	         8.59822e+57
          1806.64320	         8.60275e+57
          1807.44950	         7.42497e+57
          1808.25580	         7.01040e+57
          1809.06210	         7.29401e+57
          1809.86840	         6.72684e+57
          1810.67470	         6.68772e+57
          1811.48100	         8.70579e+57
          1812.28730	         8.56307e+57
          1813.09360	         8.08121e+57
          1813.89990	         8.77370e+57
          1814.70620	         7.95873e+57
          1815.51250	         8.19868e+57
          1816.31880	         8.12869e+57
          1817.12510	         7.90813e+57
          1817.93140	         7.41911e+57
          1818.73770	         7.93758e+57
          1819.54400	         8.82047e+57
          1820.35030	         8.72855e+57
          1821.15660	         6.34010e+57
          1821.96290	         5.73374e+57
          1822.76920	         6.62723e+57
          1823.57550	         7.36515e+57
          1824.38180	         7.92943e+57
          1825.18810	         8.59981e+57
          1825.99440	         8.71511e+57
          1826.80070	         8.02609e+57
          1827.60700	         6.48832e+57
          1828.41330	         5.27292e+57
          1829.21960	         6.62179e+57
          1830.02590	         7.27389e+57
          1830.83220	         7.73856e+57
          1831.63850	         7.08405e+57
          1832.44480	         6.08509e+57
          1833.25110	         7.68922e+57
          1834.05740	         9.12103e+57
          1834.86370	         8.25460e+57
          1835.67000	         6.70880e+57
          1836.47630	         7.57681e+57
          1837.28260	         9.53792e+57
          1838.08890	         9.79919e+57
          1838.89520	         8.86750e+57
          1839.70150	         8.69261e+57
          1840.50780	         7.77015e+57
          1841.31410	         6.81846e+57
          1842.12040	         7.06222e+57
          1842.92670	         7.20081e+57
          1843.73300	         5.81780e+57
          1844.53930	         6.54132e+57
          1845.34560	         7.67080e+57
          1846.15190	         7.49151e+57
          1846.95820	         7.26798e+57
          1847.76450	         7.15346e+57
          1848.57080	         6.02710e+57
          1849.37710	         7.06000e+57
          1850.18340	         7.65155e+57
          1850.98970	         7.56701e+57
          1851.79600	         8.59892e+57
          1852.60230	         8.25510e+57
          1853.40860	         7.14574e+57
          1854.21490	         7.47039e+57
          1855.02120	         5.21131e+57
          1855.82750	         4.80106e+57
          1856.63380	         7.24143e+57
          1857.44010	         7.53850e+57
          1858.24640	         6.70306e+57
          1859.05270	         7.10390e+57
          1859.85900	         6.44706e+57
          1860.66530	         6.60011e+57
          1861.47160	         6.99771e+57
          1862.27790	         7.91145e+57
          1863.08420	         7.39379e+57
          1863.89050	         7.06641e+57
          1864.69680	         7.47718e+57
          1865.50310	         7.27976e+57
          1866.30940	         5.86410e+57
          1867.11570	         6.82893e+57
          1867.92200	         8.01368e+57
          1868.72830	         7.19202e+57
          1869.53460	         6.92183e+57
          1870.34090	         7.72980e+57
          1871.14720	         7.38760e+57
          1871.95350	         6.12451e+57
          1872.75980	         6.85020e+57
          1873.56610	         6.89350e+57
          1874.37240	         5.24042e+57
          1875.17870	         5.76858e+57
          1875.98500	         7.04636e+57
          1876.79130	         8.07853e+57
          1877.59760	         7.10769e+57
          1878.40390	         5.97303e+57
          1879.21020	         6.49120e+57
          1880.01650	         7.45008e+57
          1880.82280	         8.32308e+57
          1881.62910	         9.19107e+57
          1882.43540	         9.62733e+57
          1883.24170	         7.94421e+57
          1884.04800	         6.29098e+57
          1884.85430	         6.62266e+57
          1885.66060	         7.81356e+57
          1886.46690	         7.32192e+57
          1887.27320	         7.01044e+57
          1888.07950	         6.39749e+57
          1888.88580	         6.68371e+57
          1889.69210	         9.67335e+57
          1890.49840	         8.90764e+57
          1891.30470	         8.37984e+57
          1892.11100	         8.48663e+57
          1892.91730	         7.72807e+57
          1893.72360	         6.90839e+57
          1894.52990	         7.28381e+57
          1895.33620	         7.26927e+57
          1896.14250	         6.40454e+57
          1896.94880	         6.19219e+57
          1897.75510	         4.99065e+57
          1898.56140	         4.90466e+57
          1899.36770	         7.57613e+57
          1900.17400	         6.42927e+57
          1900.98030	         6.03195e+57
          1901.78660	         7.46957e+57
          1902.59290	         8.80117e+57
          1903.39920	         9.32239e+57
          1904.20550	         9.25304e+57
          1905.01180	         9.00850e+57
          1905.81810	         9.85378e+57
          1906.62440	         1.14976e+58
          1907.43070	         1.42920e+58
          1908.23700	         1.46212e+58
          1909.04330	         1.29621e+58
          1909.84960	         1.19407e+58
          1910.65590	         1.05038e+58
          1911.46220	         8.66465e+57
          1912.26850	         8.45770e+57
          1913.07480	         7.65226e+57
          1913.88110	         6.08040e+57
          1914.68740	         6.22309e+57
          1915.49370	         5.87591e+57
          1916.30000	         6.12894e+57
          1917.10630	         6.73511e+57
          1917.91260	         7.42097e+57
          1918.71890	         6.45406e+57
          1919.52520	         5.45619e+57
          1920.33150	         5.83718e+57
          1921.13780	         6.29970e+57
          1921.94410	         7.41908e+57
          1922.75040	         7.49536e+57
          1923.55670	         7.99570e+57
          1924.36300	         8.05304e+57
          1925.16930	         6.05044e+57
          1925.97560	         5.85890e+57
          1926.78190	         5.69838e+57
          1927.58820	         5.80692e+57
          1928.39450	         5.05774e+57
          1929.20080	         5.21212e+57
          1930.00710	         6.74030e+57
          1930.81340	         7.48404e+57
          1931.61970	         6.16694e+57
          1932.42600	         7.40203e+57
          1933.23230	         7.76231e+57
          1934.03860	         6.08738e+57
          1934.84490	         6.56774e+57
          1935.65120	         8.40198e+57
          1936.45750	         9.17367e+57
          1937.26380	         6.90258e+57
          1938.07010	         6.92066e+57
          1938.87640	         7.60455e+57
          1939.68270	         7.85149e+57
          1940.48900	         7.85116e+57
          1941.29530	         7.93047e+57
          1942.10160	         7.45304e+57
          1942.90790	         6.94388e+57
          1943.71420	         6.94177e+57
          1944.52050	         6.88162e+57
          1945.32680	         6.11158e+57
          1946.13310	         7.11976e+57
          1946.93940	         8.70276e+57
          1947.74570	         7.64526e+57
          1948.55200	         6.63426e+57
          1949.35830	         7.14993e+57
          1950.16460	         6.21392e+57
          1950.97090	         6.31188e+57
          1951.77720	         7.20237e+57
          1952.58350	         8.07845e+57
          1953.38980	         6.70606e+57
          1954.19610	         5.07966e+57
          1955.00240	         5.24936e+57
          1955.80870	         6.95734e+57
          1956.61500	         6.51274e+57
          1957.42130	         5.66169e+57
          1958.22760	         6.08402e+57
          1959.03390	         6.99938e+57
          1959.84020	         6.95804e+57
          1960.64650	         6.65571e+57
          1961.45280	         6.94216e+57
          1962.25910	         6.92253e+57
          1963.06540	         6.42256e+57
          1963.87170	         4.78449e+57
          1964.67800	         6.93417e+57
          1965.48430	         6.67388e+57
          1966.29060	         6.53966e+57
          1967.09690	         6.51989e+57
          1967.90320	         6.23510e+57
          1968.70950	         6.05401e+57
          1969.51580	         5.84595e+57
          1970.32210	         6.26405e+57
          1971.12840	         6.59352e+57
          1971.93470	         4.28593e+57
          1972.74100	         4.86118e+57
          1973.54730	         6.89394e+57
          1974.35360	         6.87189e+57
          1975.15990	         6.68649e+57
          1975.96620	         6.31609e+57
          1976.77250	         8.66387e+57
          1977.57880	         8.47108e+57
          1978.38510	         6.72338e+57
          1979.19140	         6.20524e+57
          1979.99770	         7.08724e+57
          1980.80400	         7.92728e+57
          1981.61030	         6.61677e+57
          1982.41660	         5.85197e+57
          1983.22290	         6.15875e+57
          1984.02920	         5.36127e+57
          1984.83550	         5.38780e+57
          1985.64180	         5.67220e+57
          1986.44810	         6.04321e+57
          1987.25440	         5.51044e+57
          1988.06070	         4.90642e+57
          1988.86700	         6.19556e+57
          1989.67330	         7.49765e+57
          1990.47960	         6.57758e+57
          1991.28590	         6.55920e+57
          1992.09220	         6.08909e+57
          1992.89850	         4.91255e+57
          1993.70480	         3.79950e+57
          1994.51110	         4.47842e+57
          1995.31740	         4.64134e+57
          1996.12370	         4.79257e+57
          1996.93000	         6.14954e+57
          1997.73630	         6.05026e+57
          1998.54260	         6.83629e+57
          1999.34890	         8.14532e+57
          2000.15520	         6.82247e+57
          2000.96150	         6.58881e+57
          2001.76780	         5.54460e+57
          2002.57410	         4.38926e+57
          2003.38040	         5.26359e+57
          2004.18670	         6.56685e+57
          2004.99300	         7.43777e+57
          2005.79930	         7.57359e+57
          2006.60560	         6.61308e+57
          2007.41190	         5.94272e+57
          2008.21820	         6.56135e+57
          2009.02450	         7.44692e+57
          2009.83080	         7.41812e+57
          2010.63710	         7.30502e+57
          2011.44340	         7.27011e+57
          2012.24970	         7.19463e+57
          2013.05600	         6.88074e+57
          2013.86230	         5.64870e+57
          2014.66860	         5.54900e+57
          2015.47490	         5.52474e+57
          2016.28120	         5.46082e+57
          2017.08750	         5.36570e+57
          2017.89380	         5.13796e+57
          2018.70010	         5.83757e+57
          2019.50640	         5.64376e+57
          2020.31270	         6.34557e+57
          2021.11900	         7.00226e+57
          2021.92530	         7.56039e+57
          2022.73160	         8.21194e+57
          2023.53790	         7.75807e+57
          2024.34420	         6.89835e+57
          2025.15050	         5.70393e+57
          2025.95680	         6.13534e+57
          2026.76310	         6.57548e+57
          2027.56940	         6.30178e+57
          2028.37570	         7.59627e+57
          2029.18200	         7.12292e+57
          2029.98830	         6.05161e+57
          2030.79460	         5.99094e+57
          2031.60090	         6.58337e+57
          2032.40720	         6.92723e+57
          2033.21350	         5.94372e+57
          2034.01980	         5.72008e+57
          2034.82610	         4.50985e+57
          2035.63240	         4.42271e+57
          2036.43870	         5.39292e+57
          2037.24500	         7.60698e+57
          2038.05130	         7.46502e+57
          2038.85760	         5.40866e+57
          2039.66390	         5.52765e+57
          2040.47020	         5.44478e+57
          2041.27650	         6.78260e+57
          2042.08280	         6.26115e+57
          2042.88910	         5.71384e+57
          2043.69540	         6.42656e+57
          2044.50170	         5.10402e+57
          2045.30800	         3.79592e+57
          2046.11430	         3.95047e+57
          2046.92060	         6.22889e+57
          2047.72690	         5.63407e+57
          2048.53320	         6.00710e+57
          2049.33950	         5.34891e+57
          2050.14580	         6.07877e+57
          2050.95210	         6.20581e+57
          2051.75840	         7.72390e+57
          2052.56470	         5.92107e+57
          2053.37100	         5.84188e+57
          2054.17730	         5.05766e+57
          2054.98360	         5.34515e+57
          2055.78990	         2.88368e+57
          2056.59620	         2.38486e+57
          2057.40250	         5.06829e+57
          2058.20880	         6.46960e+57
          2059.01510	         5.65278e+57
          2059.82140	         6.17099e+57
          2060.62770	         1.00195e+58
          2061.43400	         1.64541e+58
          2062.24030	         1.30457e+58
          2063.04660	         6.02586e+57
          2063.85290	        -6.57317e+56
          2064.65920	        -2.53940e+57
          2065.46550	        -1.10190e+58
          2066.27180	        -8.65520e+57
          2067.07810	         2.34788e+57
          2067.88440	         3.80140e+57
          2068.69070	         5.10481e+57
          2069.49700	         6.13396e+57
          2070.30330	         4.96261e+57
          2071.10960	         5.93320e+57
          2071.91590	         6.53583e+57
          2072.72220	         3.50486e+57
          2073.52850	         4.68925e+57
          2074.33480	         3.88224e+57
          2075.14110	         4.92934e+57
          2075.94740	         4.60236e+57
          2076.75370	         3.26718e+57
          2077.56000	         6.14926e+57
          2078.36630	         6.34794e+57
          2079.17260	         5.01324e+57
          2079.97890	         5.32717e+57
          2080.78520	         6.16502e+57
          2081.59150	         4.97017e+57
          2082.39780	         5.67276e+57
          2083.20410	         3.87237e+57
          2084.01040	         2.72861e+57
          2084.81670	         4.49776e+57
          2085.62300	         4.33474e+57
          2086.42930	         3.25784e+57
          2087.23560	         3.81296e+57
          2088.04190	         5.08205e+57
          2088.84820	         3.46887e+57
          2089.65450	         2.81949e+57
          2090.46080	         1.79893e+57
          2091.26710	         2.54463e+57
          2092.07340	         3.62495e+57
          2092.87970	         2.83992e+57
          2093.68600	         6.79883e+55
          2094.49230	        -6.13222e+56
          2095.29860	         4.35723e+57
          2096.10490	         3.61343e+57
          2096.91120	         4.33145e+57
          2097.71750	         3.07117e+57
          2098.52380	         1.26185e+57
          2099.33010	         1.31024e+57
          2100.13640	         1.96866e+57
          2100.94270	         3.58010e+57
          2101.74900	         3.59293e+57
          2102.55530	         5.03902e+57
          2103.36160	         4.71919e+57
          2104.16790	         5.11384e+57
          2104.97420	         2.42198e+57
          2105.78050	         4.33126e+56
          2106.58680	         9.07907e+56
          2107.39310	         1.52601e+57
          2108.19940	         2.19309e+57
          2109.00570	        -9.85755e+56
          2109.81200	        -1.85454e+57
          2110.61830	         1.93549e+56
          2111.42460	         2.55267e+57
          2112.23090	         2.76064e+57
          2113.03720	         1.29229e+57
          2113.84350	         9.90697e+56
          2114.64980	         5.32204e+56
          2115.45610	         2.75039e+57
          2116.26240	         1.98961e+57
          2117.06870	         3.96865e+55
          2117.87500	        -2.48335e+57
          2118.68130	        -5.11265e+56
          2119.48760	         2.07901e+57
          2120.29390	         3.48724e+56
          2121.10020	        -3.12196e+57
          2121.90650	        -2.87183e+57
          2122.71280	         1.14461e+57
          2123.51910	         4.52225e+57
          2124.32540	         3.08916e+57
          2125.13170	        -8.27084e+55
          2125.93800	         6.12080e+57
          2126.74430	        -4.07319e+57
          2127.55060	        -4.87886e+57
          2128.35690	        -2.01391e+57
          2129.16320	        -4.14154e+57
          2129.96950	        -2.31299e+57
          2130.77580	         2.05233e+56
          2131.58210	         1.52423e+56
          2132.38840	         1.70881e+57
          2133.19470	         1.46969e+57
          2134.00100	         3.33737e+57
          2134.80730	        -6.59005e+57
          2135.61360	        -1.09012e+57
          2136.41990	         8.69184e+56
          2137.22620	         6.91519e+57
          2138.03250	         2.74993e+57
          2138.83880	        -4.26585e+57
          2139.64510	        -4.84402e+57
          2140.45140	        -2.54340e+57
          2141.25770	        -8.15405e+57
          2142.06400	        -3.27514e+57
          2142.87030	         2.00264e+57
          2143.67660	        -5.62012e+57
          2144.48290	        -9.74186e+57
          2145.28920	         8.17234e+57
          2146.09550	        -3.66844e+57
          2146.90180	        -1.18798e+58
          2147.70810	        -7.71965e+57
          2148.51440	        -3.57561e+57
          2149.32070	        -5.52325e+57
          2150.12700	        -1.09683e+58
          2150.93330	        -3.39337e+57
          2151.73960	         7.12042e+57
          2152.54590	         4.33811e+57
          2153.35220	         4.63859e+57
          2154.15850	        -5.00545e+56
          2154.96480	        -4.49331e+57
          2155.77110	         3.85683e+57
          2156.57740	        -1.61307e+58
          2157.38370	        -8.27203e+57
          2158.19000	         3.32483e+57
          2158.99630	        -3.92558e+57
          2159.80260	        -8.31662e+57
          2160.60890	        -2.50372e+56
          2161.41520	         8.27304e+57
          2162.22150	         5.05509e+57
          2163.02780	        -2.05520e+57
          2163.83410	        -2.26335e+57
          2164.64040	        -5.97286e+57
          2165.44670	        -1.49991e+58
          2166.25300	        -1.91920e+58
          2167.05930	        -4.28168e+57
          2167.86560	        -1.47109e+58
          2168.67190	        -1.24243e+58
          2169.47820	        -4.91134e+57
          2170.28450	        -1.08916e+58
          2171.09080	        -1.23084e+57
          2171.89710	        -2.78768e+57
          2172.70340	        -6.96932e+57
          2173.50970	        -3.70852e+57
          2174.31600	        -4.77387e+57
          2175.12230	        -5.28307e+56
          2175.92860	        -2.85014e+57
          2176.73490	        -2.49965e+57
          2177.54120	        -7.87452e+57
          2178.34750	        -4.49882e+57
          2179.15380	                 nan
          2179.96010	                 nan
          2180.76640	                 nan
          2181.57270	                 nan
          2182.37900	                 nan
          2183.18530	                 nan
          2183.99160	                 nan
          2184.79790	                 nan
          2185.60420	                 nan
          2186.41050	                 nan
          2187.21680	                 nan
          2188.02310	                 nan
          2188.82940	                 nan
          2189.63570	                 nan
          2190.44200	                 nan
          2191.24830	                 nan
          2192.05460	                 nan
          2192.86090	                 nan
          2193.66720	                 nan
          2194.47350	                 nan
          2195.27980	                 nan
          2196.08610	                 nan
          2196.89240	                 nan
          2197.69870	                 nan
          2198.50500	                 nan
          2199.31130	                 nan
          2200.11760	                 nan
          2200.92390	                 nan
          2201.73020	                 nan
          2202.53650	                 nan
          2203.34280	                 nan
          2204.14910	                 nan
          2204.95540	                 nan
          2205.76170	                 nan
          2206.56800	                 nan
          2207.37430	                 nan
          2208.18060	                 nan
          2208.98690	                 nan
          2209.79320	                 nan
          2210.59950	                 nan
          2211.40580	                 nan
          2212.21210	                 nan
          2213.01840	                 nan
          2213.82470	                 nan
          2214.63100	                 nan
          2215.43730	         0.00000e+00
