#sample_408_stacked_spectrum_rest_UV-bands_median_H-alpha_noDC.txt
#median Lum: 1.69436e+42
#Rest-frame wavelength (A) | Luminosity (erg/s/A)
#
          1110.00000	         0.00000e+00
          1110.80630	         2.03068e+59
          1111.61260	         4.67689e+59
          1112.41890	         3.25049e+59
          1113.22520	         2.01691e+59
          1114.03150	         1.25980e+59
          1114.83780	         5.67726e+58
          1115.64410	         5.76585e+58
          1116.45040	        -1.00291e+59
          1117.25670	        -7.59784e+58
          1118.06300	         1.26056e+58
          1118.86930	        -7.28507e+58
          1119.67560	         1.02386e+59
          1120.48190	         2.95970e+57
          1121.28820	        -1.93316e+59
          1122.09450	         2.58932e+58
          1122.90080	         6.52933e+58
          1123.70710	         4.83957e+58
          1124.51340	         8.69330e+58
          1125.31970	         4.28871e+58
          1126.12600	         1.63385e+58
          1126.93230	        -1.94023e+58
          1127.73860	        -4.84665e+58
          1128.54490	        -1.93558e+58
          1129.35120	         2.20610e+58
          1130.15750	        -3.17859e+58
          1130.96380	        -1.03011e+58
          1131.77010	         6.08079e+58
          1132.57640	         3.57109e+58
          1133.38270	         1.20389e+58
          1134.18900	         1.19415e+58
          1134.99530	         1.51814e+58
          1135.80160	        -1.90260e+58
          1136.60790	         7.68007e+57
          1137.41420	         4.78104e+57
          1138.22050	         4.68928e+58
          1139.02680	         4.67360e+58
          1139.83310	         2.19711e+58
          1140.63940	         2.13317e+58
          1141.44570	        -7.01635e+57
          1142.25200	         2.06154e+58
          1143.05830	         2.87404e+58
          1143.86460	         4.15479e+58
          1144.67090	         2.38226e+58
          1145.47720	         1.53350e+58
          1146.28350	         1.94994e+58
          1147.08980	         1.53460e+58
          1147.89610	         1.29176e+58
          1148.70240	         2.49256e+58
          1149.50870	         3.18440e+58
          1150.31500	         1.52517e+58
          1151.12130	         1.31238e+58
          1151.92760	         1.32164e+58
          1152.73390	         1.43924e+58
          1153.54020	         5.87732e+57
          1154.34650	         1.58510e+58
          1155.15280	         2.68178e+58
          1155.95910	         1.90574e+58
          1156.76540	         1.39124e+58
          1157.57170	        -4.16522e+57
          1158.37800	        -1.76990e+57
          1159.18430	        -4.90152e+57
          1159.99060	         6.81897e+57
          1160.79690	         6.19083e+57
          1161.60320	         8.76020e+57
          1162.40950	         2.33719e+58
          1163.21580	         1.58238e+58
          1164.02210	         1.80327e+58
          1164.82840	         4.91172e+57
          1165.63470	         1.67300e+58
          1166.44100	         3.22480e+58
          1167.24730	         1.53140e+58
          1168.05360	         8.45876e+57
          1168.85990	         1.10384e+58
          1169.66620	         1.81424e+58
          1170.47250	         2.26320e+58
          1171.27880	         8.62023e+57
          1172.08510	         1.28601e+58
          1172.89140	         1.76461e+58
          1173.69770	         9.46554e+57
          1174.50400	         1.14131e+58
          1175.31030	         1.31500e+58
          1176.11660	         1.21874e+58
          1176.92290	         1.50414e+58
          1177.72920	         1.25424e+58
          1178.53550	         8.99545e+57
          1179.34180	         3.96064e+57
          1180.14810	         5.75360e+57
          1180.95440	         4.97119e+57
          1181.76070	         4.22158e+57
          1182.56700	         3.21958e+57
          1183.37330	         5.44618e+57
          1184.17960	         1.20729e+58
          1184.98590	         1.21801e+58
          1185.79220	         6.36954e+57
          1186.59850	         9.54925e+57
          1187.40480	         9.77656e+57
          1188.21110	         9.39059e+57
          1189.01740	         5.35479e+57
          1189.82370	         3.24787e+57
          1190.63000	         7.74692e+57
          1191.43630	         1.05687e+58
          1192.24260	         7.98471e+57
          1193.04890	         1.06452e+58
          1193.85520	         9.16707e+57
          1194.66150	         6.11358e+57
          1195.46780	         1.39945e+58
          1196.27410	         1.75140e+58
          1197.08040	         1.16707e+58
          1197.88670	         1.30978e+58
          1198.69300	         1.55429e+58
          1199.49930	         1.67028e+58
          1200.30560	         1.32948e+58
          1201.11190	         1.14588e+58
          1201.91820	         1.30403e+58
          1202.72450	         8.33210e+57
          1203.53080	         1.77755e+58
          1204.33710	         1.29113e+58
          1205.14340	         7.34931e+57
          1205.94970	         7.06664e+57
          1206.75600	         5.68545e+57
          1207.56230	         6.66505e+57
          1208.36860	         9.32634e+57
          1209.17490	         3.09672e+57
          1209.98120	         6.52351e+57
          1210.78750	         1.01229e+58
          1211.59380	         1.28643e+58
          1212.40010	         2.03474e+58
          1213.20640	         2.36018e+58
          1214.01270	         2.25053e+58
          1214.81900	         2.62218e+58
          1215.62530	         4.56211e+58
          1216.43160	         9.26380e+58
          1217.23790	         1.52092e+59
          1218.04420	         1.12574e+59
          1218.85050	         8.76265e+58
          1219.65680	         6.02271e+58
          1220.46310	         3.36931e+58
          1221.26940	         2.21716e+58
          1222.07570	         1.23052e+58
          1222.88200	         8.87239e+57
          1223.68830	         1.15453e+58
          1224.49460	         1.12471e+58
          1225.30090	         7.00933e+57
          1226.10720	         4.94409e+57
          1226.91350	         7.89054e+57
          1227.71980	         8.90332e+57
          1228.52610	         9.56568e+57
          1229.33240	         8.08721e+57
          1230.13870	         1.09085e+58
          1230.94500	         1.10673e+58
          1231.75130	         8.47626e+57
          1232.55760	         1.00782e+58
          1233.36390	         9.13880e+57
          1234.17020	         1.01768e+58
          1234.97650	         9.37599e+57
          1235.78280	         8.86162e+57
          1236.58910	         7.55064e+57
          1237.39540	         1.00045e+58
          1238.20170	         1.28583e+58
          1239.00800	         1.53670e+58
          1239.81430	         1.79461e+58
          1240.62060	         1.38479e+58
          1241.42690	         1.07537e+58
          1242.23320	         1.12389e+58
          1243.03950	         8.70218e+57
          1243.84580	         1.03936e+58
          1244.65210	         1.13311e+58
          1245.45840	         9.43321e+57
          1246.26470	         9.69684e+57
          1247.07100	         9.32653e+57
          1247.87730	         7.66702e+57
          1248.68360	         3.14188e+57
          1249.48990	         3.68963e+57
          1250.29620	         6.34366e+57
          1251.10250	         5.73223e+57
          1251.90880	         4.66750e+57
          1252.71510	         6.94072e+57
          1253.52140	         8.52277e+57
          1254.32770	         1.08468e+58
          1255.13400	         1.21952e+58
          1255.94030	         1.09800e+58
          1256.74660	         1.00560e+58
          1257.55290	         1.02189e+58
          1258.35920	         8.82825e+57
          1259.16550	         6.84251e+57
          1259.97180	         5.53694e+57
          1260.77810	         8.19420e+57
          1261.58440	         1.07772e+58
          1262.39070	         7.83799e+57
          1263.19700	         6.87126e+57
          1264.00330	         7.97338e+57
          1264.80960	         1.19804e+58
          1265.61590	         1.39996e+58
          1266.42220	         1.26279e+58
          1267.22850	         1.17159e+58
          1268.03480	         1.37516e+58
          1268.84110	         1.53928e+58
          1269.64740	         1.57488e+58
          1270.45370	         1.50710e+58
          1271.26000	         9.87303e+57
          1272.06630	         9.41626e+57
          1272.87260	         1.28669e+58
          1273.67890	         1.04327e+58
          1274.48520	         1.01225e+58
          1275.29150	         1.42451e+58
          1276.09780	         1.29502e+58
          1276.90410	         1.55159e+58
          1277.71040	         1.28104e+58
          1278.51670	         1.12497e+58
          1279.32300	         1.39242e+58
          1280.12930	         1.27384e+58
          1280.93560	         9.38062e+57
          1281.74190	         1.10405e+58
          1282.54820	         1.32164e+58
          1283.35450	         1.25272e+58
          1284.16080	         1.18103e+58
          1284.96710	         1.35828e+58
          1285.77340	         1.23346e+58
          1286.57970	         1.11591e+58
          1287.38600	         1.42675e+58
          1288.19230	         1.71448e+58
          1288.99860	         1.49059e+58
          1289.80490	         1.05522e+58
          1290.61120	         1.12291e+58
          1291.41750	         1.15147e+58
          1292.22380	         1.13750e+58
          1293.03010	         1.10445e+58
          1293.83640	         1.12161e+58
          1294.64270	         9.58729e+57
          1295.44900	         7.17314e+57
          1296.25530	         8.04505e+57
          1297.06160	         9.05830e+57
          1297.86790	         1.14209e+58
          1298.67420	         1.06187e+58
          1299.48050	         9.64077e+57
          1300.28680	         9.46482e+57
          1301.09310	         6.70321e+57
          1301.89940	         4.98335e+57
          1302.70570	         7.14335e+57
          1303.51200	         7.41370e+57
          1304.31830	         9.18848e+57
          1305.12460	         1.14118e+58
          1305.93090	         1.21182e+58
          1306.73720	         1.23859e+58
          1307.54350	         1.41246e+58
          1308.34980	         1.44567e+58
          1309.15610	         1.47218e+58
          1309.96240	         1.51723e+58
          1310.76870	         1.33561e+58
          1311.57500	         1.24217e+58
          1312.38130	         1.13785e+58
          1313.18760	         1.04830e+58
          1313.99390	         1.55690e+58
          1314.80020	         1.84349e+58
          1315.60650	         1.48214e+58
          1316.41280	         1.20596e+58
          1317.21910	         1.14876e+58
          1318.02540	         1.36527e+58
          1318.83170	         1.35948e+58
          1319.63800	         1.09533e+58
          1320.44430	         1.03665e+58
          1321.25060	         1.14329e+58
          1322.05690	         1.13523e+58
          1322.86320	         1.26109e+58
          1323.66950	         1.20533e+58
          1324.47580	         1.05239e+58
          1325.28210	         1.13808e+58
          1326.08840	         1.19834e+58
          1326.89470	         1.12217e+58
          1327.70100	         9.63445e+57
          1328.50730	         8.03376e+57
          1329.31360	         9.49770e+57
          1330.11990	         9.82627e+57
          1330.92620	         9.69207e+57
          1331.73250	         1.06796e+58
          1332.53880	         9.68617e+57
          1333.34510	         9.44813e+57
          1334.15140	         9.16838e+57
          1334.95770	         9.89180e+57
          1335.76400	         1.16543e+58
          1336.57030	         1.02047e+58
          1337.37660	         9.34185e+57
          1338.18290	         1.07942e+58
          1338.98920	         1.15544e+58
          1339.79550	         1.09769e+58
          1340.60180	         1.13844e+58
          1341.40810	         1.18767e+58
          1342.21440	         1.16894e+58
          1343.02070	         1.30387e+58
          1343.82700	         1.28907e+58
          1344.63330	         1.13860e+58
          1345.43960	         1.05172e+58
          1346.24590	         8.75659e+57
          1347.05220	         9.95437e+57
          1347.85850	         1.10493e+58
          1348.66480	         1.19701e+58
          1349.47110	         1.20220e+58
          1350.27740	         1.16635e+58
          1351.08370	         1.12666e+58
          1351.89000	         1.10233e+58
          1352.69630	         1.09345e+58
          1353.50260	         1.16576e+58
          1354.30890	         1.24194e+58
          1355.11520	         1.16319e+58
          1355.92150	         1.03400e+58
          1356.72780	         1.03760e+58
          1357.53410	         1.08256e+58
          1358.34040	         9.61668e+57
          1359.14670	         9.78316e+57
          1359.95300	         1.08775e+58
          1360.75930	         1.12564e+58
          1361.56560	         1.18881e+58
          1362.37190	         1.23599e+58
          1363.17820	         1.22068e+58
          1363.98450	         1.19839e+58
          1364.79080	         1.16680e+58
          1365.59710	         1.22691e+58
          1366.40340	         1.12771e+58
          1367.20970	         1.06379e+58
          1368.01600	         1.05914e+58
          1368.82230	         9.78650e+57
          1369.62860	         1.05342e+58
          1370.43490	         9.32898e+57
          1371.24120	         9.58550e+57
          1372.04750	         8.97360e+57
          1372.85380	         9.93897e+57
          1373.66010	         9.76258e+57
          1374.46640	         9.88964e+57
          1375.27270	         1.12359e+58
          1376.07900	         1.00521e+58
          1376.88530	         8.56231e+57
          1377.69160	         8.63966e+57
          1378.49790	         7.54951e+57
          1379.30420	         8.11633e+57
          1380.11050	         8.65326e+57
          1380.91680	         7.96868e+57
          1381.72310	         8.38613e+57
          1382.52940	         1.02048e+58
          1383.33570	         8.12379e+57
          1384.14200	         8.97861e+57
          1384.94830	         1.00887e+58
          1385.75460	         1.04129e+58
          1386.56090	         1.09353e+58
          1387.36720	         9.79112e+57
          1388.17350	         1.09276e+58
          1388.97980	         1.06591e+58
          1389.78610	         9.04206e+57
          1390.59240	         7.91621e+57
          1391.39870	         6.99525e+57
          1392.20500	         7.24004e+57
          1393.01130	         6.78320e+57
          1393.81760	         7.14027e+57
          1394.62390	         8.00148e+57
          1395.43020	         7.06295e+57
          1396.23650	         6.78855e+57
          1397.04280	         7.36082e+57
          1397.84910	         8.49532e+57
          1398.65540	         8.47227e+57
          1399.46170	         9.30429e+57
          1400.26800	         7.63511e+57
          1401.07430	         7.86476e+57
          1401.88060	         8.87499e+57
          1402.68690	         9.45340e+57
          1403.49320	         9.54771e+57
          1404.29950	         8.55254e+57
          1405.10580	         8.42677e+57
          1405.91210	         9.85146e+57
          1406.71840	         1.19852e+58
          1407.52470	         1.12228e+58
          1408.33100	         1.04497e+58
          1409.13730	         1.03138e+58
          1409.94360	         1.03535e+58
          1410.74990	         1.10799e+58
          1411.55620	         1.05782e+58
          1412.36250	         9.56229e+57
          1413.16880	         8.03414e+57
          1413.97510	         7.96694e+57
          1414.78140	         8.08567e+57
          1415.58770	         9.38751e+57
          1416.39400	         9.24358e+57
          1417.20030	         8.82462e+57
          1418.00660	         8.98016e+57
          1418.81290	         1.02726e+58
          1419.61920	         1.11088e+58
          1420.42550	         1.28866e+58
          1421.23180	         1.34178e+58
          1422.03810	         1.24920e+58
          1422.84440	         1.16924e+58
          1423.65070	         1.33394e+58
          1424.45700	         1.23879e+58
          1425.26330	         9.06585e+57
          1426.06960	         8.01160e+57
          1426.87590	         8.81743e+57
          1427.68220	         9.12474e+57
          1428.48850	         9.63168e+57
          1429.29480	         9.82023e+57
          1430.10110	         1.00669e+58
          1430.90740	         8.33240e+57
          1431.71370	         8.51862e+57
          1432.52000	         8.99175e+57
          1433.32630	         7.93821e+57
          1434.13260	         7.76771e+57
          1434.93890	         7.87216e+57
          1435.74520	         8.67577e+57
          1436.55150	         9.13819e+57
          1437.35780	         9.36736e+57
          1438.16410	         9.53142e+57
          1438.97040	         9.00524e+57
          1439.77670	         9.40138e+57
          1440.58300	         9.97038e+57
          1441.38930	         9.79563e+57
          1442.19560	         9.10543e+57
          1443.00190	         8.88728e+57
          1443.80820	         1.13625e+58
          1444.61450	         1.09069e+58
          1445.42080	         7.86775e+57
          1446.22710	         9.03042e+57
          1447.03340	         9.79359e+57
          1447.83970	         1.00193e+58
          1448.64600	         1.06121e+58
          1449.45230	         1.03047e+58
          1450.25860	         9.68092e+57
          1451.06490	         8.05220e+57
          1451.87120	         6.95165e+57
          1452.67750	         7.53228e+57
          1453.48380	         9.19175e+57
          1454.29010	         8.84905e+57
          1455.09640	         7.50193e+57
          1455.90270	         7.81875e+57
          1456.70900	         8.68528e+57
          1457.51530	         1.04681e+58
          1458.32160	         1.24627e+58
          1459.12790	         1.13733e+58
          1459.93420	         1.04775e+58
          1460.74050	         8.08660e+57
          1461.54680	         8.09161e+57
          1462.35310	         8.38953e+57
          1463.15940	         9.12933e+57
          1463.96570	         1.01888e+58
          1464.77200	         1.14126e+58
          1465.57830	         1.06762e+58
          1466.38460	         9.17451e+57
          1467.19090	         8.52529e+57
          1467.99720	         8.88351e+57
          1468.80350	         8.72256e+57
          1469.60980	         8.23991e+57
          1470.41610	         1.00285e+58
          1471.22240	         9.12203e+57
          1472.02870	         9.58305e+57
          1472.83500	         1.01490e+58
          1473.64130	         8.73037e+57
          1474.44760	         8.52301e+57
          1475.25390	         8.18602e+57
          1476.06020	         7.97183e+57
          1476.86650	         7.46207e+57
          1477.67280	         7.40095e+57
          1478.47910	         7.14703e+57
          1479.28540	         7.04402e+57
          1480.09170	         8.58945e+57
          1480.89800	         7.94324e+57
          1481.70430	         7.86563e+57
          1482.51060	         7.76090e+57
          1483.31690	         6.68782e+57
          1484.12320	         7.15173e+57
          1484.92950	         7.68118e+57
          1485.73580	         8.49051e+57
          1486.54210	         9.68137e+57
          1487.34840	         9.25751e+57
          1488.15470	         8.07741e+57
          1488.96100	         7.99829e+57
          1489.76730	         9.10246e+57
          1490.57360	         9.39907e+57
          1491.37990	         8.72372e+57
          1492.18620	         8.59150e+57
          1492.99250	         8.19063e+57
          1493.79880	         8.00660e+57
          1494.60510	         8.25029e+57
          1495.41140	         6.84870e+57
          1496.21770	         8.20347e+57
          1497.02400	         1.14144e+58
          1497.83030	         9.00954e+57
          1498.63660	         6.67979e+57
          1499.44290	         7.52154e+57
          1500.24920	         7.08040e+57
          1501.05550	         7.59364e+57
          1501.86180	         8.01586e+57
          1502.66810	         9.02945e+57
          1503.47440	         9.36193e+57
          1504.28070	         9.11373e+57
          1505.08700	         1.04544e+58
          1505.89330	         9.13140e+57
          1506.69960	         7.91557e+57
          1507.50590	         9.17247e+57
          1508.31220	         8.20666e+57
          1509.11850	         8.05922e+57
          1509.92480	         9.19821e+57
          1510.73110	         9.07103e+57
          1511.53740	         8.08563e+57
          1512.34370	         7.11414e+57
          1513.15000	         8.73597e+57
          1513.95630	         9.63289e+57
          1514.76260	         8.91851e+57
          1515.56890	         7.86875e+57
          1516.37520	         8.10408e+57
          1517.18150	         8.44793e+57
          1517.98780	         8.73843e+57
          1518.79410	         7.57122e+57
          1519.60040	         7.67605e+57
          1520.40670	         9.84063e+57
          1521.21300	         9.35965e+57
          1522.01930	         8.79983e+57
          1522.82560	         9.31969e+57
          1523.63190	         9.92997e+57
          1524.43820	         8.65216e+57
          1525.24450	         6.28343e+57
          1526.05080	         5.85543e+57
          1526.85710	         5.91949e+57
          1527.66340	         6.14663e+57
          1528.46970	         7.51459e+57
          1529.27600	         7.43639e+57
          1530.08230	         7.06852e+57
          1530.88860	         6.84589e+57
          1531.69490	         8.21628e+57
          1532.50120	         8.83673e+57
          1533.30750	         8.86539e+57
          1534.11380	         8.92386e+57
          1534.92010	         9.28519e+57
          1535.72640	         1.04441e+58
          1536.53270	         9.32565e+57
          1537.33900	         8.09774e+57
          1538.14530	         8.36879e+57
          1538.95160	         8.15517e+57
          1539.75790	         8.47052e+57
          1540.56420	         8.81333e+57
          1541.37050	         8.98694e+57
          1542.17680	         7.65447e+57
          1542.98310	         8.00697e+57
          1543.78940	         7.83415e+57
          1544.59570	         6.61260e+57
          1545.40200	         8.16875e+57
          1546.20830	         9.05281e+57
          1547.01460	         1.10758e+58
          1547.82090	         1.18322e+58
          1548.62720	         1.25657e+58
          1549.43350	         1.30222e+58
          1550.23980	         1.15337e+58
          1551.04610	         1.27607e+58
          1551.85240	         1.13126e+58
          1552.65870	         1.15760e+58
          1553.46500	         1.05867e+58
          1554.27130	         1.03166e+58
          1555.07760	         1.03354e+58
          1555.88390	         8.57024e+57
          1556.69020	         8.85658e+57
          1557.49650	         9.35150e+57
          1558.30280	         9.42238e+57
          1559.10910	         9.05879e+57
          1559.91540	         9.10220e+57
          1560.72170	         8.05584e+57
          1561.52800	         7.47523e+57
          1562.33430	         8.18248e+57
          1563.14060	         7.44754e+57
          1563.94690	         6.60956e+57
          1564.75320	         8.05915e+57
          1565.55950	         6.61586e+57
          1566.36580	         6.61736e+57
          1567.17210	         9.01442e+57
          1567.97840	         9.14251e+57
          1568.78470	         9.14633e+57
          1569.59100	         9.13929e+57
          1570.39730	         7.98635e+57
          1571.20360	         6.62160e+57
          1572.00990	         7.32078e+57
          1572.81620	         8.20773e+57
          1573.62250	         9.10067e+57
          1574.42880	         8.87911e+57
          1575.23510	         8.08700e+57
          1576.04140	         8.65809e+57
          1576.84770	         8.97615e+57
          1577.65400	         9.23698e+57
          1578.46030	         9.76304e+57
          1579.26660	         1.04966e+58
          1580.07290	         9.61817e+57
          1580.87920	         8.12745e+57
          1581.68550	         7.18834e+57
          1582.49180	         7.28486e+57
          1583.29810	         8.64100e+57
          1584.10440	         8.55594e+57
          1584.91070	         7.99954e+57
          1585.71700	         8.10717e+57
          1586.52330	         9.22118e+57
          1587.32960	         8.86292e+57
          1588.13590	         8.57422e+57
          1588.94220	         7.84137e+57
          1589.74850	         8.24881e+57
          1590.55480	         9.13167e+57
          1591.36110	         8.78792e+57
          1592.16740	         8.35510e+57
          1592.97370	         7.77160e+57
          1593.78000	         9.12652e+57
          1594.58630	         9.98945e+57
          1595.39260	         8.83308e+57
          1596.19890	         8.36265e+57
          1597.00520	         8.48738e+57
          1597.81150	         7.76176e+57
          1598.61780	         6.69467e+57
          1599.42410	         7.16173e+57
          1600.23040	         6.98293e+57
          1601.03670	         7.69658e+57
          1601.84300	         7.62933e+57
          1602.64930	         8.87543e+57
          1603.45560	         9.93576e+57
          1604.26190	         8.33419e+57
          1605.06820	         8.33109e+57
          1605.87450	         8.05935e+57
          1606.68080	         7.89299e+57
          1607.48710	         6.54416e+57
          1608.29340	         5.48364e+57
          1609.09970	         6.66143e+57
          1609.90600	         7.71825e+57
          1610.71230	         6.62458e+57
          1611.51860	         6.14653e+57
          1612.32490	         5.56084e+57
          1613.13120	         6.75243e+57
          1613.93750	         8.67641e+57
          1614.74380	         9.28761e+57
          1615.55010	         8.96021e+57
          1616.35640	         8.94302e+57
          1617.16270	         1.00022e+58
          1617.96900	         9.74600e+57
          1618.77530	         7.84269e+57
          1619.58160	         7.73717e+57
          1620.38790	         8.40545e+57
          1621.19420	         1.02325e+58
          1622.00050	         7.99388e+57
          1622.80680	         8.52885e+57
          1623.61310	         8.30734e+57
          1624.41940	         7.91251e+57
          1625.22570	         8.83811e+57
          1626.03200	         9.00201e+57
          1626.83830	         7.96149e+57
          1627.64460	         6.69577e+57
          1628.45090	         6.81859e+57
          1629.25720	         8.99997e+57
          1630.06350	         1.09422e+58
          1630.86980	         6.66576e+57
          1631.67610	         6.97400e+57
          1632.48240	         9.89941e+57
          1633.28870	         8.63672e+57
          1634.09500	         7.99783e+57
          1634.90130	         9.64410e+57
          1635.70760	         8.62413e+57
          1636.51390	         7.64976e+57
          1637.32020	         7.61145e+57
          1638.12650	         8.82559e+57
          1638.93280	         9.39567e+57
          1639.73910	         9.73744e+57
          1640.54540	         1.01604e+58
          1641.35170	         9.67149e+57
          1642.15800	         8.80344e+57
          1642.96430	         8.02082e+57
          1643.77060	         8.67422e+57
          1644.57690	         7.38588e+57
          1645.38320	         7.43707e+57
          1646.18950	         7.48702e+57
          1646.99580	         8.78271e+57
          1647.80210	         8.05639e+57
          1648.60840	         7.19279e+57
          1649.41470	         7.65780e+57
          1650.22100	         7.40382e+57
          1651.02730	         6.80552e+57
          1651.83360	         6.08511e+57
          1652.63990	         7.52175e+57
          1653.44620	         8.95140e+57
          1654.25250	         8.10426e+57
          1655.05880	         7.58022e+57
          1655.86510	         8.29502e+57
          1656.67140	         8.84916e+57
          1657.47770	         8.43383e+57
          1658.28400	         8.46466e+57
          1659.09030	         8.36683e+57
          1659.89660	         8.52854e+57
          1660.70290	         9.58500e+57
          1661.50920	         9.65293e+57
          1662.31550	         8.33808e+57
          1663.12180	         8.15308e+57
          1663.92810	         9.32328e+57
          1664.73440	         1.07981e+58
          1665.54070	         1.25031e+58
          1666.34700	         1.29540e+58
          1667.15330	         1.17990e+58
          1667.95960	         9.51763e+57
          1668.76590	         8.15417e+57
          1669.57220	         6.68098e+57
          1670.37850	         6.16311e+57
          1671.18480	         7.30151e+57
          1671.99110	         7.78237e+57
          1672.79740	         7.23794e+57
          1673.60370	         6.79241e+57
          1674.41000	         7.01976e+57
          1675.21630	         7.03798e+57
          1676.02260	         6.89250e+57
          1676.82890	         6.90045e+57
          1677.63520	         7.03856e+57
          1678.44150	         6.61727e+57
          1679.24780	         8.44255e+57
          1680.05410	         8.04863e+57
          1680.86040	         5.69031e+57
          1681.66670	         6.27150e+57
          1682.47300	         7.80904e+57
          1683.27930	         8.87329e+57
          1684.08560	         8.75225e+57
          1684.89190	         7.87235e+57
          1685.69820	         5.25746e+57
          1686.50450	         4.88088e+57
          1687.31080	         6.66489e+57
          1688.11710	         7.73649e+57
          1688.92340	         7.39985e+57
          1689.72970	         6.38851e+57
          1690.53600	         5.71119e+57
          1691.34230	         7.33308e+57
          1692.14860	         8.25293e+57
          1692.95490	         7.98132e+57
          1693.76120	         8.46513e+57
          1694.56750	         7.79591e+57
          1695.37380	         7.76329e+57
          1696.18010	         7.78361e+57
          1696.98640	         8.72427e+57
          1697.79270	         8.31684e+57
          1698.59900	         8.20211e+57
          1699.40530	         7.57015e+57
          1700.21160	         7.19278e+57
          1701.01790	         8.27022e+57
          1701.82420	         7.48365e+57
          1702.63050	         6.39875e+57
          1703.43680	         8.63830e+57
          1704.24310	         9.12500e+57
          1705.04940	         7.95196e+57
          1705.85570	         6.71337e+57
          1706.66200	         7.35910e+57
          1707.46830	         7.75120e+57
          1708.27460	         7.26806e+57
          1709.08090	         7.09766e+57
          1709.88720	         6.76114e+57
          1710.69350	         6.31170e+57
          1711.49980	         7.30560e+57
          1712.30610	         6.46887e+57
          1713.11240	         7.65981e+57
          1713.91870	         7.40356e+57
          1714.72500	         7.25123e+57
          1715.53130	         8.85241e+57
          1716.33760	         8.11062e+57
          1717.14390	         8.08212e+57
          1717.95020	         9.06216e+57
          1718.75650	         9.21026e+57
          1719.56280	         8.92204e+57
          1720.36910	         7.61319e+57
          1721.17540	         6.77592e+57
          1721.98170	         5.71360e+57
          1722.78800	         6.61030e+57
          1723.59430	         7.94377e+57
          1724.40060	         7.79331e+57
          1725.20690	         7.37284e+57
          1726.01320	         7.62488e+57
          1726.81950	         7.71381e+57
          1727.62580	         7.80361e+57
          1728.43210	         7.13897e+57
          1729.23840	         6.78386e+57
          1730.04470	         7.63397e+57
          1730.85100	         8.96835e+57
          1731.65730	         8.42731e+57
          1732.46360	         8.00664e+57
          1733.26990	         7.40332e+57
          1734.07620	         7.21446e+57
          1734.88250	         7.64063e+57
          1735.68880	         7.42570e+57
          1736.49510	         8.16084e+57
          1737.30140	         7.74765e+57
          1738.10770	         7.61414e+57
          1738.91400	         7.56428e+57
          1739.72030	         7.50789e+57
          1740.52660	         5.47372e+57
          1741.33290	         4.89773e+57
          1742.13920	         6.02106e+57
          1742.94550	         6.76523e+57
          1743.75180	         7.51823e+57
          1744.55810	         7.82595e+57
          1745.36440	         6.78491e+57
          1746.17070	         5.84576e+57
          1746.97700	         6.03174e+57
          1747.78330	         7.18185e+57
          1748.58960	         6.81240e+57
          1749.39590	         6.24711e+57
          1750.20220	         6.33965e+57
          1751.00850	         6.43082e+57
          1751.81480	         5.32056e+57
          1752.62110	         6.13628e+57
          1753.42740	         6.70416e+57
          1754.23370	         5.93751e+57
          1755.04000	         8.30592e+57
          1755.84630	         9.09270e+57
          1756.65260	         8.53405e+57
          1757.45890	         8.08333e+57
          1758.26520	         7.71464e+57
          1759.07150	         8.93966e+57
          1759.87780	         8.37568e+57
          1760.68410	         8.00076e+57
          1761.49040	         7.34031e+57
          1762.29670	         6.95017e+57
          1763.10300	         7.94267e+57
          1763.90930	         8.73189e+57
          1764.71560	         8.47072e+57
          1765.52190	         8.20462e+57
          1766.32820	         8.32438e+57
          1767.13450	         8.20001e+57
          1767.94080	         6.57102e+57
          1768.74710	         6.53200e+57
          1769.55340	         6.53106e+57
          1770.35970	         6.41075e+57
          1771.16600	         7.59849e+57
          1771.97230	         8.65269e+57
          1772.77860	         7.93488e+57
          1773.58490	         6.43336e+57
          1774.39120	         6.14446e+57
          1775.19750	         6.31701e+57
          1776.00380	         6.81700e+57
          1776.81010	         7.05062e+57
          1777.61640	         6.12631e+57
          1778.42270	         5.90928e+57
          1779.22900	         6.42687e+57
          1780.03530	         6.21214e+57
          1780.84160	         7.36891e+57
          1781.64790	         8.22945e+57
          1782.45420	         7.04522e+57
          1783.26050	         6.44418e+57
          1784.06680	         7.22703e+57
          1784.87310	         7.47472e+57
          1785.67940	         7.76660e+57
          1786.48570	         7.43081e+57
          1787.29200	         6.66838e+57
          1788.09830	         6.36450e+57
          1788.90460	         5.26536e+57
          1789.71090	         5.15443e+57
          1790.51720	         5.30394e+57
          1791.32350	         7.64868e+57
          1792.12980	         8.90513e+57
          1792.93610	         7.90945e+57
          1793.74240	         7.47328e+57
          1794.54870	         7.92416e+57
          1795.35500	         7.31514e+57
          1796.16130	         7.48389e+57
          1796.96760	         7.48286e+57
          1797.77390	         7.08735e+57
          1798.58020	         7.17581e+57
          1799.38650	         6.98819e+57
          1800.19280	         6.75704e+57
          1800.99910	         7.11338e+57
          1801.80540	         6.40060e+57
          1802.61170	         7.57109e+57
          1803.41800	         8.02477e+57
          1804.22430	         7.58403e+57
          1805.03060	         7.69228e+57
          1805.83690	         7.68733e+57
          1806.64320	         7.24460e+57
          1807.44950	         8.26114e+57
          1808.25580	         7.50850e+57
          1809.06210	         8.02527e+57
          1809.86840	         8.09810e+57
          1810.67470	         6.40419e+57
          1811.48100	         7.59359e+57
          1812.28730	         7.87812e+57
          1813.09360	         7.24587e+57
          1813.89990	         7.85665e+57
          1814.70620	         7.42852e+57
          1815.51250	         6.85517e+57
          1816.31880	         7.01037e+57
          1817.12510	         7.13867e+57
          1817.93140	         7.27500e+57
          1818.73770	         7.47038e+57
          1819.54400	         7.48787e+57
          1820.35030	         8.16359e+57
          1821.15660	         6.34608e+57
          1821.96290	         6.38788e+57
          1822.76920	         7.28686e+57
          1823.57550	         7.36384e+57
          1824.38180	         7.75883e+57
          1825.18810	         7.90661e+57
          1825.99440	         8.45185e+57
          1826.80070	         7.97518e+57
          1827.60700	         6.56811e+57
          1828.41330	         5.79871e+57
          1829.21960	         6.14195e+57
          1830.02590	         6.35840e+57
          1830.83220	         7.11068e+57
          1831.63850	         7.41772e+57
          1832.44480	         7.20142e+57
          1833.25110	         8.89249e+57
          1834.05740	         9.22203e+57
          1834.86370	         7.50038e+57
          1835.67000	         5.71840e+57
          1836.47630	         6.23689e+57
          1837.28260	         8.03515e+57
          1838.08890	         8.66630e+57
          1838.89520	         8.75245e+57
          1839.70150	         7.68638e+57
          1840.50780	         6.23591e+57
          1841.31410	         5.85476e+57
          1842.12040	         6.45390e+57
          1842.92670	         6.64070e+57
          1843.73300	         5.85285e+57
          1844.53930	         6.03074e+57
          1845.34560	         6.87528e+57
          1846.15190	         7.28728e+57
          1846.95820	         8.45534e+57
          1847.76450	         7.35432e+57
          1848.57080	         6.12275e+57
          1849.37710	         7.01276e+57
          1850.18340	         7.60755e+57
          1850.98970	         7.31313e+57
          1851.79600	         8.32918e+57
          1852.60230	         7.04457e+57
          1853.40860	         7.06115e+57
          1854.21490	         7.45453e+57
          1855.02120	         5.65453e+57
          1855.82750	         4.52589e+57
          1856.63380	         6.10690e+57
          1857.44010	         6.55998e+57
          1858.24640	         7.13112e+57
          1859.05270	         6.55302e+57
          1859.85900	         5.53305e+57
          1860.66530	         6.17898e+57
          1861.47160	         5.97637e+57
          1862.27790	         6.34870e+57
          1863.08420	         7.59333e+57
          1863.89050	         8.22478e+57
          1864.69680	         8.59525e+57
          1865.50310	         7.54948e+57
          1866.30940	         6.17955e+57
          1867.11570	         6.74375e+57
          1867.92200	         7.44057e+57
          1868.72830	         7.46571e+57
          1869.53460	         6.55712e+57
          1870.34090	         6.78596e+57
          1871.14720	         7.69925e+57
          1871.95350	         7.74983e+57
          1872.75980	         7.43545e+57
          1873.56610	         6.91800e+57
          1874.37240	         5.70953e+57
          1875.17870	         6.14946e+57
          1875.98500	         7.51710e+57
          1876.79130	         7.77503e+57
          1877.59760	         7.63715e+57
          1878.40390	         6.23532e+57
          1879.21020	         5.78551e+57
          1880.01650	         6.83039e+57
          1880.82280	         8.10535e+57
          1881.62910	         8.93871e+57
          1882.43540	         1.01637e+58
          1883.24170	         8.09229e+57
          1884.04800	         6.59015e+57
          1884.85430	         7.67829e+57
          1885.66060	         7.64797e+57
          1886.46690	         7.50145e+57
          1887.27320	         6.96497e+57
          1888.07950	         5.96835e+57
          1888.88580	         7.57015e+57
          1889.69210	         8.50892e+57
          1890.49840	         7.92802e+57
          1891.30470	         7.77350e+57
          1892.11100	         9.12905e+57
          1892.91730	         9.67299e+57
          1893.72360	         8.15491e+57
          1894.52990	         6.89886e+57
          1895.33620	         8.02182e+57
          1896.14250	         7.30592e+57
          1896.94880	         5.96462e+57
          1897.75510	         5.54130e+57
          1898.56140	         7.01332e+57
          1899.36770	         8.74250e+57
          1900.17400	         7.96379e+57
          1900.98030	         7.64169e+57
          1901.78660	         7.57721e+57
          1902.59290	         7.60611e+57
          1903.39920	         9.43801e+57
          1904.20550	         9.85283e+57
          1905.01180	         9.24841e+57
          1905.81810	         1.15910e+58
          1906.62440	         1.34483e+58
          1907.43070	         1.50280e+58
          1908.23700	         1.55674e+58
          1909.04330	         1.30559e+58
          1909.84960	         1.10161e+58
          1910.65590	         9.94857e+57
          1911.46220	         9.71671e+57
          1912.26850	         7.79821e+57
          1913.07480	         6.03732e+57
          1913.88110	         5.21431e+57
          1914.68740	         5.10140e+57
          1915.49370	         5.50568e+57
          1916.30000	         6.81435e+57
          1917.10630	         7.80028e+57
          1917.91260	         7.01668e+57
          1918.71890	         6.00787e+57
          1919.52520	         5.72272e+57
          1920.33150	         5.41042e+57
          1921.13780	         7.05469e+57
          1921.94410	         8.83945e+57
          1922.75040	         8.62300e+57
          1923.55670	         8.94112e+57
          1924.36300	         8.06292e+57
          1925.16930	         5.93537e+57
          1925.97560	         4.73794e+57
          1926.78190	         4.62682e+57
          1927.58820	         5.02077e+57
          1928.39450	         5.11498e+57
          1929.20080	         5.55047e+57
          1930.00710	         7.66912e+57
          1930.81340	         9.63998e+57
          1931.61970	         8.00437e+57
          1932.42600	         7.37070e+57
          1933.23230	         7.71749e+57
          1934.03860	         6.37853e+57
          1934.84490	         5.11937e+57
          1935.65120	         7.54394e+57
          1936.45750	         9.69563e+57
          1937.26380	         7.84726e+57
          1938.07010	         7.72167e+57
          1938.87640	         7.90640e+57
          1939.68270	         7.32286e+57
          1940.48900	         7.25781e+57
          1941.29530	         8.44464e+57
          1942.10160	         7.98187e+57
          1942.90790	         6.88840e+57
          1943.71420	         6.04321e+57
          1944.52050	         5.72779e+57
          1945.32680	         5.95188e+57
          1946.13310	         7.65447e+57
          1946.93940	         7.75318e+57
          1947.74570	         7.93818e+57
          1948.55200	         7.04512e+57
          1949.35830	         5.83893e+57
          1950.16460	         6.07348e+57
          1950.97090	         6.00496e+57
          1951.77720	         6.56245e+57
          1952.58350	         7.69236e+57
          1953.38980	         6.26840e+57
          1954.19610	         4.34797e+57
          1955.00240	         4.70008e+57
          1955.80870	         6.45054e+57
          1956.61500	         6.21395e+57
          1957.42130	         6.68433e+57
          1958.22760	         6.81104e+57
          1959.03390	         6.85056e+57
          1959.84020	         7.09501e+57
          1960.64650	         6.65837e+57
          1961.45280	         5.85256e+57
          1962.25910	         6.11797e+57
          1963.06540	         5.73400e+57
          1963.87170	         5.27227e+57
          1964.67800	         6.69324e+57
          1965.48430	         6.56233e+57
          1966.29060	         5.39464e+57
          1967.09690	         6.73851e+57
          1967.90320	         7.38231e+57
          1968.70950	         7.29148e+57
          1969.51580	         6.44470e+57
          1970.32210	         6.61525e+57
          1971.12840	         6.61862e+57
          1971.93470	         5.59066e+57
          1972.74100	         5.08358e+57
          1973.54730	         6.05132e+57
          1974.35360	         7.03023e+57
          1975.15990	         7.49724e+57
          1975.96620	         7.01409e+57
          1976.77250	         7.88255e+57
          1977.57880	         7.54676e+57
          1978.38510	         6.26846e+57
          1979.19140	         6.13628e+57
          1979.99770	         7.88149e+57
          1980.80400	         7.69070e+57
          1981.61030	         7.44111e+57
          1982.41660	         6.37390e+57
          1983.22290	         6.28428e+57
          1984.02920	         5.93699e+57
          1984.83550	         5.10972e+57
          1985.64180	         5.31116e+57
          1986.44810	         6.16223e+57
          1987.25440	         6.08296e+57
          1988.06070	         5.87618e+57
          1988.86700	         6.49830e+57
          1989.67330	         6.26753e+57
          1990.47960	         6.64743e+57
          1991.28590	         6.03287e+57
          1992.09220	         6.13822e+57
          1992.89850	         6.24984e+57
          1993.70480	         5.19949e+57
          1994.51110	         5.42296e+57
          1995.31740	         4.89987e+57
          1996.12370	         5.75323e+57
          1996.93000	         6.28804e+57
          1997.73630	         8.00532e+57
          1998.54260	         7.70977e+57
          1999.34890	         6.67648e+57
          2000.15520	         6.74804e+57
          2000.96150	         7.38380e+57
          2001.76780	         5.81555e+57
          2002.57410	         5.14773e+57
          2003.38040	         5.52829e+57
          2004.18670	         6.33348e+57
          2004.99300	         5.73362e+57
          2005.79930	         7.55256e+57
          2006.60560	         7.26928e+57
          2007.41190	         6.31811e+57
          2008.21820	         5.46051e+57
          2009.02450	         6.33339e+57
          2009.83080	         6.25499e+57
          2010.63710	         6.42600e+57
          2011.44340	         6.38675e+57
          2012.24970	         6.17893e+57
          2013.05600	         5.27194e+57
          2013.86230	         5.00098e+57
          2014.66860	         6.13513e+57
          2015.47490	         6.74081e+57
          2016.28120	         5.92760e+57
          2017.08750	         5.17276e+57
          2017.89380	         5.91671e+57
          2018.70010	         6.35901e+57
          2019.50640	         5.21049e+57
          2020.31270	         6.17241e+57
          2021.11900	         8.09020e+57
          2021.92530	         6.98369e+57
          2022.73160	         7.27217e+57
          2023.53790	         7.78202e+57
          2024.34420	         6.77782e+57
          2025.15050	         6.18151e+57
          2025.95680	         5.55847e+57
          2026.76310	         5.09832e+57
          2027.56940	         5.76350e+57
          2028.37570	         6.46281e+57
          2029.18200	         6.15994e+57
          2029.98830	         7.03548e+57
          2030.79460	         6.88471e+57
          2031.60090	         6.33521e+57
          2032.40720	         6.43227e+57
          2033.21350	         6.14321e+57
          2034.01980	         4.91483e+57
          2034.82610	         4.05669e+57
          2035.63240	         4.60607e+57
          2036.43870	         5.96028e+57
          2037.24500	         6.37908e+57
          2038.05130	         5.94388e+57
          2038.85760	         5.71961e+57
          2039.66390	         7.10397e+57
          2040.47020	         6.84322e+57
          2041.27650	         7.26482e+57
          2042.08280	         5.48984e+57
          2042.88910	         5.04568e+57
          2043.69540	         6.42016e+57
          2044.50170	         6.97262e+57
          2045.30800	         6.86041e+57
          2046.11430	         4.96553e+57
          2046.92060	         6.16612e+57
          2047.72690	         6.84917e+57
          2048.53320	         6.99877e+57
          2049.33950	         5.75615e+57
          2050.14580	         6.21819e+57
          2050.95210	         6.26698e+57
          2051.75840	         7.72616e+57
          2052.56470	         5.96030e+57
          2053.37100	         3.87142e+57
          2054.17730	         4.28499e+57
          2054.98360	         5.74699e+57
          2055.78990	         4.76183e+57
          2056.59620	         2.99478e+57
          2057.40250	         5.17493e+57
          2058.20880	         6.36179e+57
          2059.01510	         6.76189e+57
          2059.82140	         7.27346e+57
          2060.62770	         9.78128e+57
          2061.43400	         1.67981e+58
          2062.24030	         1.24252e+58
          2063.04660	         3.23387e+57
          2063.85290	         1.34950e+57
          2064.65920	        -4.74309e+57
          2065.46550	        -8.78089e+57
          2066.27180	        -8.34332e+57
          2067.07810	         3.32841e+57
          2067.88440	         5.93969e+57
          2068.69070	         5.43237e+57
          2069.49700	         4.75141e+57
          2070.30330	         4.14058e+57
          2071.10960	         4.11684e+57
          2071.91590	         6.83264e+57
          2072.72220	         4.33525e+57
          2073.52850	         5.59595e+57
          2074.33480	         6.28516e+57
          2075.14110	         5.94215e+57
          2075.94740	         2.83492e+57
          2076.75370	         3.85164e+57
          2077.56000	         7.62636e+57
          2078.36630	         6.33133e+57
          2079.17260	         5.67135e+57
          2079.97890	         6.91079e+57
          2080.78520	         5.61913e+57
          2081.59150	         5.33286e+57
          2082.39780	         5.13652e+57
          2083.20410	         4.04701e+57
          2084.01040	         3.51266e+57
          2084.81670	         4.14194e+57
          2085.62300	         4.09194e+57
          2086.42930	         4.17227e+57
          2087.23560	         2.77988e+57
          2088.04190	         3.52413e+57
          2088.84820	         5.47008e+57
          2089.65450	         3.88030e+57
          2090.46080	         2.62901e+57
          2091.26710	         3.77475e+57
          2092.07340	         3.97818e+57
          2092.87970	         3.83148e+57
          2093.68600	         9.47291e+56
          2094.49230	         1.15903e+57
          2095.29860	         4.74143e+57
          2096.10490	         2.88994e+57
          2096.91120	         3.18895e+57
          2097.71750	         3.37784e+57
          2098.52380	         1.24059e+57
          2099.33010	         6.42407e+56
          2100.13640	         1.81003e+57
          2100.94270	         3.57559e+56
          2101.74900	         1.09292e+57
          2102.55530	         2.43226e+57
          2103.36160	         3.71379e+57
          2104.16790	         4.15769e+57
          2104.97420	         3.42049e+57
          2105.78050	         3.85763e+57
          2106.58680	         4.96062e+57
          2107.39310	        -3.50142e+56
          2108.19940	         6.40456e+56
          2109.00570	        -1.78718e+57
          2109.81200	        -9.56190e+56
          2110.61830	         3.87984e+57
          2111.42460	         1.05586e+57
          2112.23090	         7.72582e+56
          2113.03720	         1.78860e+56
          2113.84350	        -1.40046e+57
          2114.64980	         4.48828e+57
          2115.45610	        -2.15542e+57
          2116.26240	        -2.02592e+57
          2117.06870	        -2.68961e+57
          2117.87500	        -2.77156e+57
          2118.68130	        -7.49618e+56
          2119.48760	         2.19687e+57
          2120.29390	         4.17002e+57
          2121.10020	        -2.12880e+57
          2121.90650	        -3.76499e+56
          2122.71280	        -4.50677e+56
          2123.51910	         9.91919e+56
          2124.32540	        -1.62053e+56
          2125.13170	        -1.04952e+57
          2125.93800	         3.31465e+56
          2126.74430	         1.91365e+57
          2127.55060	        -7.75784e+57
          2128.35690	        -5.39989e+57
          2129.16320	         5.60079e+57
          2129.96950	        -1.68612e+57
          2130.77580	        -4.41627e+57
          2131.58210	         5.80568e+56
          2132.38840	         4.86796e+57
          2133.19470	         1.86271e+56
          2134.00100	        -3.95335e+57
          2134.80730	        -1.67493e+57
          2135.61360	         7.08792e+57
          2136.41990	         7.02291e+57
          2137.22620	         3.92013e+57
          2138.03250	        -2.15266e+57
          2138.83880	        -5.35680e+57
          2139.64510	        -2.95635e+57
          2140.45140	        -5.52146e+57
          2141.25770	        -1.00370e+58
          2142.06400	        -2.38919e+57
          2142.87030	         3.86090e+57
          2143.67660	         2.75991e+57
          2144.48290	        -5.53080e+56
          2145.28920	         1.14311e+58
          2146.09550	        -4.82396e+57
          2146.90180	        -8.70468e+57
          2147.70810	         8.85197e+56
          2148.51440	        -2.26429e+57
          2149.32070	        -1.47123e+58
          2150.12700	        -1.47131e+58
          2150.93330	        -4.78936e+57
          2151.73960	        -2.16747e+57
          2152.54590	        -1.10590e+58
          2153.35220	        -1.35581e+57
          2154.15850	        -2.78908e+57
          2154.96480	        -2.71618e+57
          2155.77110	        -3.57662e+57
          2156.57740	         8.97153e+55
          2157.38370	        -7.20563e+57
          2158.19000	        -7.77575e+57
          2158.99630	        -8.57255e+57
          2159.80260	        -1.49657e+58
          2160.60890	        -1.80477e+58
          2161.41520	        -3.24500e+57
          2162.22150	        -4.45399e+57
          2163.02780	        -1.29908e+57
          2163.83410	        -3.75602e+57
          2164.64040	        -6.23657e+57
          2165.44670	        -1.09169e+58
          2166.25300	        -1.20839e+58
          2167.05930	        -8.35351e+57
          2167.86560	        -3.83699e+57
          2168.67190	        -1.04002e+58
          2169.47820	        -8.86824e+57
          2170.28450	        -5.15693e+57
          2171.09080	        -3.54473e+57
          2171.89710	         2.12086e+57
          2172.70340	         5.69521e+57
          2173.50970	        -1.60645e+57
          2174.31600	        -5.45951e+57
          2175.12230	        -1.07587e+58
          2175.92860	        -6.74972e+56
          2176.73490	        -3.05918e+57
          2177.54120	        -4.06732e+57
          2178.34750	        -4.10524e+57
          2179.15380	                 nan
          2179.96010	                 nan
          2180.76640	                 nan
          2181.57270	                 nan
          2182.37900	                 nan
          2183.18530	                 nan
          2183.99160	                 nan
          2184.79790	                 nan
          2185.60420	                 nan
          2186.41050	                 nan
          2187.21680	                 nan
          2188.02310	                 nan
          2188.82940	                 nan
          2189.63570	                 nan
          2190.44200	                 nan
          2191.24830	                 nan
          2192.05460	                 nan
          2192.86090	                 nan
          2193.66720	                 nan
          2194.47350	                 nan
          2195.27980	                 nan
          2196.08610	                 nan
          2196.89240	                 nan
          2197.69870	                 nan
          2198.50500	                 nan
          2199.31130	                 nan
          2200.11760	                 nan
          2200.92390	                 nan
          2201.73020	                 nan
          2202.53650	                 nan
          2203.34280	                 nan
          2204.14910	                 nan
          2204.95540	                 nan
          2205.76170	                 nan
          2206.56800	                 nan
          2207.37430	                 nan
          2208.18060	                 nan
          2208.98690	                 nan
          2209.79320	                 nan
          2210.59950	                 nan
          2211.40580	                 nan
          2212.21210	                 nan
          2213.01840	                 nan
          2213.82470	                 nan
          2214.63100	                 nan
          2215.43730	         0.00000e+00
