#sample_82_stacked_spectrum_rest_UV-bands_median_H-alpha_noDC.txt
#median Lum: 1.68963e+42
#Rest-frame wavelength (A) | Luminosity (erg/s/A)
#
          1110.00000	         0.00000e+00
          1110.80630	         1.52697e+59
          1111.61260	         3.73714e+59
          1112.41890	         7.04909e+58
          1113.22520	        -3.82946e+58
          1114.03150	        -1.23535e+59
          1114.83780	         2.44083e+59
          1115.64410	         2.35534e+59
          1116.45040	        -7.62943e+58
          1117.25670	         7.89564e+57
          1118.06300	         2.29521e+58
          1118.86930	        -6.35591e+58
          1119.67560	         1.05890e+59
          1120.48190	        -1.76583e+58
          1121.28820	        -1.07225e+59
          1122.09450	        -6.39554e+58
          1122.90080	        -1.01711e+59
          1123.70710	         7.07473e+58
          1124.51340	         1.15635e+59
          1125.31970	         1.61271e+58
          1126.12600	        -9.28181e+57
          1126.93230	        -3.95859e+58
          1127.73860	        -2.40560e+56
          1128.54490	         3.06560e+58
          1129.35120	         2.95767e+58
          1130.15750	        -3.60874e+58
          1130.96380	        -3.57708e+58
          1131.77010	         3.87725e+58
          1132.57640	         6.33929e+58
          1133.38270	         4.93174e+58
          1134.18900	         4.47914e+58
          1134.99530	         5.76286e+57
          1135.80160	         1.53615e+58
          1136.60790	         3.21354e+58
          1137.41420	         1.77578e+58
          1138.22050	         5.24931e+58
          1139.02680	         3.77567e+58
          1139.83310	         4.62536e+58
          1140.63940	         3.01599e+58
          1141.44570	        -2.82193e+58
          1142.25200	        -2.90315e+58
          1143.05830	         6.52639e+57
          1143.86460	         2.00144e+58
          1144.67090	         3.95796e+58
          1145.47720	         9.89880e+57
          1146.28350	         6.54796e+57
          1147.08980	         1.61137e+58
          1147.89610	         1.24144e+58
          1148.70240	         1.82645e+58
          1149.50870	         2.08033e+58
          1150.31500	         2.35208e+58
          1151.12130	         1.82416e+58
          1151.92760	         4.52249e+57
          1152.73390	         1.84018e+57
          1153.54020	         1.99235e+57
          1154.34650	         2.58050e+58
          1155.15280	         1.76663e+58
          1155.95910	         1.50094e+58
          1156.76540	         1.62619e+58
          1157.57170	         2.17311e+56
          1158.37800	         1.75374e+57
          1159.18430	        -6.49547e+56
          1159.99060	         4.23884e+57
          1160.79690	         1.00036e+58
          1161.60320	         1.16402e+58
          1162.40950	         1.09640e+58
          1163.21580	         2.22718e+58
          1164.02210	         1.47397e+58
          1164.82840	         1.25110e+58
          1165.63470	         1.92121e+58
          1166.44100	         3.49878e+58
          1167.24730	         2.88569e+58
          1168.05360	         1.35072e+58
          1168.85990	         1.19065e+58
          1169.66620	         5.16023e+57
          1170.47250	         1.53431e+58
          1171.27880	         9.68582e+57
          1172.08510	         1.23965e+58
          1172.89140	         1.34434e+58
          1173.69770	         6.56091e+57
          1174.50400	         1.40390e+58
          1175.31030	         1.85204e+58
          1176.11660	         1.63887e+58
          1176.92290	         1.35185e+58
          1177.72920	         1.00458e+58
          1178.53550	         8.32723e+57
          1179.34180	         3.79329e+57
          1180.14810	         1.09446e+57
          1180.95440	         6.46384e+57
          1181.76070	         8.65152e+57
          1182.56700	         5.65444e+57
          1183.37330	         7.85148e+57
          1184.17960	         1.12723e+58
          1184.98590	         8.20975e+57
          1185.79220	         9.27968e+57
          1186.59850	         1.64988e+58
          1187.40480	         8.48755e+57
          1188.21110	         1.88768e+58
          1189.01740	         1.42515e+58
          1189.82370	         1.19513e+58
          1190.63000	         1.03753e+58
          1191.43630	         1.65333e+58
          1192.24260	         1.14695e+58
          1193.04890	         8.93110e+57
          1193.85520	         1.33756e+58
          1194.66150	         4.38696e+57
          1195.46780	         1.42171e+58
          1196.27410	         1.76666e+58
          1197.08040	         8.49091e+57
          1197.88670	         1.46964e+58
          1198.69300	         1.94299e+58
          1199.49930	         1.55074e+58
          1200.30560	         1.03929e+58
          1201.11190	         9.07513e+57
          1201.91820	         9.28771e+57
          1202.72450	         1.13677e+58
          1203.53080	         1.76897e+58
          1204.33710	         9.43524e+57
          1205.14340	         7.58082e+57
          1205.94970	         6.59425e+57
          1206.75600	         7.25578e+57
          1207.56230	         5.21636e+57
          1208.36860	         7.08652e+57
          1209.17490	         3.52594e+57
          1209.98120	         7.60790e+57
          1210.78750	         1.30282e+58
          1211.59380	         1.17665e+58
          1212.40010	         1.64553e+58
          1213.20640	         2.09487e+58
          1214.01270	         1.99958e+58
          1214.81900	         2.64741e+58
          1215.62530	         4.45283e+58
          1216.43160	         9.04460e+58
          1217.23790	         1.51377e+59
          1218.04420	         1.14139e+59
          1218.85050	         8.39046e+58
          1219.65680	         5.63473e+58
          1220.46310	         3.40366e+58
          1221.26940	         2.19234e+58
          1222.07570	         1.24107e+58
          1222.88200	         1.24900e+58
          1223.68830	         8.91866e+57
          1224.49460	         6.22208e+57
          1225.30090	         6.72811e+57
          1226.10720	         6.20151e+57
          1226.91350	         6.85152e+57
          1227.71980	         7.89047e+57
          1228.52610	         1.04243e+58
          1229.33240	         8.67330e+57
          1230.13870	         9.55091e+57
          1230.94500	         9.75018e+57
          1231.75130	         4.09365e+57
          1232.55760	         7.19847e+57
          1233.36390	         9.54149e+57
          1234.17020	         8.94286e+57
          1234.97650	         7.22879e+57
          1235.78280	         7.05442e+57
          1236.58910	         9.31415e+57
          1237.39540	         1.27266e+58
          1238.20170	         1.18549e+58
          1239.00800	         1.19284e+58
          1239.81430	         1.28578e+58
          1240.62060	         1.02421e+58
          1241.42690	         1.16794e+58
          1242.23320	         1.20470e+58
          1243.03950	         9.04319e+57
          1243.84580	         7.49825e+57
          1244.65210	         9.55924e+57
          1245.45840	         8.46169e+57
          1246.26470	         7.94212e+57
          1247.07100	         8.39570e+57
          1247.87730	         5.40469e+57
          1248.68360	         2.09822e+57
          1249.48990	         8.98364e+57
          1250.29620	         1.04139e+58
          1251.10250	         9.04450e+57
          1251.90880	         4.86559e+57
          1252.71510	         5.72499e+57
          1253.52140	         9.39167e+57
          1254.32770	         1.07315e+58
          1255.13400	         1.17405e+58
          1255.94030	         1.05165e+58
          1256.74660	         9.08160e+57
          1257.55290	         1.24440e+58
          1258.35920	         1.14336e+58
          1259.16550	         6.13615e+57
          1259.97180	         4.73218e+57
          1260.77810	         7.70352e+57
          1261.58440	         1.13920e+58
          1262.39070	         7.15176e+57
          1263.19700	         6.64983e+57
          1264.00330	         9.51436e+57
          1264.80960	         1.14239e+58
          1265.61590	         1.31332e+58
          1266.42220	         1.27916e+58
          1267.22850	         1.17879e+58
          1268.03480	         1.38475e+58
          1268.84110	         1.57956e+58
          1269.64740	         1.34824e+58
          1270.45370	         1.29332e+58
          1271.26000	         1.03456e+58
          1272.06630	         8.95816e+57
          1272.87260	         1.18315e+58
          1273.67890	         1.36715e+58
          1274.48520	         1.37982e+58
          1275.29150	         1.31457e+58
          1276.09780	         1.32026e+58
          1276.90410	         1.45701e+58
          1277.71040	         1.08715e+58
          1278.51670	         1.12651e+58
          1279.32300	         1.46721e+58
          1280.12930	         1.24037e+58
          1280.93560	         1.09547e+58
          1281.74190	         1.18194e+58
          1282.54820	         1.11340e+58
          1283.35450	         1.24760e+58
          1284.16080	         1.23772e+58
          1284.96710	         1.25324e+58
          1285.77340	         1.20377e+58
          1286.57970	         1.22447e+58
          1287.38600	         1.71078e+58
          1288.19230	         1.85886e+58
          1288.99860	         1.49544e+58
          1289.80490	         1.05946e+58
          1290.61120	         1.25984e+58
          1291.41750	         1.42836e+58
          1292.22380	         1.19324e+58
          1293.03010	         1.14038e+58
          1293.83640	         1.20348e+58
          1294.64270	         1.05916e+58
          1295.44900	         6.64504e+57
          1296.25530	         6.98068e+57
          1297.06160	         1.09196e+58
          1297.86790	         1.05186e+58
          1298.67420	         9.37025e+57
          1299.48050	         1.02625e+58
          1300.28680	         1.10231e+58
          1301.09310	         7.91621e+57
          1301.89940	         5.08473e+57
          1302.70570	         5.87748e+57
          1303.51200	         8.30651e+57
          1304.31830	         9.34384e+57
          1305.12460	         9.25527e+57
          1305.93090	         1.15381e+58
          1306.73720	         1.26932e+58
          1307.54350	         1.34509e+58
          1308.34980	         1.38932e+58
          1309.15610	         1.39018e+58
          1309.96240	         1.44797e+58
          1310.76870	         1.51657e+58
          1311.57500	         1.26295e+58
          1312.38130	         1.08731e+58
          1313.18760	         1.17941e+58
          1313.99390	         1.61140e+58
          1314.80020	         1.71026e+58
          1315.60650	         1.37798e+58
          1316.41280	         1.33959e+58
          1317.21910	         1.12328e+58
          1318.02540	         1.23818e+58
          1318.83170	         1.25256e+58
          1319.63800	         1.21134e+58
          1320.44430	         1.22222e+58
          1321.25060	         1.33930e+58
          1322.05690	         1.24386e+58
          1322.86320	         1.15170e+58
          1323.66950	         1.11293e+58
          1324.47580	         9.02991e+57
          1325.28210	         9.04035e+57
          1326.08840	         1.11169e+58
          1326.89470	         1.20892e+58
          1327.70100	         1.05988e+58
          1328.50730	         7.25902e+57
          1329.31360	         8.30493e+57
          1330.11990	         9.42164e+57
          1330.92620	         7.96979e+57
          1331.73250	         1.04210e+58
          1332.53880	         9.62866e+57
          1333.34510	         8.43342e+57
          1334.15140	         8.86489e+57
          1334.95770	         9.16474e+57
          1335.76400	         1.11669e+58
          1336.57030	         1.06910e+58
          1337.37660	         1.06895e+58
          1338.18290	         1.19109e+58
          1338.98920	         1.10538e+58
          1339.79550	         1.09394e+58
          1340.60180	         1.07438e+58
          1341.40810	         1.27953e+58
          1342.21440	         1.25021e+58
          1343.02070	         1.12748e+58
          1343.82700	         1.13625e+58
          1344.63330	         1.15953e+58
          1345.43960	         1.20677e+58
          1346.24590	         9.40454e+57
          1347.05220	         1.15278e+58
          1347.85850	         1.35972e+58
          1348.66480	         1.19631e+58
          1349.47110	         1.10774e+58
          1350.27740	         1.26411e+58
          1351.08370	         1.14833e+58
          1351.89000	         1.11476e+58
          1352.69630	         1.31020e+58
          1353.50260	         1.12760e+58
          1354.30890	         1.04463e+58
          1355.11520	         1.22447e+58
          1355.92150	         1.16979e+58
          1356.72780	         1.08470e+58
          1357.53410	         1.00955e+58
          1358.34040	         9.77688e+57
          1359.14670	         9.98865e+57
          1359.95300	         1.02994e+58
          1360.75930	         1.14261e+58
          1361.56560	         1.08087e+58
          1362.37190	         1.25680e+58
          1363.17820	         1.26984e+58
          1363.98450	         1.22283e+58
          1364.79080	         1.31471e+58
          1365.59710	         1.33756e+58
          1366.40340	         1.29958e+58
          1367.20970	         1.13624e+58
          1368.01600	         9.97826e+57
          1368.82230	         9.76760e+57
          1369.62860	         1.08560e+58
          1370.43490	         8.76003e+57
          1371.24120	         8.35034e+57
          1372.04750	         7.97313e+57
          1372.85380	         1.04538e+58
          1373.66010	         1.07650e+58
          1374.46640	         1.14967e+58
          1375.27270	         1.05270e+58
          1376.07900	         7.89901e+57
          1376.88530	         9.20385e+57
          1377.69160	         9.19776e+57
          1378.49790	         6.20676e+57
          1379.30420	         7.24237e+57
          1380.11050	         9.08998e+57
          1380.91680	         7.44013e+57
          1381.72310	         6.46332e+57
          1382.52940	         7.64004e+57
          1383.33570	         8.59948e+57
          1384.14200	         1.08342e+58
          1384.94830	         1.22236e+58
          1385.75460	         1.18689e+58
          1386.56090	         1.09764e+58
          1387.36720	         1.02844e+58
          1388.17350	         1.16150e+58
          1388.97980	         9.89498e+57
          1389.78610	         8.62290e+57
          1390.59240	         7.99499e+57
          1391.39870	         7.78320e+57
          1392.20500	         8.74062e+57
          1393.01130	         8.53805e+57
          1393.81760	         8.20655e+57
          1394.62390	         7.67368e+57
          1395.43020	         6.25718e+57
          1396.23650	         6.03289e+57
          1397.04280	         6.40184e+57
          1397.84910	         6.95891e+57
          1398.65540	         7.75952e+57
          1399.46170	         1.00947e+58
          1400.26800	         9.07770e+57
          1401.07430	         7.47707e+57
          1401.88060	         8.22222e+57
          1402.68690	         9.36877e+57
          1403.49320	         9.53662e+57
          1404.29950	         7.80852e+57
          1405.10580	         9.29531e+57
          1405.91210	         1.03478e+58
          1406.71840	         1.06582e+58
          1407.52470	         1.03361e+58
          1408.33100	         1.05838e+58
          1409.13730	         1.24684e+58
          1409.94360	         1.32703e+58
          1410.74990	         1.16856e+58
          1411.55620	         9.45045e+57
          1412.36250	         9.86217e+57
          1413.16880	         1.07657e+58
          1413.97510	         9.52797e+57
          1414.78140	         9.09160e+57
          1415.58770	         9.66229e+57
          1416.39400	         1.07153e+58
          1417.20030	         1.08969e+58
          1418.00660	         9.77376e+57
          1418.81290	         1.14365e+58
          1419.61920	         1.15177e+58
          1420.42550	         1.25018e+58
          1421.23180	         1.44576e+58
          1422.03810	         1.34535e+58
          1422.84440	         1.20376e+58
          1423.65070	         1.37621e+58
          1424.45700	         1.25188e+58
          1425.26330	         9.74707e+57
          1426.06960	         9.72340e+57
          1426.87590	         9.39107e+57
          1427.68220	         9.42231e+57
          1428.48850	         1.09478e+58
          1429.29480	         1.06148e+58
          1430.10110	         9.98591e+57
          1430.90740	         8.47766e+57
          1431.71370	         8.93150e+57
          1432.52000	         9.32607e+57
          1433.32630	         7.40843e+57
          1434.13260	         6.86880e+57
          1434.93890	         7.62178e+57
          1435.74520	         9.25623e+57
          1436.55150	         9.53844e+57
          1437.35780	         8.70141e+57
          1438.16410	         9.45210e+57
          1438.97040	         9.32870e+57
          1439.77670	         9.28224e+57
          1440.58300	         9.82777e+57
          1441.38930	         1.06360e+58
          1442.19560	         1.03786e+58
          1443.00190	         1.04022e+58
          1443.80820	         1.13351e+58
          1444.61450	         1.09161e+58
          1445.42080	         9.51795e+57
          1446.22710	         1.10452e+58
          1447.03340	         1.04721e+58
          1447.83970	         1.03539e+58
          1448.64600	         9.88087e+57
          1449.45230	         1.02219e+58
          1450.25860	         1.05591e+58
          1451.06490	         9.16351e+57
          1451.87120	         8.75734e+57
          1452.67750	         8.75560e+57
          1453.48380	         9.25010e+57
          1454.29010	         8.83410e+57
          1455.09640	         7.40440e+57
          1455.90270	         8.28245e+57
          1456.70900	         8.66019e+57
          1457.51530	         9.20950e+57
          1458.32160	         1.10306e+58
          1459.12790	         1.01430e+58
          1459.93420	         9.28943e+57
          1460.74050	         9.25491e+57
          1461.54680	         9.99030e+57
          1462.35310	         9.15657e+57
          1463.15940	         9.01116e+57
          1463.96570	         1.13060e+58
          1464.77200	         1.10135e+58
          1465.57830	         9.62684e+57
          1466.38460	         9.28018e+57
          1467.19090	         8.31835e+57
          1467.99720	         7.91777e+57
          1468.80350	         8.57463e+57
          1469.60980	         9.06537e+57
          1470.41610	         1.06872e+58
          1471.22240	         1.04651e+58
          1472.02870	         9.57688e+57
          1472.83500	         1.00094e+58
          1473.64130	         1.05478e+58
          1474.44760	         9.50881e+57
          1475.25390	         8.88018e+57
          1476.06020	         8.11864e+57
          1476.86650	         9.03006e+57
          1477.67280	         9.69279e+57
          1478.47910	         7.43525e+57
          1479.28540	         6.98104e+57
          1480.09170	         8.89518e+57
          1480.89800	         9.90515e+57
          1481.70430	         9.15828e+57
          1482.51060	         8.12445e+57
          1483.31690	         8.23200e+57
          1484.12320	         7.62626e+57
          1484.92950	         7.46384e+57
          1485.73580	         8.43005e+57
          1486.54210	         7.97698e+57
          1487.34840	         8.04395e+57
          1488.15470	         7.84340e+57
          1488.96100	         7.99658e+57
          1489.76730	         8.96391e+57
          1490.57360	         8.43511e+57
          1491.37990	         7.58884e+57
          1492.18620	         8.09514e+57
          1492.99250	         8.97323e+57
          1493.79880	         8.85761e+57
          1494.60510	         8.56546e+57
          1495.41140	         7.50342e+57
          1496.21770	         7.97068e+57
          1497.02400	         1.03380e+58
          1497.83030	         8.66785e+57
          1498.63660	         6.37891e+57
          1499.44290	         6.32342e+57
          1500.24920	         6.99891e+57
          1501.05550	         7.80326e+57
          1501.86180	         8.70802e+57
          1502.66810	         8.94521e+57
          1503.47440	         8.34053e+57
          1504.28070	         7.85345e+57
          1505.08700	         8.98165e+57
          1505.89330	         9.15107e+57
          1506.69960	         8.69595e+57
          1507.50590	         8.13038e+57
          1508.31220	         8.64532e+57
          1509.11850	         8.66305e+57
          1509.92480	         8.77007e+57
          1510.73110	         8.56501e+57
          1511.53740	         7.82902e+57
          1512.34370	         7.49706e+57
          1513.15000	         9.27052e+57
          1513.95630	         1.07712e+58
          1514.76260	         9.64667e+57
          1515.56890	         8.65338e+57
          1516.37520	         8.18337e+57
          1517.18150	         7.85126e+57
          1517.98780	         7.55380e+57
          1518.79410	         6.96110e+57
          1519.60040	         7.82420e+57
          1520.40670	         9.27197e+57
          1521.21300	         9.48897e+57
          1522.01930	         8.68851e+57
          1522.82560	         8.30618e+57
          1523.63190	         9.19366e+57
          1524.43820	         8.12503e+57
          1525.24450	         6.75826e+57
          1526.05080	         5.28125e+57
          1526.85710	         5.36981e+57
          1527.66340	         7.00779e+57
          1528.46970	         9.03148e+57
          1529.27600	         7.71419e+57
          1530.08230	         7.00527e+57
          1530.88860	         7.58648e+57
          1531.69490	         8.44384e+57
          1532.50120	         8.89378e+57
          1533.30750	         9.05310e+57
          1534.11380	         8.62845e+57
          1534.92010	         8.88027e+57
          1535.72640	         9.31228e+57
          1536.53270	         8.97961e+57
          1537.33900	         9.13544e+57
          1538.14530	         9.81681e+57
          1538.95160	         9.69084e+57
          1539.75790	         9.99370e+57
          1540.56420	         8.34125e+57
          1541.37050	         8.15806e+57
          1542.17680	         7.27949e+57
          1542.98310	         6.87572e+57
          1543.78940	         6.90246e+57
          1544.59570	         5.98299e+57
          1545.40200	         7.59912e+57
          1546.20830	         8.88843e+57
          1547.01460	         1.00562e+58
          1547.82090	         1.11304e+58
          1548.62720	         1.17766e+58
          1549.43350	         1.13316e+58
          1550.23980	         1.06147e+58
          1551.04610	         1.19596e+58
          1551.85240	         1.23070e+58
          1552.65870	         1.11473e+58
          1553.46500	         9.40573e+57
          1554.27130	         8.95762e+57
          1555.07760	         9.37961e+57
          1555.88390	         7.86171e+57
          1556.69020	         8.25099e+57
          1557.49650	         8.80088e+57
          1558.30280	         8.56016e+57
          1559.10910	         8.96184e+57
          1559.91540	         1.02833e+58
          1560.72170	         9.77447e+57
          1561.52800	         7.71483e+57
          1562.33430	         8.37381e+57
          1563.14060	         8.26478e+57
          1563.94690	         8.48688e+57
          1564.75320	         8.92318e+57
          1565.55950	         7.68393e+57
          1566.36580	         7.29896e+57
          1567.17210	         9.05949e+57
          1567.97840	         8.47567e+57
          1568.78470	         7.58541e+57
          1569.59100	         8.38095e+57
          1570.39730	         8.36998e+57
          1571.20360	         7.63951e+57
          1572.00990	         6.98186e+57
          1572.81620	         8.05408e+57
          1573.62250	         9.99042e+57
          1574.42880	         9.46248e+57
          1575.23510	         7.15580e+57
          1576.04140	         7.75894e+57
          1576.84770	         9.05390e+57
          1577.65400	         9.11374e+57
          1578.46030	         1.04527e+58
          1579.26660	         1.02450e+58
          1580.07290	         8.55341e+57
          1580.87920	         6.20936e+57
          1581.68550	         6.62630e+57
          1582.49180	         7.53015e+57
          1583.29810	         7.57970e+57
          1584.10440	         8.42092e+57
          1584.91070	         8.44881e+57
          1585.71700	         8.85778e+57
          1586.52330	         9.23093e+57
          1587.32960	         7.87914e+57
          1588.13590	         7.72325e+57
          1588.94220	         7.95455e+57
          1589.74850	         8.64283e+57
          1590.55480	         9.67133e+57
          1591.36110	         8.68210e+57
          1592.16740	         8.46902e+57
          1592.97370	         8.69567e+57
          1593.78000	         9.02904e+57
          1594.58630	         9.70971e+57
          1595.39260	         9.53307e+57
          1596.19890	         8.92094e+57
          1597.00520	         9.21457e+57
          1597.81150	         8.60407e+57
          1598.61780	         8.06995e+57
          1599.42410	         6.85509e+57
          1600.23040	         7.10497e+57
          1601.03670	         8.63082e+57
          1601.84300	         8.75627e+57
          1602.64930	         8.69821e+57
          1603.45560	         8.52725e+57
          1604.26190	         8.62741e+57
          1605.06820	         8.90283e+57
          1605.87450	         7.87802e+57
          1606.68080	         6.51369e+57
          1607.48710	         5.41170e+57
          1608.29340	         5.10204e+57
          1609.09970	         6.86218e+57
          1609.90600	         7.66680e+57
          1610.71230	         6.84418e+57
          1611.51860	         6.68433e+57
          1612.32490	         6.82807e+57
          1613.13120	         7.46127e+57
          1613.93750	         7.46951e+57
          1614.74380	         7.73549e+57
          1615.55010	         8.89553e+57
          1616.35640	         9.86213e+57
          1617.16270	         1.01655e+58
          1617.96900	         1.02480e+58
          1618.77530	         8.71482e+57
          1619.58160	         8.82172e+57
          1620.38790	         8.39465e+57
          1621.19420	         9.09685e+57
          1622.00050	         9.41301e+57
          1622.80680	         8.88616e+57
          1623.61310	         8.74099e+57
          1624.41940	         7.62691e+57
          1625.22570	         7.10153e+57
          1626.03200	         7.72318e+57
          1626.83830	         8.04477e+57
          1627.64460	         7.91653e+57
          1628.45090	         6.13070e+57
          1629.25720	         7.22938e+57
          1630.06350	         9.59876e+57
          1630.86980	         6.85927e+57
          1631.67610	         7.31547e+57
          1632.48240	         9.09172e+57
          1633.28870	         8.70296e+57
          1634.09500	         8.64613e+57
          1634.90130	         1.05422e+58
          1635.70760	         7.76571e+57
          1636.51390	         6.70334e+57
          1637.32020	         7.12384e+57
          1638.12650	         8.33222e+57
          1638.93280	         8.39308e+57
          1639.73910	         9.85172e+57
          1640.54540	         1.00084e+58
          1641.35170	         9.33649e+57
          1642.15800	         1.05607e+58
          1642.96430	         8.93963e+57
          1643.77060	         8.31474e+57
          1644.57690	         9.44597e+57
          1645.38320	         8.99553e+57
          1646.18950	         7.96133e+57
          1646.99580	         9.12173e+57
          1647.80210	         8.55539e+57
          1648.60840	         7.67716e+57
          1649.41470	         7.96518e+57
          1650.22100	         6.83256e+57
          1651.02730	         6.71184e+57
          1651.83360	         7.41909e+57
          1652.63990	         8.22270e+57
          1653.44620	         8.70709e+57
          1654.25250	         6.92249e+57
          1655.05880	         6.20817e+57
          1655.86510	         8.23145e+57
          1656.67140	         8.15853e+57
          1657.47770	         7.45035e+57
          1658.28400	         7.74041e+57
          1659.09030	         8.97108e+57
          1659.89660	         8.92162e+57
          1660.70290	         9.71069e+57
          1661.50920	         9.54525e+57
          1662.31550	         8.90357e+57
          1663.12180	         8.32047e+57
          1663.92810	         9.16293e+57
          1664.73440	         1.04870e+58
          1665.54070	         1.19426e+58
          1666.34700	         1.26680e+58
          1667.15330	         1.22045e+58
          1667.95960	         9.51417e+57
          1668.76590	         7.02272e+57
          1669.57220	         5.82636e+57
          1670.37850	         6.81130e+57
          1671.18480	         8.15587e+57
          1671.99110	         8.22498e+57
          1672.79740	         6.86389e+57
          1673.60370	         5.93468e+57
          1674.41000	         7.30626e+57
          1675.21630	         7.75235e+57
          1676.02260	         7.52941e+57
          1676.82890	         7.64525e+57
          1677.63520	         6.02238e+57
          1678.44150	         7.21052e+57
          1679.24780	         9.22931e+57
          1680.05410	         8.10292e+57
          1680.86040	         6.84351e+57
          1681.66670	         6.75567e+57
          1682.47300	         8.26370e+57
          1683.27930	         9.26728e+57
          1684.08560	         8.75777e+57
          1684.89190	         8.27774e+57
          1685.69820	         5.64880e+57
          1686.50450	         5.23745e+57
          1687.31080	         6.06766e+57
          1688.11710	         7.18162e+57
          1688.92340	         7.18640e+57
          1689.72970	         6.13163e+57
          1690.53600	         6.51215e+57
          1691.34230	         7.62040e+57
          1692.14860	         8.07775e+57
          1692.95490	         7.26311e+57
          1693.76120	         7.19919e+57
          1694.56750	         6.41700e+57
          1695.37380	         7.08237e+57
          1696.18010	         7.15458e+57
          1696.98640	         8.15226e+57
          1697.79270	         8.52487e+57
          1698.59900	         8.38270e+57
          1699.40530	         7.70824e+57
          1700.21160	         7.72643e+57
          1701.01790	         9.33099e+57
          1701.82420	         7.99399e+57
          1702.63050	         7.17597e+57
          1703.43680	         8.19382e+57
          1704.24310	         7.57333e+57
          1705.04940	         7.04858e+57
          1705.85570	         7.44737e+57
          1706.66200	         7.77258e+57
          1707.46830	         8.00383e+57
          1708.27460	         7.36261e+57
          1709.08090	         6.26528e+57
          1709.88720	         5.78952e+57
          1710.69350	         6.21288e+57
          1711.49980	         6.91013e+57
          1712.30610	         6.95787e+57
          1713.11240	         8.52293e+57
          1713.91870	         8.09041e+57
          1714.72500	         7.59768e+57
          1715.53130	         8.40556e+57
          1716.33760	         7.63119e+57
          1717.14390	         6.75364e+57
          1717.95020	         7.66584e+57
          1718.75650	         7.87904e+57
          1719.56280	         8.45391e+57
          1720.36910	         7.42802e+57
          1721.17540	         7.53096e+57
          1721.98170	         6.58563e+57
          1722.78800	         6.34100e+57
          1723.59430	         7.43422e+57
          1724.40060	         8.53927e+57
          1725.20690	         8.29586e+57
          1726.01320	         7.79096e+57
          1726.81950	         6.75440e+57
          1727.62580	         7.09362e+57
          1728.43210	         7.47294e+57
          1729.23840	         7.42196e+57
          1730.04470	         8.34211e+57
          1730.85100	         8.57107e+57
          1731.65730	         7.56684e+57
          1732.46360	         7.41091e+57
          1733.26990	         7.16579e+57
          1734.07620	         7.07852e+57
          1734.88250	         7.58522e+57
          1735.68880	         7.81978e+57
          1736.49510	         8.82243e+57
          1737.30140	         8.13300e+57
          1738.10770	         6.63513e+57
          1738.91400	         7.12408e+57
          1739.72030	         7.15759e+57
          1740.52660	         6.27324e+57
          1741.33290	         5.48251e+57
          1742.13920	         5.35925e+57
          1742.94550	         6.54674e+57
          1743.75180	         6.99420e+57
          1744.55810	         8.23167e+57
          1745.36440	         7.79765e+57
          1746.17070	         6.09955e+57
          1746.97700	         5.86700e+57
          1747.78330	         7.16558e+57
          1748.58960	         6.34913e+57
          1749.39590	         7.06994e+57
          1750.20220	         6.81673e+57
          1751.00850	         6.03640e+57
          1751.81480	         5.71473e+57
          1752.62110	         7.25418e+57
          1753.42740	         8.05707e+57
          1754.23370	         6.18587e+57
          1755.04000	         6.38619e+57
          1755.84630	         8.00096e+57
          1756.65260	         8.24530e+57
          1757.45890	         8.05265e+57
          1758.26520	         7.95497e+57
          1759.07150	         8.75873e+57
          1759.87780	         8.31371e+57
          1760.68410	         8.02965e+57
          1761.49040	         9.33128e+57
          1762.29670	         7.23396e+57
          1763.10300	         7.65801e+57
          1763.90930	         7.35823e+57
          1764.71560	         8.23095e+57
          1765.52190	         7.95147e+57
          1766.32820	         8.34876e+57
          1767.13450	         7.55435e+57
          1767.94080	         6.25751e+57
          1768.74710	         6.07645e+57
          1769.55340	         6.65048e+57
          1770.35970	         6.98550e+57
          1771.16600	         8.32857e+57
          1771.97230	         8.16860e+57
          1772.77860	         7.75874e+57
          1773.58490	         7.40787e+57
          1774.39120	         6.20099e+57
          1775.19750	         5.54834e+57
          1776.00380	         6.48118e+57
          1776.81010	         6.41114e+57
          1777.61640	         6.68988e+57
          1778.42270	         6.88852e+57
          1779.22900	         6.48287e+57
          1780.03530	         6.42985e+57
          1780.84160	         8.13708e+57
          1781.64790	         7.87650e+57
          1782.45420	         6.61202e+57
          1783.26050	         6.42949e+57
          1784.06680	         6.80244e+57
          1784.87310	         7.01747e+57
          1785.67940	         7.18457e+57
          1786.48570	         7.04286e+57
          1787.29200	         6.75838e+57
          1788.09830	         5.92730e+57
          1788.90460	         5.47910e+57
          1789.71090	         6.36899e+57
          1790.51720	         6.15235e+57
          1791.32350	         6.52955e+57
          1792.12980	         8.74370e+57
          1792.93610	         8.09863e+57
          1793.74240	         6.88393e+57
          1794.54870	         7.90163e+57
          1795.35500	         7.99616e+57
          1796.16130	         8.41606e+57
          1796.96760	         6.38427e+57
          1797.77390	         5.96794e+57
          1798.58020	         6.23850e+57
          1799.38650	         6.43266e+57
          1800.19280	         7.61948e+57
          1800.99910	         8.17898e+57
          1801.80540	         7.28730e+57
          1802.61170	         7.97216e+57
          1803.41800	         8.20329e+57
          1804.22430	         6.06901e+57
          1805.03060	         7.32250e+57
          1805.83690	         8.58658e+57
          1806.64320	         8.21726e+57
          1807.44950	         8.05581e+57
          1808.25580	         6.71498e+57
          1809.06210	         7.57024e+57
          1809.86840	         7.03141e+57
          1810.67470	         7.22321e+57
          1811.48100	         7.66746e+57
          1812.28730	         7.44459e+57
          1813.09360	         7.08294e+57
          1813.89990	         6.82303e+57
          1814.70620	         5.62693e+57
          1815.51250	         6.97045e+57
          1816.31880	         8.64628e+57
          1817.12510	         8.38071e+57
          1817.93140	         7.10946e+57
          1818.73770	         7.08454e+57
          1819.54400	         8.49404e+57
          1820.35030	         8.41794e+57
          1821.15660	         6.15028e+57
          1821.96290	         5.33091e+57
          1822.76920	         6.85922e+57
          1823.57550	         7.88184e+57
          1824.38180	         7.37515e+57
          1825.18810	         7.87938e+57
          1825.99440	         8.56595e+57
          1826.80070	         7.78483e+57
          1827.60700	         7.08499e+57
          1828.41330	         6.65404e+57
          1829.21960	         6.04736e+57
          1830.02590	         6.68557e+57
          1830.83220	         7.65629e+57
          1831.63850	         6.89273e+57
          1832.44480	         6.62030e+57
          1833.25110	         7.78027e+57
          1834.05740	         8.04134e+57
          1834.86370	         6.88551e+57
          1835.67000	         5.72982e+57
          1836.47630	         7.88995e+57
          1837.28260	         8.91728e+57
          1838.08890	         8.62503e+57
          1838.89520	         8.07272e+57
          1839.70150	         7.87820e+57
          1840.50780	         7.14789e+57
          1841.31410	         6.67547e+57
          1842.12040	         6.82861e+57
          1842.92670	         6.85324e+57
          1843.73300	         5.73052e+57
          1844.53930	         6.13520e+57
          1845.34560	         8.29474e+57
          1846.15190	         8.64743e+57
          1846.95820	         7.99513e+57
          1847.76450	         7.19898e+57
          1848.57080	         6.30441e+57
          1849.37710	         6.23604e+57
          1850.18340	         7.66842e+57
          1850.98970	         8.32025e+57
          1851.79600	         7.86193e+57
          1852.60230	         7.22446e+57
          1853.40860	         6.98765e+57
          1854.21490	         7.32718e+57
          1855.02120	         6.87516e+57
          1855.82750	         6.42047e+57
          1856.63380	         6.56835e+57
          1857.44010	         7.39860e+57
          1858.24640	         6.02834e+57
          1859.05270	         6.45642e+57
          1859.85900	         5.43602e+57
          1860.66530	         6.51924e+57
          1861.47160	         7.65803e+57
          1862.27790	         6.73815e+57
          1863.08420	         7.01356e+57
          1863.89050	         7.90652e+57
          1864.69680	         7.97172e+57
          1865.50310	         7.32265e+57
          1866.30940	         6.58851e+57
          1867.11570	         6.69775e+57
          1867.92200	         7.51456e+57
          1868.72830	         7.80479e+57
          1869.53460	         7.55618e+57
          1870.34090	         7.64878e+57
          1871.14720	         7.98236e+57
          1871.95350	         6.54433e+57
          1872.75980	         6.45477e+57
          1873.56610	         6.68558e+57
          1874.37240	         5.68060e+57
          1875.17870	         6.26030e+57
          1875.98500	         7.51151e+57
          1876.79130	         7.73369e+57
          1877.59760	         7.34319e+57
          1878.40390	         5.72082e+57
          1879.21020	         5.86948e+57
          1880.01650	         7.31493e+57
          1880.82280	         9.38361e+57
          1881.62910	         1.03563e+58
          1882.43540	         1.01577e+58
          1883.24170	         8.43240e+57
          1884.04800	         6.64167e+57
          1884.85430	         7.82521e+57
          1885.66060	         8.38076e+57
          1886.46690	         9.05447e+57
          1887.27320	         7.84252e+57
          1888.07950	         5.73215e+57
          1888.88580	         7.34998e+57
          1889.69210	         8.79837e+57
          1890.49840	         8.12676e+57
          1891.30470	         7.46839e+57
          1892.11100	         8.36671e+57
          1892.91730	         8.23726e+57
          1893.72360	         8.18459e+57
          1894.52990	         7.61357e+57
          1895.33620	         8.41492e+57
          1896.14250	         6.41468e+57
          1896.94880	         5.91574e+57
          1897.75510	         4.43724e+57
          1898.56140	         5.77736e+57
          1899.36770	         8.39597e+57
          1900.17400	         7.49854e+57
          1900.98030	         6.64239e+57
          1901.78660	         7.75667e+57
          1902.59290	         8.30810e+57
          1903.39920	         8.93218e+57
          1904.20550	         9.16394e+57
          1905.01180	         9.34172e+57
          1905.81810	         1.06092e+58
          1906.62440	         1.24009e+58
          1907.43070	         1.50464e+58
          1908.23700	         1.48156e+58
          1909.04330	         1.29775e+58
          1909.84960	         1.19214e+58
          1910.65590	         9.86434e+57
          1911.46220	         9.70055e+57
          1912.26850	         7.21596e+57
          1913.07480	         5.69645e+57
          1913.88110	         5.85251e+57
          1914.68740	         5.94009e+57
          1915.49370	         5.51183e+57
          1916.30000	         5.30717e+57
          1917.10630	         7.07351e+57
          1917.91260	         7.83898e+57
          1918.71890	         6.82117e+57
          1919.52520	         6.10928e+57
          1920.33150	         5.12587e+57
          1921.13780	         6.35607e+57
          1921.94410	         7.95659e+57
          1922.75040	         7.39374e+57
          1923.55670	         7.30605e+57
          1924.36300	         8.17127e+57
          1925.16930	         6.34336e+57
          1925.97560	         6.10927e+57
          1926.78190	         5.10117e+57
          1927.58820	         5.78642e+57
          1928.39450	         5.61909e+57
          1929.20080	         5.85989e+57
          1930.00710	         7.69435e+57
          1930.81340	         6.45663e+57
          1931.61970	         5.68450e+57
          1932.42600	         6.25250e+57
          1933.23230	         8.32757e+57
          1934.03860	         6.41315e+57
          1934.84490	         7.07455e+57
          1935.65120	         7.19642e+57
          1936.45750	         8.70453e+57
          1937.26380	         6.51438e+57
          1938.07010	         6.25008e+57
          1938.87640	         8.40206e+57
          1939.68270	         8.47611e+57
          1940.48900	         8.06118e+57
          1941.29530	         7.59079e+57
          1942.10160	         7.57084e+57
          1942.90790	         6.97693e+57
          1943.71420	         7.09891e+57
          1944.52050	         7.05483e+57
          1945.32680	         6.19335e+57
          1946.13310	         7.52488e+57
          1946.93940	         7.95305e+57
          1947.74570	         8.22473e+57
          1948.55200	         6.37743e+57
          1949.35830	         6.10955e+57
          1950.16460	         6.87587e+57
          1950.97090	         6.62929e+57
          1951.77720	         6.71520e+57
          1952.58350	         7.36185e+57
          1953.38980	         7.19416e+57
          1954.19610	         5.08093e+57
          1955.00240	         4.88582e+57
          1955.80870	         7.21588e+57
          1956.61500	         6.89083e+57
          1957.42130	         6.47187e+57
          1958.22760	         6.53458e+57
          1959.03390	         6.30688e+57
          1959.84020	         7.01631e+57
          1960.64650	         7.26737e+57
          1961.45280	         6.09696e+57
          1962.25910	         5.43502e+57
          1963.06540	         6.95068e+57
          1963.87170	         7.78806e+57
          1964.67800	         7.38529e+57
          1965.48430	         6.54152e+57
          1966.29060	         6.47761e+57
          1967.09690	         8.03284e+57
          1967.90320	         7.83811e+57
          1968.70950	         6.43419e+57
          1969.51580	         6.30918e+57
          1970.32210	         7.01206e+57
          1971.12840	         6.14385e+57
          1971.93470	         4.18802e+57
          1972.74100	         5.41385e+57
          1973.54730	         7.04374e+57
          1974.35360	         7.30640e+57
          1975.15990	         7.78704e+57
          1975.96620	         6.80196e+57
          1976.77250	         8.03733e+57
          1977.57880	         7.97943e+57
          1978.38510	         6.49346e+57
          1979.19140	         6.67038e+57
          1979.99770	         8.00934e+57
          1980.80400	         7.48198e+57
          1981.61030	         7.68482e+57
          1982.41660	         6.50915e+57
          1983.22290	         5.69852e+57
          1984.02920	         6.04632e+57
          1984.83550	         5.55331e+57
          1985.64180	         6.48495e+57
          1986.44810	         5.92964e+57
          1987.25440	         6.14362e+57
          1988.06070	         6.10743e+57
          1988.86700	         6.77292e+57
          1989.67330	         7.58678e+57
          1990.47960	         7.22097e+57
          1991.28590	         7.06023e+57
          1992.09220	         6.32836e+57
          1992.89850	         5.74310e+57
          1993.70480	         5.18111e+57
          1994.51110	         4.45843e+57
          1995.31740	         4.75892e+57
          1996.12370	         5.41156e+57
          1996.93000	         5.82003e+57
          1997.73630	         8.50650e+57
          1998.54260	         7.55865e+57
          1999.34890	         5.94662e+57
          2000.15520	         5.72917e+57
          2000.96150	         6.57540e+57
          2001.76780	         6.68486e+57
          2002.57410	         4.52855e+57
          2003.38040	         6.18378e+57
          2004.18670	         7.00191e+57
          2004.99300	         5.71953e+57
          2005.79930	         6.94782e+57
          2006.60560	         7.58181e+57
          2007.41190	         6.74933e+57
          2008.21820	         6.63358e+57
          2009.02450	         6.81947e+57
          2009.83080	         6.37715e+57
          2010.63710	         6.40942e+57
          2011.44340	         7.01357e+57
          2012.24970	         7.25123e+57
          2013.05600	         6.77421e+57
          2013.86230	         6.94623e+57
          2014.66860	         7.06746e+57
          2015.47490	         6.54299e+57
          2016.28120	         5.50214e+57
          2017.08750	         4.68698e+57
          2017.89380	         6.51453e+57
          2018.70010	         6.59625e+57
          2019.50640	         7.22722e+57
          2020.31270	         7.10834e+57
          2021.11900	         6.43610e+57
          2021.92530	         6.47333e+57
          2022.73160	         7.38320e+57
          2023.53790	         8.14852e+57
          2024.34420	         5.88879e+57
          2025.15050	         4.41036e+57
          2025.95680	         5.53838e+57
          2026.76310	         6.54823e+57
          2027.56940	         7.05812e+57
          2028.37570	         7.28247e+57
          2029.18200	         5.61725e+57
          2029.98830	         5.66302e+57
          2030.79460	         7.55088e+57
          2031.60090	         7.20553e+57
          2032.40720	         6.07536e+57
          2033.21350	         5.23881e+57
          2034.01980	         4.13095e+57
          2034.82610	         4.43330e+57
          2035.63240	         5.67505e+57
          2036.43870	         5.59846e+57
          2037.24500	         6.26972e+57
          2038.05130	         6.77328e+57
          2038.85760	         5.93125e+57
          2039.66390	         6.29583e+57
          2040.47020	         5.31823e+57
          2041.27650	         4.62023e+57
          2042.08280	         4.82455e+57
          2042.88910	         5.85526e+57
          2043.69540	         7.85118e+57
          2044.50170	         7.58615e+57
          2045.30800	         6.11060e+57
          2046.11430	         4.83037e+57
          2046.92060	         5.57706e+57
          2047.72690	         6.71718e+57
          2048.53320	         7.51437e+57
          2049.33950	         4.87228e+57
          2050.14580	         4.07590e+57
          2050.95210	         5.25670e+57
          2051.75840	         6.90271e+57
          2052.56470	         5.71204e+57
          2053.37100	         4.29446e+57
          2054.17730	         4.31109e+57
          2054.98360	         4.74627e+57
          2055.78990	         2.43442e+57
          2056.59620	         2.76655e+57
          2057.40250	         6.10879e+57
          2058.20880	         7.20603e+57
          2059.01510	         5.13516e+57
          2059.82140	         5.51971e+57
          2060.62770	         1.03431e+58
          2061.43400	         1.41062e+58
          2062.24030	         1.33003e+58
          2063.04660	         8.27123e+57
          2063.85290	         1.29285e+57
          2064.65920	        -2.33325e+57
          2065.46550	        -9.14137e+57
          2066.27180	        -9.09382e+57
          2067.07810	         3.25191e+57
          2067.88440	         4.39775e+57
          2068.69070	         6.69294e+57
          2069.49700	         6.55949e+57
          2070.30330	         6.05551e+57
          2071.10960	         5.60087e+57
          2071.91590	         5.57025e+57
          2072.72220	         2.44660e+57
          2073.52850	         4.06921e+57
          2074.33480	         4.17175e+57
          2075.14110	         4.15739e+57
          2075.94740	         5.55156e+57
          2076.75370	         4.58077e+57
          2077.56000	         4.79913e+57
          2078.36630	         4.40346e+57
          2079.17260	         4.61132e+57
          2079.97890	         6.06045e+57
          2080.78520	         6.96580e+57
          2081.59150	         5.03095e+57
          2082.39780	         3.91715e+57
          2083.20410	         2.37459e+57
          2084.01040	         2.50025e+57
          2084.81670	         3.37519e+57
          2085.62300	         3.86323e+57
          2086.42930	         4.94826e+57
          2087.23560	         3.52194e+57
          2088.04190	         3.85959e+57
          2088.84820	         3.79232e+57
          2089.65450	         3.15301e+57
          2090.46080	         2.13617e+57
          2091.26710	         2.84232e+57
          2092.07340	         4.01187e+57
          2092.87970	         2.15025e+57
          2093.68600	        -8.23498e+56
          2094.49230	         2.37360e+57
          2095.29860	         5.69992e+57
          2096.10490	         5.07963e+57
          2096.91120	         2.08586e+57
          2097.71750	        -7.82416e+56
          2098.52380	         2.95284e+57
          2099.33010	         1.81392e+57
          2100.13640	         1.44255e+57
          2100.94270	         8.01107e+56
          2101.74900	         3.70962e+57
          2102.55530	         2.55945e+57
          2103.36160	         7.94878e+56
          2104.16790	         2.50412e+57
          2104.97420	         1.36524e+57
          2105.78050	        -5.88476e+56
          2106.58680	         1.60789e+57
          2107.39310	         4.60934e+56
          2108.19940	         2.39084e+57
          2109.00570	        -1.12779e+57
          2109.81200	        -2.13515e+57
          2110.61830	         1.57633e+57
          2111.42460	         1.24504e+57
          2112.23090	         3.00640e+56
          2113.03720	        -6.35984e+56
          2113.84350	        -1.89983e+57
          2114.64980	        -1.01428e+57
          2115.45610	         1.65714e+56
          2116.26240	        -7.33567e+57
          2117.06870	         5.05361e+56
          2117.87500	        -1.66397e+57
          2118.68130	         1.85247e+57
          2119.48760	         2.85155e+57
          2120.29390	         2.22165e+57
          2121.10020	        -4.10479e+57
          2121.90650	        -4.81965e+56
          2122.71280	        -1.42284e+57
          2123.51910	         4.81550e+57
          2124.32540	         1.13586e+57
          2125.13170	        -3.29557e+57
          2125.93800	         1.84669e+57
          2126.74430	        -4.21327e+57
          2127.55060	        -7.94447e+57
          2128.35690	         4.83093e+56
          2129.16320	        -4.03438e+57
          2129.96950	        -4.29023e+57
          2130.77580	        -6.23468e+57
          2131.58210	        -5.04344e+57
          2132.38840	        -3.37994e+57
          2133.19470	         1.53711e+57
          2134.00100	        -3.87691e+55
          2134.80730	        -6.71446e+57
          2135.61360	         1.43047e+57
          2136.41990	        -3.25953e+57
          2137.22620	         6.97333e+56
          2138.03250	        -6.68528e+56
          2138.83880	        -2.83641e+57
          2139.64510	        -1.32428e+57
          2140.45140	        -4.22967e+57
          2141.25770	        -7.50801e+57
          2142.06400	        -1.19338e+58
          2142.87030	        -1.98432e+57
          2143.67660	         7.65289e+57
          2144.48290	         7.92278e+57
          2145.28920	         2.11260e+58
          2146.09550	        -1.13860e+58
          2146.90180	        -1.66021e+58
          2147.70810	        -1.29037e+58
          2148.51440	        -9.06095e+57
          2149.32070	        -1.87182e+57
          2150.12700	        -9.73613e+57
          2150.93330	        -1.32245e+58
          2151.73960	        -1.21513e+57
          2152.54590	         3.14647e+56
          2153.35220	        -4.11408e+57
          2154.15850	        -8.01117e+57
          2154.96480	        -9.96317e+57
          2155.77110	         3.74590e+57
          2156.57740	        -4.67266e+57
          2157.38370	        -3.00746e+57
          2158.19000	        -2.23760e+56
          2158.99630	        -3.65560e+57
          2159.80260	        -1.50534e+58
          2160.60890	        -6.59854e+57
          2161.41520	        -6.68210e+57
          2162.22150	        -3.38347e+57
          2163.02780	         1.15523e+56
          2163.83410	        -9.81172e+56
          2164.64040	        -6.71371e+57
          2165.44670	        -1.27077e+58
          2166.25300	        -4.44440e+57
          2167.05930	         6.15432e+57
          2167.86560	        -1.18893e+58
          2168.67190	        -1.45884e+58
          2169.47820	        -9.66487e+57
          2170.28450	         1.62446e+57
          2171.09080	         8.24778e+56
          2171.89710	         1.62312e+57
          2172.70340	         3.05983e+57
          2173.50970	        -7.22322e+57
          2174.31600	        -4.10100e+57
          2175.12230	         2.99643e+57
          2175.92860	        -3.40125e+57
          2176.73490	        -3.54399e+57
          2177.54120	        -1.02579e+58
          2178.34750	        -4.98391e+57
          2179.15380	                 nan
          2179.96010	                 nan
          2180.76640	                 nan
          2181.57270	                 nan
          2182.37900	                 nan
          2183.18530	                 nan
          2183.99160	                 nan
          2184.79790	                 nan
          2185.60420	                 nan
          2186.41050	                 nan
          2187.21680	                 nan
          2188.02310	                 nan
          2188.82940	                 nan
          2189.63570	                 nan
          2190.44200	                 nan
          2191.24830	                 nan
          2192.05460	                 nan
          2192.86090	                 nan
          2193.66720	                 nan
          2194.47350	                 nan
          2195.27980	                 nan
          2196.08610	                 nan
          2196.89240	                 nan
          2197.69870	                 nan
          2198.50500	                 nan
          2199.31130	                 nan
          2200.11760	                 nan
          2200.92390	                 nan
          2201.73020	                 nan
          2202.53650	                 nan
          2203.34280	                 nan
          2204.14910	                 nan
          2204.95540	                 nan
          2205.76170	                 nan
          2206.56800	                 nan
          2207.37430	                 nan
          2208.18060	                 nan
          2208.98690	                 nan
          2209.79320	                 nan
          2210.59950	                 nan
          2211.40580	                 nan
          2212.21210	                 nan
          2213.01840	                 nan
          2213.82470	                 nan
          2214.63100	                 nan
          2215.43730	         0.00000e+00
