#sample_283_stacked_spectrum_rest_UV-bands_median_H-alpha_noDC.txt
#median Lum: 1.71794e+42
#Rest-frame wavelength (A) | Luminosity (erg/s/A)
#
          1110.00000	         0.00000e+00
          1110.80630	         9.42926e+58
          1111.61260	         3.08633e+59
          1112.41890	         1.46213e+59
          1113.22520	         1.46654e+58
          1114.03150	        -1.50361e+59
          1114.83780	         1.62752e+59
          1115.64410	         6.92383e+58
          1116.45040	         2.49407e+59
          1117.25670	         1.96499e+59
          1118.06300	         2.05035e+59
          1118.86930	         5.32755e+58
          1119.67560	         1.21275e+59
          1120.48190	        -1.13025e+58
          1121.28820	        -6.60626e+58
          1122.09450	         9.18323e+58
          1122.90080	        -5.13543e+57
          1123.70710	         3.79055e+58
          1124.51340	         5.92003e+58
          1125.31970	        -3.24574e+58
          1126.12600	        -3.48467e+58
          1126.93230	        -2.36913e+58
          1127.73860	        -2.41682e+58
          1128.54490	        -4.19332e+58
          1129.35120	         7.18266e+57
          1130.15750	         1.62674e+58
          1130.96380	        -2.21735e+58
          1131.77010	         5.60928e+58
          1132.57640	         3.89095e+58
          1133.38270	         3.18934e+58
          1134.18900	         2.89032e+58
          1134.99530	         7.62530e+57
          1135.80160	         2.33545e+58
          1136.60790	         5.03575e+58
          1137.41420	         1.50638e+58
          1138.22050	         1.71978e+58
          1139.02680	         2.67384e+58
          1139.83310	         1.85469e+58
          1140.63940	         2.39524e+58
          1141.44570	        -2.27716e+58
          1142.25200	        -1.15998e+58
          1143.05830	         2.97993e+57
          1143.86460	         2.87083e+58
          1144.67090	         1.11984e+58
          1145.47720	         9.29657e+57
          1146.28350	         7.40394e+57
          1147.08980	        -2.91219e+57
          1147.89610	         2.07156e+58
          1148.70240	         2.78866e+58
          1149.50870	         2.40325e+58
          1150.31500	         1.61666e+58
          1151.12130	         4.56612e+57
          1151.92760	         1.02852e+58
          1152.73390	        -2.77687e+57
          1153.54020	        -2.04473e+57
          1154.34650	         2.71057e+58
          1155.15280	         1.88733e+58
          1155.95910	         9.35999e+57
          1156.76540	         1.49594e+58
          1157.57170	         1.41291e+58
          1158.37800	        -2.64946e+57
          1159.18430	        -6.34887e+57
          1159.99060	         2.55725e+57
          1160.79690	         1.21617e+58
          1161.60320	         5.61268e+57
          1162.40950	         1.00358e+58
          1163.21580	         1.84730e+58
          1164.02210	         1.42159e+58
          1164.82840	         1.43500e+58
          1165.63470	         1.98938e+58
          1166.44100	         2.51365e+58
          1167.24730	         1.41624e+58
          1168.05360	         3.78969e+57
          1168.85990	         6.05604e+57
          1169.66620	         1.05747e+58
          1170.47250	         1.37097e+58
          1171.27880	         9.44471e+57
          1172.08510	         5.44848e+57
          1172.89140	         7.48951e+57
          1173.69770	         1.82875e+57
          1174.50400	         1.08808e+58
          1175.31030	         1.72125e+58
          1176.11660	         1.65695e+58
          1176.92290	         9.99640e+57
          1177.72920	         1.09732e+58
          1178.53550	         7.99201e+57
          1179.34180	         5.60595e+57
          1180.14810	         6.05445e+57
          1180.95440	         7.13298e+57
          1181.76070	         5.98986e+57
          1182.56700	         8.29191e+57
          1183.37330	         1.16933e+58
          1184.17960	         1.45183e+58
          1184.98590	         8.10659e+57
          1185.79220	         4.39863e+57
          1186.59850	         1.00963e+58
          1187.40480	         7.18649e+57
          1188.21110	         1.19284e+58
          1189.01740	         8.97725e+57
          1189.82370	         1.15575e+58
          1190.63000	         1.06783e+58
          1191.43630	         1.69197e+58
          1192.24260	         1.30612e+58
          1193.04890	         1.26670e+58
          1193.85520	         1.21123e+58
          1194.66150	         7.72486e+57
          1195.46780	         1.17740e+58
          1196.27410	         1.56200e+58
          1197.08040	         9.72037e+57
          1197.88670	         1.25154e+58
          1198.69300	         1.52341e+58
          1199.49930	         1.40531e+58
          1200.30560	         4.46469e+57
          1201.11190	         6.15473e+57
          1201.91820	         1.08404e+58
          1202.72450	         1.01746e+58
          1203.53080	         1.38221e+58
          1204.33710	         9.01272e+57
          1205.14340	         3.63487e+57
          1205.94970	         6.53457e+57
          1206.75600	         7.73744e+57
          1207.56230	         2.88192e+57
          1208.36860	         9.44842e+57
          1209.17490	         5.46379e+57
          1209.98120	         5.80057e+57
          1210.78750	         3.44235e+57
          1211.59380	         8.69715e+57
          1212.40010	         1.90551e+58
          1213.20640	         2.16172e+58
          1214.01270	         2.09926e+58
          1214.81900	         2.70603e+58
          1215.62530	         4.52684e+58
          1216.43160	         8.64603e+58
          1217.23790	         1.51783e+59
          1218.04420	         1.18365e+59
          1218.85050	         9.05560e+58
          1219.65680	         5.97833e+58
          1220.46310	         3.24532e+58
          1221.26940	         2.06288e+58
          1222.07570	         1.39322e+58
          1222.88200	         1.54729e+58
          1223.68830	         1.23206e+58
          1224.49460	         6.19150e+57
          1225.30090	         6.24295e+57
          1226.10720	         5.04527e+57
          1226.91350	         3.47180e+57
          1227.71980	         8.94287e+57
          1228.52610	         1.22349e+58
          1229.33240	         9.23210e+57
          1230.13870	         1.00058e+58
          1230.94500	         9.77436e+57
          1231.75130	         8.05210e+57
          1232.55760	         8.33616e+57
          1233.36390	         9.13138e+57
          1234.17020	         1.04234e+58
          1234.97650	         8.68553e+57
          1235.78280	         6.50379e+57
          1236.58910	         8.20795e+57
          1237.39540	         1.08047e+58
          1238.20170	         1.03597e+58
          1239.00800	         1.22903e+58
          1239.81430	         1.62646e+58
          1240.62060	         1.07343e+58
          1241.42690	         7.89633e+57
          1242.23320	         1.01013e+58
          1243.03950	         8.37228e+57
          1243.84580	         8.01788e+57
          1244.65210	         8.63875e+57
          1245.45840	         8.50248e+57
          1246.26470	         8.09315e+57
          1247.07100	         7.47133e+57
          1247.87730	         5.68536e+57
          1248.68360	         4.84490e+57
          1249.48990	         9.15828e+57
          1250.29620	         1.09838e+58
          1251.10250	         6.15127e+57
          1251.90880	         3.50873e+57
          1252.71510	         5.65073e+57
          1253.52140	         6.62957e+57
          1254.32770	         1.03319e+58
          1255.13400	         1.36986e+58
          1255.94030	         1.15391e+58
          1256.74660	         9.30938e+57
          1257.55290	         1.03011e+58
          1258.35920	         1.02821e+58
          1259.16550	         7.40637e+57
          1259.97180	         5.53843e+57
          1260.77810	         6.47728e+57
          1261.58440	         1.01486e+58
          1262.39070	         1.00390e+58
          1263.19700	         9.98640e+57
          1264.00330	         1.00517e+58
          1264.80960	         9.06491e+57
          1265.61590	         1.21060e+58
          1266.42220	         1.39546e+58
          1267.22850	         1.17035e+58
          1268.03480	         1.28857e+58
          1268.84110	         1.39884e+58
          1269.64740	         1.39950e+58
          1270.45370	         1.35970e+58
          1271.26000	         1.18391e+58
          1272.06630	         1.25625e+58
          1272.87260	         1.29975e+58
          1273.67890	         1.14326e+58
          1274.48520	         1.33447e+58
          1275.29150	         1.19873e+58
          1276.09780	         1.06731e+58
          1276.90410	         1.45691e+58
          1277.71040	         1.33337e+58
          1278.51670	         1.30030e+58
          1279.32300	         1.44796e+58
          1280.12930	         1.29050e+58
          1280.93560	         1.15454e+58
          1281.74190	         1.36040e+58
          1282.54820	         1.53079e+58
          1283.35450	         1.20256e+58
          1284.16080	         1.17402e+58
          1284.96710	         1.34280e+58
          1285.77340	         1.02712e+58
          1286.57970	         1.24284e+58
          1287.38600	         1.66060e+58
          1288.19230	         1.90670e+58
          1288.99860	         1.91054e+58
          1289.80490	         1.17158e+58
          1290.61120	         1.17451e+58
          1291.41750	         1.19058e+58
          1292.22380	         1.12235e+58
          1293.03010	         1.03741e+58
          1293.83640	         1.14179e+58
          1294.64270	         1.15076e+58
          1295.44900	         9.51461e+57
          1296.25530	         9.12908e+57
          1297.06160	         9.99242e+57
          1297.86790	         1.01407e+58
          1298.67420	         9.60284e+57
          1299.48050	         1.12665e+58
          1300.28680	         1.32488e+58
          1301.09310	         9.23038e+57
          1301.89940	         5.57407e+57
          1302.70570	         7.19299e+57
          1303.51200	         8.35614e+57
          1304.31830	         1.04564e+58
          1305.12460	         1.15750e+58
          1305.93090	         1.21367e+58
          1306.73720	         1.27797e+58
          1307.54350	         1.38121e+58
          1308.34980	         1.37293e+58
          1309.15610	         1.48077e+58
          1309.96240	         1.36577e+58
          1310.76870	         1.37634e+58
          1311.57500	         1.60613e+58
          1312.38130	         1.55547e+58
          1313.18760	         1.57238e+58
          1313.99390	         1.54542e+58
          1314.80020	         1.57746e+58
          1315.60650	         1.66932e+58
          1316.41280	         1.36477e+58
          1317.21910	         1.14877e+58
          1318.02540	         1.32876e+58
          1318.83170	         1.47967e+58
          1319.63800	         1.37016e+58
          1320.44430	         1.24528e+58
          1321.25060	         1.30738e+58
          1322.05690	         1.29767e+58
          1322.86320	         1.27879e+58
          1323.66950	         1.17347e+58
          1324.47580	         9.45605e+57
          1325.28210	         9.27980e+57
          1326.08840	         1.07345e+58
          1326.89470	         1.16594e+58
          1327.70100	         1.17050e+58
          1328.50730	         1.02654e+58
          1329.31360	         1.00196e+58
          1330.11990	         9.57570e+57
          1330.92620	         8.87538e+57
          1331.73250	         9.76739e+57
          1332.53880	         9.84924e+57
          1333.34510	         8.73034e+57
          1334.15140	         8.82955e+57
          1334.95770	         9.72972e+57
          1335.76400	         1.05976e+58
          1336.57030	         1.26474e+58
          1337.37660	         1.38173e+58
          1338.18290	         1.17447e+58
          1338.98920	         1.22139e+58
          1339.79550	         1.15662e+58
          1340.60180	         1.13751e+58
          1341.40810	         1.36298e+58
          1342.21440	         1.19477e+58
          1343.02070	         1.17784e+58
          1343.82700	         1.24157e+58
          1344.63330	         1.18782e+58
          1345.43960	         1.22523e+58
          1346.24590	         9.80616e+57
          1347.05220	         1.17860e+58
          1347.85850	         1.17494e+58
          1348.66480	         1.28997e+58
          1349.47110	         1.29966e+58
          1350.27740	         1.15743e+58
          1351.08370	         1.29890e+58
          1351.89000	         1.22432e+58
          1352.69630	         1.06796e+58
          1353.50260	         1.15858e+58
          1354.30890	         1.17446e+58
          1355.11520	         1.16497e+58
          1355.92150	         1.27351e+58
          1356.72780	         1.14281e+58
          1357.53410	         1.13725e+58
          1358.34040	         1.15141e+58
          1359.14670	         9.87739e+57
          1359.95300	         1.09867e+58
          1360.75930	         1.20732e+58
          1361.56560	         1.11243e+58
          1362.37190	         1.17383e+58
          1363.17820	         1.13090e+58
          1363.98450	         1.18638e+58
          1364.79080	         1.23519e+58
          1365.59710	         1.21570e+58
          1366.40340	         1.19866e+58
          1367.20970	         1.02874e+58
          1368.01600	         9.14142e+57
          1368.82230	         9.99573e+57
          1369.62860	         1.18840e+58
          1370.43490	         9.46511e+57
          1371.24120	         8.91392e+57
          1372.04750	         9.23520e+57
          1372.85380	         1.24641e+58
          1373.66010	         1.28874e+58
          1374.46640	         1.13340e+58
          1375.27270	         1.06366e+58
          1376.07900	         9.37295e+57
          1376.88530	         9.58190e+57
          1377.69160	         9.02532e+57
          1378.49790	         6.77139e+57
          1379.30420	         7.35893e+57
          1380.11050	         8.34212e+57
          1380.91680	         7.65174e+57
          1381.72310	         6.29166e+57
          1382.52940	         7.53549e+57
          1383.33570	         9.52293e+57
          1384.14200	         1.03925e+58
          1384.94830	         1.16450e+58
          1385.75460	         1.13318e+58
          1386.56090	         1.27256e+58
          1387.36720	         1.24329e+58
          1388.17350	         1.51931e+58
          1388.97980	         1.21856e+58
          1389.78610	         8.42508e+57
          1390.59240	         8.71101e+57
          1391.39870	         6.97999e+57
          1392.20500	         7.25975e+57
          1393.01130	         7.32124e+57
          1393.81760	         6.87627e+57
          1394.62390	         7.72200e+57
          1395.43020	         7.41319e+57
          1396.23650	         7.54184e+57
          1397.04280	         9.42973e+57
          1397.84910	         9.97881e+57
          1398.65540	         9.65993e+57
          1399.46170	         9.71944e+57
          1400.26800	         7.85478e+57
          1401.07430	         7.13000e+57
          1401.88060	         7.31204e+57
          1402.68690	         8.90941e+57
          1403.49320	         9.94705e+57
          1404.29950	         1.06239e+58
          1405.10580	         1.10865e+58
          1405.91210	         1.15226e+58
          1406.71840	         1.01811e+58
          1407.52470	         8.74620e+57
          1408.33100	         9.19810e+57
          1409.13730	         1.19086e+58
          1409.94360	         1.27652e+58
          1410.74990	         1.15345e+58
          1411.55620	         1.02771e+58
          1412.36250	         1.01511e+58
          1413.16880	         8.95375e+57
          1413.97510	         8.15261e+57
          1414.78140	         9.22119e+57
          1415.58770	         1.00544e+58
          1416.39400	         9.21685e+57
          1417.20030	         1.01204e+58
          1418.00660	         1.06953e+58
          1418.81290	         1.05013e+58
          1419.61920	         1.05694e+58
          1420.42550	         1.30594e+58
          1421.23180	         1.39394e+58
          1422.03810	         1.24071e+58
          1422.84440	         1.14750e+58
          1423.65070	         1.19912e+58
          1424.45700	         1.14603e+58
          1425.26330	         8.99724e+57
          1426.06960	         9.54239e+57
          1426.87590	         9.63135e+57
          1427.68220	         8.61648e+57
          1428.48850	         9.59149e+57
          1429.29480	         1.07859e+58
          1430.10110	         9.88881e+57
          1430.90740	         8.13639e+57
          1431.71370	         8.26467e+57
          1432.52000	         9.78017e+57
          1433.32630	         8.73384e+57
          1434.13260	         8.56465e+57
          1434.93890	         7.83946e+57
          1435.74520	         8.47645e+57
          1436.55150	         9.85210e+57
          1437.35780	         1.03792e+58
          1438.16410	         9.57906e+57
          1438.97040	         9.27651e+57
          1439.77670	         9.23460e+57
          1440.58300	         1.03046e+58
          1441.38930	         9.58466e+57
          1442.19560	         9.69725e+57
          1443.00190	         1.13965e+58
          1443.80820	         1.17267e+58
          1444.61450	         1.00162e+58
          1445.42080	         9.16696e+57
          1446.22710	         1.11080e+58
          1447.03340	         1.03958e+58
          1447.83970	         1.04151e+58
          1448.64600	         1.06325e+58
          1449.45230	         1.03787e+58
          1450.25860	         9.95664e+57
          1451.06490	         8.68321e+57
          1451.87120	         7.83983e+57
          1452.67750	         7.57010e+57
          1453.48380	         8.17408e+57
          1454.29010	         7.75872e+57
          1455.09640	         7.71580e+57
          1455.90270	         9.54597e+57
          1456.70900	         9.70589e+57
          1457.51530	         1.00343e+58
          1458.32160	         1.09017e+58
          1459.12790	         1.05845e+58
          1459.93420	         1.14534e+58
          1460.74050	         9.68547e+57
          1461.54680	         8.99764e+57
          1462.35310	         8.14082e+57
          1463.15940	         9.96514e+57
          1463.96570	         1.17576e+58
          1464.77200	         1.24637e+58
          1465.57830	         1.09962e+58
          1466.38460	         9.37704e+57
          1467.19090	         9.07398e+57
          1467.99720	         9.63697e+57
          1468.80350	         1.07556e+58
          1469.60980	         1.06016e+58
          1470.41610	         1.14244e+58
          1471.22240	         1.04047e+58
          1472.02870	         1.04348e+58
          1472.83500	         1.05627e+58
          1473.64130	         1.08315e+58
          1474.44760	         9.74838e+57
          1475.25390	         9.61740e+57
          1476.06020	         8.82109e+57
          1476.86650	         8.23233e+57
          1477.67280	         8.51678e+57
          1478.47910	         7.23498e+57
          1479.28540	         6.18058e+57
          1480.09170	         7.40933e+57
          1480.89800	         8.43175e+57
          1481.70430	         9.06871e+57
          1482.51060	         8.70942e+57
          1483.31690	         8.68761e+57
          1484.12320	         8.21657e+57
          1484.92950	         7.62544e+57
          1485.73580	         8.77451e+57
          1486.54210	         9.09777e+57
          1487.34840	         8.07795e+57
          1488.15470	         8.44202e+57
          1488.96100	         9.08523e+57
          1489.76730	         1.03084e+58
          1490.57360	         9.73880e+57
          1491.37990	         8.23829e+57
          1492.18620	         8.49700e+57
          1492.99250	         7.97571e+57
          1493.79880	         8.14987e+57
          1494.60510	         7.70284e+57
          1495.41140	         7.48773e+57
          1496.21770	         8.32681e+57
          1497.02400	         9.93160e+57
          1497.83030	         8.35667e+57
          1498.63660	         6.90354e+57
          1499.44290	         6.69817e+57
          1500.24920	         6.89868e+57
          1501.05550	         8.69450e+57
          1501.86180	         1.00268e+58
          1502.66810	         1.09493e+58
          1503.47440	         8.94831e+57
          1504.28070	         8.72720e+57
          1505.08700	         9.46070e+57
          1505.89330	         9.21634e+57
          1506.69960	         7.72011e+57
          1507.50590	         6.94869e+57
          1508.31220	         8.17411e+57
          1509.11850	         9.28032e+57
          1509.92480	         9.37400e+57
          1510.73110	         8.73599e+57
          1511.53740	         6.58983e+57
          1512.34370	         6.94499e+57
          1513.15000	         8.44161e+57
          1513.95630	         9.85065e+57
          1514.76260	         1.01787e+58
          1515.56890	         9.07036e+57
          1516.37520	         8.84163e+57
          1517.18150	         8.65842e+57
          1517.98780	         8.04077e+57
          1518.79410	         8.05377e+57
          1519.60040	         8.07382e+57
          1520.40670	         9.64072e+57
          1521.21300	         1.04442e+58
          1522.01930	         9.21480e+57
          1522.82560	         9.19215e+57
          1523.63190	         1.03539e+58
          1524.43820	         9.23143e+57
          1525.24450	         6.46003e+57
          1526.05080	         5.22965e+57
          1526.85710	         5.72397e+57
          1527.66340	         6.44033e+57
          1528.46970	         8.65762e+57
          1529.27600	         9.00887e+57
          1530.08230	         7.62599e+57
          1530.88860	         7.59014e+57
          1531.69490	         9.02414e+57
          1532.50120	         9.94595e+57
          1533.30750	         1.00866e+58
          1534.11380	         9.30455e+57
          1534.92010	         9.23637e+57
          1535.72640	         1.04178e+58
          1536.53270	         1.02503e+58
          1537.33900	         9.11776e+57
          1538.14530	         8.86682e+57
          1538.95160	         1.00646e+58
          1539.75790	         9.33794e+57
          1540.56420	         8.74032e+57
          1541.37050	         8.82832e+57
          1542.17680	         7.24502e+57
          1542.98310	         7.48434e+57
          1543.78940	         7.65397e+57
          1544.59570	         6.67894e+57
          1545.40200	         7.36258e+57
          1546.20830	         8.33303e+57
          1547.01460	         1.03949e+58
          1547.82090	         1.07769e+58
          1548.62720	         1.17550e+58
          1549.43350	         1.23721e+58
          1550.23980	         1.15767e+58
          1551.04610	         1.27524e+58
          1551.85240	         1.24585e+58
          1552.65870	         1.27032e+58
          1553.46500	         1.05819e+58
          1554.27130	         1.03800e+58
          1555.07760	         1.04126e+58
          1555.88390	         9.09790e+57
          1556.69020	         8.83694e+57
          1557.49650	         8.81604e+57
          1558.30280	         8.57277e+57
          1559.10910	         1.01891e+58
          1559.91540	         9.55230e+57
          1560.72170	         8.99499e+57
          1561.52800	         9.48083e+57
          1562.33430	         8.96380e+57
          1563.14060	         8.25946e+57
          1563.94690	         8.05813e+57
          1564.75320	         8.13469e+57
          1565.55950	         7.24437e+57
          1566.36580	         7.85358e+57
          1567.17210	         9.36130e+57
          1567.97840	         8.96597e+57
          1568.78470	         9.77159e+57
          1569.59100	         9.53513e+57
          1570.39730	         8.48242e+57
          1571.20360	         7.49644e+57
          1572.00990	         7.74489e+57
          1572.81620	         8.99746e+57
          1573.62250	         9.88595e+57
          1574.42880	         1.02345e+58
          1575.23510	         7.95369e+57
          1576.04140	         8.28244e+57
          1576.84770	         9.44651e+57
          1577.65400	         9.12038e+57
          1578.46030	         9.85454e+57
          1579.26660	         1.12080e+58
          1580.07290	         1.06369e+58
          1580.87920	         7.45445e+57
          1581.68550	         7.63597e+57
          1582.49180	         8.77642e+57
          1583.29810	         7.60169e+57
          1584.10440	         8.98617e+57
          1584.91070	         9.86938e+57
          1585.71700	         8.79556e+57
          1586.52330	         9.35654e+57
          1587.32960	         9.35077e+57
          1588.13590	         8.99456e+57
          1588.94220	         8.09062e+57
          1589.74850	         8.66214e+57
          1590.55480	         9.02481e+57
          1591.36110	         8.65429e+57
          1592.16740	         8.59023e+57
          1592.97370	         8.86217e+57
          1593.78000	         9.75299e+57
          1594.58630	         9.54246e+57
          1595.39260	         9.42761e+57
          1596.19890	         8.79805e+57
          1597.00520	         8.83203e+57
          1597.81150	         8.49594e+57
          1598.61780	         7.76252e+57
          1599.42410	         6.81210e+57
          1600.23040	         7.38375e+57
          1601.03670	         8.18096e+57
          1601.84300	         7.90302e+57
          1602.64930	         9.68640e+57
          1603.45560	         1.01287e+58
          1604.26190	         8.68641e+57
          1605.06820	         7.47260e+57
          1605.87450	         6.74141e+57
          1606.68080	         6.70017e+57
          1607.48710	         6.02101e+57
          1608.29340	         5.32391e+57
          1609.09970	         6.47726e+57
          1609.90600	         7.22110e+57
          1610.71230	         6.58954e+57
          1611.51860	         6.45901e+57
          1612.32490	         6.19262e+57
          1613.13120	         7.11042e+57
          1613.93750	         7.70296e+57
          1614.74380	         8.26756e+57
          1615.55010	         8.42148e+57
          1616.35640	         8.82879e+57
          1617.16270	         1.10685e+58
          1617.96900	         1.08004e+58
          1618.77530	         9.40454e+57
          1619.58160	         9.00466e+57
          1620.38790	         7.94871e+57
          1621.19420	         9.34909e+57
          1622.00050	         9.22349e+57
          1622.80680	         8.35590e+57
          1623.61310	         9.50857e+57
          1624.41940	         8.20247e+57
          1625.22570	         8.54165e+57
          1626.03200	         8.96684e+57
          1626.83830	         8.46633e+57
          1627.64460	         7.94547e+57
          1628.45090	         7.17124e+57
          1629.25720	         9.36079e+57
          1630.06350	         1.10229e+58
          1630.86980	         6.93785e+57
          1631.67610	         7.48085e+57
          1632.48240	         9.09774e+57
          1633.28870	         8.67019e+57
          1634.09500	         8.61572e+57
          1634.90130	         1.10510e+58
          1635.70760	         9.63039e+57
          1636.51390	         7.19148e+57
          1637.32020	         6.98356e+57
          1638.12650	         8.35213e+57
          1638.93280	         1.03192e+58
          1639.73910	         1.05048e+58
          1640.54540	         1.06318e+58
          1641.35170	         9.02987e+57
          1642.15800	         9.44989e+57
          1642.96430	         7.63881e+57
          1643.77060	         7.72199e+57
          1644.57690	         8.24831e+57
          1645.38320	         8.79191e+57
          1646.18950	         8.17411e+57
          1646.99580	         8.64420e+57
          1647.80210	         8.13644e+57
          1648.60840	         7.48592e+57
          1649.41470	         8.03303e+57
          1650.22100	         6.85380e+57
          1651.02730	         6.74944e+57
          1651.83360	         6.82951e+57
          1652.63990	         7.91799e+57
          1653.44620	         8.97197e+57
          1654.25250	         8.17380e+57
          1655.05880	         7.77581e+57
          1655.86510	         7.98987e+57
          1656.67140	         7.61984e+57
          1657.47770	         8.05164e+57
          1658.28400	         8.52304e+57
          1659.09030	         8.72424e+57
          1659.89660	         9.62428e+57
          1660.70290	         1.06738e+58
          1661.50920	         1.05800e+58
          1662.31550	         8.85575e+57
          1663.12180	         8.75363e+57
          1663.92810	         9.75799e+57
          1664.73440	         1.11962e+58
          1665.54070	         1.18876e+58
          1666.34700	         1.18401e+58
          1667.15330	         1.16653e+58
          1667.95960	         9.71340e+57
          1668.76590	         7.85774e+57
          1669.57220	         7.22731e+57
          1670.37850	         6.98892e+57
          1671.18480	         8.06656e+57
          1671.99110	         7.85585e+57
          1672.79740	         6.59151e+57
          1673.60370	         7.19652e+57
          1674.41000	         8.28427e+57
          1675.21630	         7.33702e+57
          1676.02260	         7.50321e+57
          1676.82890	         7.69711e+57
          1677.63520	         7.20304e+57
          1678.44150	         7.27212e+57
          1679.24780	         8.56284e+57
          1680.05410	         7.27474e+57
          1680.86040	         5.94612e+57
          1681.66670	         7.76473e+57
          1682.47300	         8.73563e+57
          1683.27930	         8.47856e+57
          1684.08560	         8.76970e+57
          1684.89190	         7.35553e+57
          1685.69820	         5.18998e+57
          1686.50450	         4.63927e+57
          1687.31080	         5.88481e+57
          1688.11710	         7.21177e+57
          1688.92340	         6.57931e+57
          1689.72970	         6.54608e+57
          1690.53600	         6.80462e+57
          1691.34230	         7.04086e+57
          1692.14860	         7.33768e+57
          1692.95490	         7.13090e+57
          1693.76120	         7.31345e+57
          1694.56750	         7.48399e+57
          1695.37380	         7.53310e+57
          1696.18010	         8.08733e+57
          1696.98640	         9.22653e+57
          1697.79270	         7.74897e+57
          1698.59900	         8.02378e+57
          1699.40530	         8.62875e+57
          1700.21160	         8.81781e+57
          1701.01790	         8.83503e+57
          1701.82420	         7.61983e+57
          1702.63050	         8.34362e+57
          1703.43680	         8.69677e+57
          1704.24310	         9.27505e+57
          1705.04940	         9.09108e+57
          1705.85570	         7.96355e+57
          1706.66200	         8.67847e+57
          1707.46830	         9.26203e+57
          1708.27460	         8.62462e+57
          1709.08090	         7.32009e+57
          1709.88720	         6.73996e+57
          1710.69350	         6.42380e+57
          1711.49980	         7.07352e+57
          1712.30610	         8.48964e+57
          1713.11240	         9.47954e+57
          1713.91870	         7.43065e+57
          1714.72500	         6.87061e+57
          1715.53130	         8.56882e+57
          1716.33760	         8.72726e+57
          1717.14390	         8.08869e+57
          1717.95020	         8.29200e+57
          1718.75650	         8.08888e+57
          1719.56280	         8.20715e+57
          1720.36910	         7.50587e+57
          1721.17540	         7.88776e+57
          1721.98170	         7.08998e+57
          1722.78800	         6.35472e+57
          1723.59430	         7.50199e+57
          1724.40060	         8.91634e+57
          1725.20690	         8.12820e+57
          1726.01320	         7.91321e+57
          1726.81950	         8.29417e+57
          1727.62580	         7.81420e+57
          1728.43210	         7.02556e+57
          1729.23840	         7.72422e+57
          1730.04470	         8.62946e+57
          1730.85100	         8.30830e+57
          1731.65730	         7.64554e+57
          1732.46360	         8.05159e+57
          1733.26990	         8.10026e+57
          1734.07620	         7.79285e+57
          1734.88250	         8.11693e+57
          1735.68880	         8.19110e+57
          1736.49510	         7.33206e+57
          1737.30140	         6.53819e+57
          1738.10770	         6.04358e+57
          1738.91400	         7.29424e+57
          1739.72030	         8.45573e+57
          1740.52660	         6.87645e+57
          1741.33290	         5.98502e+57
          1742.13920	         6.20228e+57
          1742.94550	         6.94869e+57
          1743.75180	         7.31774e+57
          1744.55810	         8.12918e+57
          1745.36440	         7.60827e+57
          1746.17070	         4.99575e+57
          1746.97700	         5.10520e+57
          1747.78330	         7.96156e+57
          1748.58960	         8.25028e+57
          1749.39590	         6.50939e+57
          1750.20220	         5.81918e+57
          1751.00850	         5.68538e+57
          1751.81480	         6.42174e+57
          1752.62110	         7.83556e+57
          1753.42740	         8.60188e+57
          1754.23370	         7.44302e+57
          1755.04000	         6.91811e+57
          1755.84630	         7.65767e+57
          1756.65260	         8.54401e+57
          1757.45890	         7.52103e+57
          1758.26520	         6.46305e+57
          1759.07150	         8.76636e+57
          1759.87780	         9.12911e+57
          1760.68410	         8.11877e+57
          1761.49040	         8.06322e+57
          1762.29670	         6.01061e+57
          1763.10300	         7.63780e+57
          1763.90930	         8.10515e+57
          1764.71560	         7.94914e+57
          1765.52190	         8.04749e+57
          1766.32820	         8.87317e+57
          1767.13450	         8.58193e+57
          1767.94080	         7.28962e+57
          1768.74710	         7.14183e+57
          1769.55340	         7.09379e+57
          1770.35970	         5.89144e+57
          1771.16600	         6.94564e+57
          1771.97230	         8.79096e+57
          1772.77860	         9.10757e+57
          1773.58490	         8.03994e+57
          1774.39120	         6.64449e+57
          1775.19750	         6.07830e+57
          1776.00380	         7.41965e+57
          1776.81010	         6.50305e+57
          1777.61640	         6.38387e+57
          1778.42270	         7.21882e+57
          1779.22900	         7.14601e+57
          1780.03530	         6.83996e+57
          1780.84160	         7.34626e+57
          1781.64790	         8.32864e+57
          1782.45420	         7.06919e+57
          1783.26050	         6.86950e+57
          1784.06680	         7.09564e+57
          1784.87310	         6.97787e+57
          1785.67940	         7.66312e+57
          1786.48570	         6.26785e+57
          1787.29200	         4.57813e+57
          1788.09830	         6.27954e+57
          1788.90460	         7.80314e+57
          1789.71090	         6.28070e+57
          1790.51720	         5.90256e+57
          1791.32350	         7.97276e+57
          1792.12980	         8.95032e+57
          1792.93610	         8.22909e+57
          1793.74240	         7.65965e+57
          1794.54870	         7.54284e+57
          1795.35500	         8.35248e+57
          1796.16130	         8.53208e+57
          1796.96760	         6.87077e+57
          1797.77390	         7.12943e+57
          1798.58020	         8.00634e+57
          1799.38650	         7.98244e+57
          1800.19280	         7.03622e+57
          1800.99910	         7.70921e+57
          1801.80540	         7.27791e+57
          1802.61170	         7.79400e+57
          1803.41800	         8.06311e+57
          1804.22430	         6.77026e+57
          1805.03060	         7.31907e+57
          1805.83690	         8.40568e+57
          1806.64320	         7.27118e+57
          1807.44950	         7.05903e+57
          1808.25580	         7.46310e+57
          1809.06210	         8.25389e+57
          1809.86840	         6.55877e+57
          1810.67470	         6.46820e+57
          1811.48100	         8.37480e+57
          1812.28730	         8.37106e+57
          1813.09360	         7.16934e+57
          1813.89990	         8.27871e+57
          1814.70620	         7.65416e+57
          1815.51250	         8.28293e+57
          1816.31880	         9.41778e+57
          1817.12510	         8.96595e+57
          1817.93140	         7.36070e+57
          1818.73770	         7.69641e+57
          1819.54400	         8.67627e+57
          1820.35030	         8.60923e+57
          1821.15660	         6.64518e+57
          1821.96290	         6.86466e+57
          1822.76920	         6.64131e+57
          1823.57550	         7.11252e+57
          1824.38180	         7.07694e+57
          1825.18810	         8.33061e+57
          1825.99440	         9.17329e+57
          1826.80070	         8.16019e+57
          1827.60700	         7.53568e+57
          1828.41330	         6.89567e+57
          1829.21960	         6.31738e+57
          1830.02590	         6.67919e+57
          1830.83220	         8.48918e+57
          1831.63850	         7.87780e+57
          1832.44480	         6.37093e+57
          1833.25110	         7.58816e+57
          1834.05740	         9.16668e+57
          1834.86370	         7.32986e+57
          1835.67000	         5.78019e+57
          1836.47630	         7.02180e+57
          1837.28260	         8.08591e+57
          1838.08890	         8.95740e+57
          1838.89520	         8.62175e+57
          1839.70150	         7.68310e+57
          1840.50780	         7.33248e+57
          1841.31410	         7.25986e+57
          1842.12040	         6.67528e+57
          1842.92670	         7.23779e+57
          1843.73300	         6.67869e+57
          1844.53930	         6.55407e+57
          1845.34560	         7.49539e+57
          1846.15190	         7.77658e+57
          1846.95820	         7.71934e+57
          1847.76450	         7.03183e+57
          1848.57080	         5.59913e+57
          1849.37710	         4.97969e+57
          1850.18340	         5.99418e+57
          1850.98970	         7.82813e+57
          1851.79600	         8.60306e+57
          1852.60230	         7.47570e+57
          1853.40860	         6.59979e+57
          1854.21490	         5.83529e+57
          1855.02120	         6.49666e+57
          1855.82750	         4.85424e+57
          1856.63380	         5.46202e+57
          1857.44010	         6.44918e+57
          1858.24640	         6.89122e+57
          1859.05270	         7.23971e+57
          1859.85900	         5.88700e+57
          1860.66530	         5.72271e+57
          1861.47160	         7.90838e+57
          1862.27790	         8.05655e+57
          1863.08420	         7.80591e+57
          1863.89050	         7.85619e+57
          1864.69680	         7.83038e+57
          1865.50310	         8.06533e+57
          1866.30940	         6.93251e+57
          1867.11570	         6.69981e+57
          1867.92200	         7.57110e+57
          1868.72830	         7.79829e+57
          1869.53460	         7.61191e+57
          1870.34090	         7.79671e+57
          1871.14720	         8.59572e+57
          1871.95350	         7.80385e+57
          1872.75980	         7.67832e+57
          1873.56610	         6.86900e+57
          1874.37240	         5.76663e+57
          1875.17870	         5.58186e+57
          1875.98500	         7.37752e+57
          1876.79130	         7.99706e+57
          1877.59760	         7.22803e+57
          1878.40390	         6.33542e+57
          1879.21020	         5.43710e+57
          1880.01650	         6.61839e+57
          1880.82280	         8.10436e+57
          1881.62910	         8.83691e+57
          1882.43540	         9.22741e+57
          1883.24170	         8.26678e+57
          1884.04800	         7.07552e+57
          1884.85430	         7.63816e+57
          1885.66060	         7.53684e+57
          1886.46690	         7.85217e+57
          1887.27320	         7.14270e+57
          1888.07950	         6.47668e+57
          1888.88580	         6.66005e+57
          1889.69210	         8.33567e+57
          1890.49840	         7.73637e+57
          1891.30470	         7.68016e+57
          1892.11100	         8.30778e+57
          1892.91730	         8.45509e+57
          1893.72360	         7.77410e+57
          1894.52990	         7.67370e+57
          1895.33620	         7.68601e+57
          1896.14250	         6.75404e+57
          1896.94880	         5.85170e+57
          1897.75510	         5.55857e+57
          1898.56140	         7.53135e+57
          1899.36770	         7.71520e+57
          1900.17400	         5.68709e+57
          1900.98030	         5.90102e+57
          1901.78660	         7.16208e+57
          1902.59290	         7.85120e+57
          1903.39920	         8.90794e+57
          1904.20550	         8.66832e+57
          1905.01180	         8.19581e+57
          1905.81810	         9.75042e+57
          1906.62440	         1.25553e+58
          1907.43070	         1.53989e+58
          1908.23700	         1.54291e+58
          1909.04330	         1.29654e+58
          1909.84960	         1.20267e+58
          1910.65590	         1.09194e+58
          1911.46220	         1.04028e+58
          1912.26850	         8.48151e+57
          1913.07480	         6.42120e+57
          1913.88110	         5.73081e+57
          1914.68740	         5.48760e+57
          1915.49370	         5.36620e+57
          1916.30000	         6.02293e+57
          1917.10630	         6.82172e+57
          1917.91260	         7.46413e+57
          1918.71890	         7.15064e+57
          1919.52520	         6.67927e+57
          1920.33150	         6.21911e+57
          1921.13780	         7.17097e+57
          1921.94410	         7.46591e+57
          1922.75040	         7.85274e+57
          1923.55670	         7.77441e+57
          1924.36300	         6.69632e+57
          1925.16930	         5.47606e+57
          1925.97560	         4.83882e+57
          1926.78190	         4.03292e+57
          1927.58820	         5.60644e+57
          1928.39450	         6.66394e+57
          1929.20080	         5.21872e+57
          1930.00710	         6.55446e+57
          1930.81340	         7.03762e+57
          1931.61970	         6.20561e+57
          1932.42600	         6.53550e+57
          1933.23230	         7.74351e+57
          1934.03860	         6.27154e+57
          1934.84490	         5.91413e+57
          1935.65120	         8.20528e+57
          1936.45750	         9.05456e+57
          1937.26380	         7.33989e+57
          1938.07010	         6.45741e+57
          1938.87640	         6.20395e+57
          1939.68270	         8.32405e+57
          1940.48900	         8.70780e+57
          1941.29530	         8.89023e+57
          1942.10160	         8.16969e+57
          1942.90790	         7.66796e+57
          1943.71420	         6.60727e+57
          1944.52050	         5.95513e+57
          1945.32680	         6.18578e+57
          1946.13310	         6.92141e+57
          1946.93940	         8.23005e+57
          1947.74570	         6.82968e+57
          1948.55200	         6.56805e+57
          1949.35830	         6.03054e+57
          1950.16460	         5.82916e+57
          1950.97090	         6.29337e+57
          1951.77720	         7.34299e+57
          1952.58350	         7.73620e+57
          1953.38980	         6.69826e+57
          1954.19610	         4.96792e+57
          1955.00240	         5.86603e+57
          1955.80870	         6.12328e+57
          1956.61500	         7.23560e+57
          1957.42130	         6.77441e+57
          1958.22760	         7.23696e+57
          1959.03390	         7.31713e+57
          1959.84020	         7.00341e+57
          1960.64650	         7.10921e+57
          1961.45280	         6.81624e+57
          1962.25910	         5.53734e+57
          1963.06540	         6.12728e+57
          1963.87170	         6.09889e+57
          1964.67800	         6.33284e+57
          1965.48430	         5.96024e+57
          1966.29060	         5.65878e+57
          1967.09690	         7.99280e+57
          1967.90320	         7.23503e+57
          1968.70950	         7.06675e+57
          1969.51580	         7.18087e+57
          1970.32210	         7.49204e+57
          1971.12840	         7.22806e+57
          1971.93470	         4.44981e+57
          1972.74100	         4.92282e+57
          1973.54730	         6.83242e+57
          1974.35360	         7.17914e+57
          1975.15990	         7.44629e+57
          1975.96620	         7.62678e+57
          1976.77250	         8.28310e+57
          1977.57880	         7.01770e+57
          1978.38510	         6.38721e+57
          1979.19140	         6.74947e+57
          1979.99770	         6.57406e+57
          1980.80400	         5.95104e+57
          1981.61030	         5.99619e+57
          1982.41660	         5.56236e+57
          1983.22290	         6.16866e+57
          1984.02920	         5.41612e+57
          1984.83550	         5.89702e+57
          1985.64180	         6.75376e+57
          1986.44810	         6.73270e+57
          1987.25440	         5.75729e+57
          1988.06070	         5.41472e+57
          1988.86700	         6.67847e+57
          1989.67330	         7.14444e+57
          1990.47960	         6.21772e+57
          1991.28590	         6.79582e+57
          1992.09220	         5.84967e+57
          1992.89850	         6.74773e+57
          1993.70480	         6.16326e+57
          1994.51110	         5.09835e+57
          1995.31740	         4.93667e+57
          1996.12370	         5.22089e+57
          1996.93000	         6.49060e+57
          1997.73630	         8.70661e+57
          1998.54260	         8.26179e+57
          1999.34890	         7.62971e+57
          2000.15520	         6.57165e+57
          2000.96150	         6.45012e+57
          2001.76780	         6.09574e+57
          2002.57410	         5.30756e+57
          2003.38040	         6.76494e+57
          2004.18670	         6.29425e+57
          2004.99300	         6.55204e+57
          2005.79930	         6.45627e+57
          2006.60560	         5.59542e+57
          2007.41190	         5.42796e+57
          2008.21820	         6.81514e+57
          2009.02450	         7.09944e+57
          2009.83080	         5.85247e+57
          2010.63710	         6.26894e+57
          2011.44340	         7.14986e+57
          2012.24970	         7.77284e+57
          2013.05600	         6.52520e+57
          2013.86230	         6.51431e+57
          2014.66860	         5.01042e+57
          2015.47490	         6.02528e+57
          2016.28120	         6.52351e+57
          2017.08750	         6.70673e+57
          2017.89380	         7.56654e+57
          2018.70010	         6.08333e+57
          2019.50640	         5.67861e+57
          2020.31270	         6.78042e+57
          2021.11900	         7.63158e+57
          2021.92530	         7.64403e+57
          2022.73160	         7.50212e+57
          2023.53790	         7.64870e+57
          2024.34420	         8.04291e+57
          2025.15050	         5.92237e+57
          2025.95680	         6.10508e+57
          2026.76310	         5.13813e+57
          2027.56940	         6.08001e+57
          2028.37570	         5.94544e+57
          2029.18200	         6.33205e+57
          2029.98830	         7.70060e+57
          2030.79460	         7.35085e+57
          2031.60090	         6.37902e+57
          2032.40720	         5.51442e+57
          2033.21350	         5.18865e+57
          2034.01980	         4.16032e+57
          2034.82610	         4.50976e+57
          2035.63240	         5.78882e+57
          2036.43870	         5.48149e+57
          2037.24500	         5.73028e+57
          2038.05130	         6.95653e+57
          2038.85760	         5.82488e+57
          2039.66390	         6.43313e+57
          2040.47020	         6.61796e+57
          2041.27650	         8.22201e+57
          2042.08280	         6.21742e+57
          2042.88910	         6.67644e+57
          2043.69540	         6.81292e+57
          2044.50170	         4.48357e+57
          2045.30800	         3.56182e+57
          2046.11430	         3.37697e+57
          2046.92060	         6.07742e+57
          2047.72690	         5.99428e+57
          2048.53320	         5.32824e+57
          2049.33950	         4.70814e+57
          2050.14580	         5.27006e+57
          2050.95210	         6.64720e+57
          2051.75840	         6.27390e+57
          2052.56470	         5.12391e+57
          2053.37100	         4.37192e+57
          2054.17730	         4.57238e+57
          2054.98360	         5.30403e+57
          2055.78990	         4.01785e+57
          2056.59620	         4.66026e+57
          2057.40250	         6.14927e+57
          2058.20880	         6.51398e+57
          2059.01510	         5.80838e+57
          2059.82140	         6.82986e+57
          2060.62770	         9.91267e+57
          2061.43400	         1.57074e+58
          2062.24030	         9.91812e+57
          2063.04660	         4.22071e+57
          2063.85290	         2.86518e+57
          2064.65920	        -5.43255e+57
          2065.46550	        -8.85433e+57
          2066.27180	        -8.41700e+57
          2067.07810	         2.36954e+57
          2067.88440	         4.32444e+57
          2068.69070	         5.09326e+57
          2069.49700	         4.60757e+57
          2070.30330	         3.41314e+57
          2071.10960	         5.99535e+57
          2071.91590	         5.68179e+57
          2072.72220	         3.41512e+57
          2073.52850	         5.84864e+57
          2074.33480	         5.88915e+57
          2075.14110	         5.63801e+57
          2075.94740	         4.80943e+57
          2076.75370	         3.08712e+57
          2077.56000	         4.07076e+57
          2078.36630	         4.26159e+57
          2079.17260	         5.72899e+57
          2079.97890	         6.75984e+57
          2080.78520	         5.79450e+57
          2081.59150	         4.16327e+57
          2082.39780	         4.57777e+57
          2083.20410	         3.55408e+57
          2084.01040	         2.18154e+57
          2084.81670	         2.09332e+57
          2085.62300	         2.33728e+57
          2086.42930	         3.20958e+57
          2087.23560	         3.88311e+57
          2088.04190	         3.71097e+57
          2088.84820	         3.77512e+57
          2089.65450	         3.50456e+57
          2090.46080	         1.65633e+57
          2091.26710	         2.36602e+56
          2092.07340	         1.73591e+57
          2092.87970	         2.83725e+57
          2093.68600	        -8.76380e+56
          2094.49230	        -1.33601e+57
          2095.29860	         3.33551e+57
          2096.10490	         3.58976e+57
          2096.91120	         2.19718e+57
          2097.71750	         2.28922e+56
          2098.52380	         3.08590e+56
          2099.33010	         4.58251e+56
          2100.13640	         1.56998e+57
          2100.94270	         3.00752e+57
          2101.74900	         4.29925e+57
          2102.55530	         1.31351e+57
          2103.36160	         1.49485e+57
          2104.16790	         2.64621e+57
          2104.97420	         8.43610e+56
          2105.78050	         2.22760e+57
          2106.58680	         5.63199e+57
          2107.39310	         1.98513e+57
          2108.19940	        -1.45927e+56
          2109.00570	        -4.44242e+56
          2109.81200	         8.37238e+56
          2110.61830	         2.50104e+57
          2111.42460	         3.23443e+56
          2112.23090	        -4.87978e+56
          2113.03720	        -2.37200e+57
          2113.84350	        -1.58535e+56
          2114.64980	         9.18049e+57
          2115.45610	        -2.65705e+56
          2116.26240	        -1.16655e+57
          2117.06870	        -2.91980e+57
          2117.87500	        -1.61399e+56
          2118.68130	         1.26006e+57
          2119.48760	        -1.19939e+56
          2120.29390	         5.05610e+56
          2121.10020	        -3.29322e+57
          2121.90650	         8.30999e+56
          2122.71280	         4.11083e+57
          2123.51910	         4.37637e+57
          2124.32540	        -2.17248e+57
          2125.13170	        -1.03118e+57
          2125.93800	         5.18299e+57
          2126.74430	        -1.03379e+57
          2127.55060	        -3.18346e+57
          2128.35690	        -4.09323e+57
          2129.16320	        -7.38365e+56
          2129.96950	        -6.78230e+57
          2130.77580	        -1.69619e+57
          2131.58210	         2.26788e+57
          2132.38840	         1.81342e+57
          2133.19470	         2.14142e+57
          2134.00100	         1.45989e+57
          2134.80730	        -5.38407e+57
          2135.61360	         4.89990e+56
          2136.41990	        -2.92478e+57
          2137.22620	         4.98682e+57
          2138.03250	        -6.73045e+56
          2138.83880	         1.58804e+57
          2139.64510	         7.14523e+56
          2140.45140	        -8.78277e+56
          2141.25770	        -1.30014e+58
          2142.06400	        -5.84256e+57
          2142.87030	        -1.75882e+57
          2143.67660	        -1.55697e+57
          2144.48290	        -3.49919e+57
          2145.28920	         1.29234e+58
          2146.09550	        -6.08524e+56
          2146.90180	        -8.02707e+57
          2147.70810	        -9.62222e+57
          2148.51440	        -1.37813e+58
          2149.32070	        -6.08349e+57
          2150.12700	        -1.73585e+57
          2150.93330	        -4.27005e+57
          2151.73960	        -2.58157e+57
          2152.54590	        -2.15742e+57
          2153.35220	        -3.14702e+57
          2154.15850	        -4.34099e+57
          2154.96480	         4.41755e+57
          2155.77110	         2.64540e+57
          2156.57740	        -1.05412e+58
          2157.38370	         1.08098e+56
          2158.19000	        -8.40431e+56
          2158.99630	         3.30541e+57
          2159.80260	        -8.68793e+57
          2160.60890	        -1.79997e+58
          2161.41520	        -3.50747e+57
          2162.22150	        -2.64528e+57
          2163.02780	        -5.39222e+57
          2163.83410	        -8.03839e+57
          2164.64040	        -5.09267e+57
          2165.44670	        -7.53755e+57
          2166.25300	        -8.34476e+57
          2167.05930	        -7.05607e+57
          2167.86560	        -2.37731e+57
          2168.67190	         3.33813e+56
          2169.47820	        -8.37997e+57
          2170.28450	        -3.39809e+57
          2171.09080	        -1.94142e+57
          2171.89710	        -2.80949e+57
          2172.70340	         2.85755e+57
          2173.50970	        -5.97980e+57
          2174.31600	        -2.25391e+57
          2175.12230	        -1.10029e+57
          2175.92860	        -4.41430e+57
          2176.73490	        -1.27737e+57
          2177.54120	        -8.81475e+57
          2178.34750	        -3.96842e+57
          2179.15380	                 nan
          2179.96010	                 nan
          2180.76640	                 nan
          2181.57270	                 nan
          2182.37900	                 nan
          2183.18530	                 nan
          2183.99160	                 nan
          2184.79790	                 nan
          2185.60420	                 nan
          2186.41050	                 nan
          2187.21680	                 nan
          2188.02310	                 nan
          2188.82940	                 nan
          2189.63570	                 nan
          2190.44200	                 nan
          2191.24830	                 nan
          2192.05460	                 nan
          2192.86090	                 nan
          2193.66720	                 nan
          2194.47350	                 nan
          2195.27980	                 nan
          2196.08610	                 nan
          2196.89240	                 nan
          2197.69870	                 nan
          2198.50500	                 nan
          2199.31130	                 nan
          2200.11760	                 nan
          2200.92390	                 nan
          2201.73020	                 nan
          2202.53650	                 nan
          2203.34280	                 nan
          2204.14910	                 nan
          2204.95540	                 nan
          2205.76170	                 nan
          2206.56800	                 nan
          2207.37430	                 nan
          2208.18060	                 nan
          2208.98690	                 nan
          2209.79320	                 nan
          2210.59950	                 nan
          2211.40580	                 nan
          2212.21210	                 nan
          2213.01840	                 nan
          2213.82470	                 nan
          2214.63100	                 nan
          2215.43730	         0.00000e+00
