#sample_338_stacked_spectrum_rest_UV-bands_median_H-alpha_noDC.txt
#median Lum: 1.68465e+42
#Rest-frame wavelength (A) | Luminosity (erg/s/A)
#
          1110.00000	         0.00000e+00
          1110.80630	        -1.70330e+58
          1111.61260	         9.41186e+57
          1112.41890	        -1.74820e+59
          1113.22520	         4.50571e+58
          1114.03150	        -8.44800e+58
          1114.83780	        -1.07048e+59
          1115.64410	         9.62446e+57
          1116.45040	         1.93150e+59
          1117.25670	         1.00580e+59
          1118.06300	         1.89201e+59
          1118.86930	         5.44880e+57
          1119.67560	         1.43633e+59
          1120.48190	         5.01282e+58
          1121.28820	        -7.47574e+58
          1122.09450	         6.28307e+56
          1122.90080	         3.38052e+58
          1123.70710	         5.77711e+58
          1124.51340	         9.92849e+58
          1125.31970	         2.64890e+58
          1126.12600	         7.72711e+57
          1126.93230	        -8.38143e+57
          1127.73860	        -6.28336e+58
          1128.54490	        -1.27050e+58
          1129.35120	        -2.03128e+58
          1130.15750	        -4.99589e+58
          1130.96380	        -4.58584e+58
          1131.77010	         5.73136e+58
          1132.57640	         6.07684e+58
          1133.38270	         3.43472e+58
          1134.18900	         3.48982e+58
          1134.99530	         6.30608e+57
          1135.80160	        -3.46029e+57
          1136.60790	         1.19056e+58
          1137.41420	        -3.91334e+57
          1138.22050	         3.44182e+58
          1139.02680	         4.09287e+58
          1139.83310	         2.72032e+58
          1140.63940	         1.30125e+58
          1141.44570	        -1.16502e+58
          1142.25200	        -4.05455e+57
          1143.05830	         9.62746e+57
          1143.86460	         5.80187e+57
          1144.67090	         1.62859e+58
          1145.47720	         2.48519e+58
          1146.28350	         1.83895e+58
          1147.08980	         1.06275e+58
          1147.89610	         2.21608e+58
          1148.70240	         2.83092e+58
          1149.50870	         2.27311e+58
          1150.31500	         1.15185e+58
          1151.12130	         1.61338e+58
          1151.92760	        -4.16830e+57
          1152.73390	        -2.53098e+56
          1153.54020	         5.48317e+57
          1154.34650	         2.54009e+58
          1155.15280	         2.40330e+58
          1155.95910	         8.05257e+57
          1156.76540	         1.08645e+58
          1157.57170	         4.87779e+57
          1158.37800	         6.68326e+57
          1159.18430	         1.00213e+57
          1159.99060	        -6.05799e+57
          1160.79690	         5.16966e+57
          1161.60320	         1.17128e+58
          1162.40950	         1.56641e+58
          1163.21580	         3.18204e+57
          1164.02210	         5.04378e+57
          1164.82840	         3.29138e+57
          1165.63470	         2.51396e+58
          1166.44100	         3.34692e+58
          1167.24730	         1.99758e+58
          1168.05360	         8.91991e+57
          1168.85990	         7.20428e+56
          1169.66620	         6.66128e+57
          1170.47250	         1.59681e+58
          1171.27880	         6.93593e+57
          1172.08510	         1.22512e+58
          1172.89140	         1.65935e+58
          1173.69770	        -2.55782e+57
          1174.50400	         1.01592e+58
          1175.31030	         1.74081e+58
          1176.11660	         1.66623e+58
          1176.92290	         1.52535e+58
          1177.72920	         1.40943e+58
          1178.53550	         8.21471e+57
          1179.34180	         5.38186e+57
          1180.14810	         1.21115e+58
          1180.95440	         1.33221e+58
          1181.76070	         9.59629e+57
          1182.56700	         1.01527e+58
          1183.37330	         7.10681e+57
          1184.17960	         1.05976e+58
          1184.98590	         9.32927e+57
          1185.79220	         6.29333e+57
          1186.59850	         8.15956e+57
          1187.40480	         3.95081e+57
          1188.21110	         1.43702e+58
          1189.01740	         1.17964e+58
          1189.82370	         9.66217e+57
          1190.63000	         1.51683e+58
          1191.43630	         1.67669e+58
          1192.24260	         8.53964e+57
          1193.04890	         6.73441e+57
          1193.85520	         6.89947e+57
          1194.66150	         6.20952e+57
          1195.46780	         9.36482e+57
          1196.27410	         1.25505e+58
          1197.08040	         1.29168e+58
          1197.88670	         1.58008e+58
          1198.69300	         1.26511e+58
          1199.49930	         1.87944e+58
          1200.30560	         1.86814e+58
          1201.11190	         1.34140e+58
          1201.91820	         1.31862e+58
          1202.72450	         7.49900e+57
          1203.53080	         8.80251e+57
          1204.33710	         9.75706e+57
          1205.14340	         8.17569e+57
          1205.94970	         1.04933e+58
          1206.75600	         6.46760e+57
          1207.56230	         4.96353e+57
          1208.36860	         1.31000e+58
          1209.17490	         5.96662e+57
          1209.98120	         5.13944e+57
          1210.78750	         7.99592e+57
          1211.59380	         1.05496e+58
          1212.40010	         1.82513e+58
          1213.20640	         2.08935e+58
          1214.01270	         2.06579e+58
          1214.81900	         2.30106e+58
          1215.62530	         4.32632e+58
          1216.43160	         9.39133e+58
          1217.23790	         1.55505e+59
          1218.04420	         1.15213e+59
          1218.85050	         8.48304e+58
          1219.65680	         5.25268e+58
          1220.46310	         3.14336e+58
          1221.26940	         2.32793e+58
          1222.07570	         1.42051e+58
          1222.88200	         1.16410e+58
          1223.68830	         8.26053e+57
          1224.49460	         6.94547e+57
          1225.30090	         7.23067e+57
          1226.10720	         6.18432e+57
          1226.91350	         8.40846e+57
          1227.71980	         1.09805e+58
          1228.52610	         1.06831e+58
          1229.33240	         8.83140e+57
          1230.13870	         1.07596e+58
          1230.94500	         1.10864e+58
          1231.75130	         4.70965e+57
          1232.55760	         5.63319e+57
          1233.36390	         9.17254e+57
          1234.17020	         9.47874e+57
          1234.97650	         7.90182e+57
          1235.78280	         8.19916e+57
          1236.58910	         7.57457e+57
          1237.39540	         8.12285e+57
          1238.20170	         9.88027e+57
          1239.00800	         1.31179e+58
          1239.81430	         1.57617e+58
          1240.62060	         1.30446e+58
          1241.42690	         1.20291e+58
          1242.23320	         1.21250e+58
          1243.03950	         8.16421e+57
          1243.84580	         1.05939e+58
          1244.65210	         1.24624e+58
          1245.45840	         1.08598e+58
          1246.26470	         8.25774e+57
          1247.07100	         6.44926e+57
          1247.87730	         7.55768e+57
          1248.68360	         7.45358e+57
          1249.48990	         8.02971e+57
          1250.29620	         1.16031e+58
          1251.10250	         9.56964e+57
          1251.90880	         6.44020e+57
          1252.71510	         8.45808e+57
          1253.52140	         8.02461e+57
          1254.32770	         1.02333e+58
          1255.13400	         1.46654e+58
          1255.94030	         1.15695e+58
          1256.74660	         9.57941e+57
          1257.55290	         8.53982e+57
          1258.35920	         6.27477e+57
          1259.16550	         6.35439e+57
          1259.97180	         8.13438e+57
          1260.77810	         1.06108e+58
          1261.58440	         1.36287e+58
          1262.39070	         1.09648e+58
          1263.19700	         7.96972e+57
          1264.00330	         8.40443e+57
          1264.80960	         9.61455e+57
          1265.61590	         1.20853e+58
          1266.42220	         1.06949e+58
          1267.22850	         9.53973e+57
          1268.03480	         1.38900e+58
          1268.84110	         1.40107e+58
          1269.64740	         1.22686e+58
          1270.45370	         1.21663e+58
          1271.26000	         1.08458e+58
          1272.06630	         1.22421e+58
          1272.87260	         1.20754e+58
          1273.67890	         1.19144e+58
          1274.48520	         1.18292e+58
          1275.29150	         1.15266e+58
          1276.09780	         1.03161e+58
          1276.90410	         1.40749e+58
          1277.71040	         1.39399e+58
          1278.51670	         1.24981e+58
          1279.32300	         1.24601e+58
          1280.12930	         1.16089e+58
          1280.93560	         1.26707e+58
          1281.74190	         1.24305e+58
          1282.54820	         1.18229e+58
          1283.35450	         9.94151e+57
          1284.16080	         1.03115e+58
          1284.96710	         1.28102e+58
          1285.77340	         1.10590e+58
          1286.57970	         1.00024e+58
          1287.38600	         1.51972e+58
          1288.19230	         1.79150e+58
          1288.99860	         1.54974e+58
          1289.80490	         9.83115e+57
          1290.61120	         1.12162e+58
          1291.41750	         1.30183e+58
          1292.22380	         1.17294e+58
          1293.03010	         1.14751e+58
          1293.83640	         1.15336e+58
          1294.64270	         1.03480e+58
          1295.44900	         7.55379e+57
          1296.25530	         7.67163e+57
          1297.06160	         1.04888e+58
          1297.86790	         1.02106e+58
          1298.67420	         8.50538e+57
          1299.48050	         8.88463e+57
          1300.28680	         1.09264e+58
          1301.09310	         9.14758e+57
          1301.89940	         3.99169e+57
          1302.70570	         5.55355e+57
          1303.51200	         7.04692e+57
          1304.31830	         8.97349e+57
          1305.12460	         1.06485e+58
          1305.93090	         9.86442e+57
          1306.73720	         1.19963e+58
          1307.54350	         1.40012e+58
          1308.34980	         1.47586e+58
          1309.15610	         1.55425e+58
          1309.96240	         1.42222e+58
          1310.76870	         1.15508e+58
          1311.57500	         1.12115e+58
          1312.38130	         8.85197e+57
          1313.18760	         1.12044e+58
          1313.99390	         1.52279e+58
          1314.80020	         1.55918e+58
          1315.60650	         1.53490e+58
          1316.41280	         1.27868e+58
          1317.21910	         1.07519e+58
          1318.02540	         1.03054e+58
          1318.83170	         1.23855e+58
          1319.63800	         1.19673e+58
          1320.44430	         9.62978e+57
          1321.25060	         1.24844e+58
          1322.05690	         1.35477e+58
          1322.86320	         1.14003e+58
          1323.66950	         1.00073e+58
          1324.47580	         8.89875e+57
          1325.28210	         8.91400e+57
          1326.08840	         1.11987e+58
          1326.89470	         1.36119e+58
          1327.70100	         1.04806e+58
          1328.50730	         9.22673e+57
          1329.31360	         9.67741e+57
          1330.11990	         9.29049e+57
          1330.92620	         8.14055e+57
          1331.73250	         1.01540e+58
          1332.53880	         1.07315e+58
          1333.34510	         1.05506e+58
          1334.15140	         1.02199e+58
          1334.95770	         1.01079e+58
          1335.76400	         1.13221e+58
          1336.57030	         1.14550e+58
          1337.37660	         1.04535e+58
          1338.18290	         1.01474e+58
          1338.98920	         1.23528e+58
          1339.79550	         1.12653e+58
          1340.60180	         1.05962e+58
          1341.40810	         1.21048e+58
          1342.21440	         1.16997e+58
          1343.02070	         1.31339e+58
          1343.82700	         1.47635e+58
          1344.63330	         1.22378e+58
          1345.43960	         1.18573e+58
          1346.24590	         1.10757e+58
          1347.05220	         1.06988e+58
          1347.85850	         1.12336e+58
          1348.66480	         1.04762e+58
          1349.47110	         1.08669e+58
          1350.27740	         1.10629e+58
          1351.08370	         1.12028e+58
          1351.89000	         1.15567e+58
          1352.69630	         1.07412e+58
          1353.50260	         1.10861e+58
          1354.30890	         1.23308e+58
          1355.11520	         1.27241e+58
          1355.92150	         1.06558e+58
          1356.72780	         1.02938e+58
          1357.53410	         1.17158e+58
          1358.34040	         1.14563e+58
          1359.14670	         1.07870e+58
          1359.95300	         1.08554e+58
          1360.75930	         1.12876e+58
          1361.56560	         1.10212e+58
          1362.37190	         1.10415e+58
          1363.17820	         1.10575e+58
          1363.98450	         1.21063e+58
          1364.79080	         1.21827e+58
          1365.59710	         1.24307e+58
          1366.40340	         1.18543e+58
          1367.20970	         9.97356e+57
          1368.01600	         9.51102e+57
          1368.82230	         1.04693e+58
          1369.62860	         1.11421e+58
          1370.43490	         9.51218e+57
          1371.24120	         9.05100e+57
          1372.04750	         8.77345e+57
          1372.85380	         1.00519e+58
          1373.66010	         1.09354e+58
          1374.46640	         1.19225e+58
          1375.27270	         1.12803e+58
          1376.07900	         9.65855e+57
          1376.88530	         9.71998e+57
          1377.69160	         1.04554e+58
          1378.49790	         7.68615e+57
          1379.30420	         5.95179e+57
          1380.11050	         8.21591e+57
          1380.91680	         8.84463e+57
          1381.72310	         7.51839e+57
          1382.52940	         8.07469e+57
          1383.33570	         1.06406e+58
          1384.14200	         1.03361e+58
          1384.94830	         9.39625e+57
          1385.75460	         9.99080e+57
          1386.56090	         1.04299e+58
          1387.36720	         9.72290e+57
          1388.17350	         1.21028e+58
          1388.97980	         1.12365e+58
          1389.78610	         9.09721e+57
          1390.59240	         8.62293e+57
          1391.39870	         7.57113e+57
          1392.20500	         8.77901e+57
          1393.01130	         7.34915e+57
          1393.81760	         6.33525e+57
          1394.62390	         7.11396e+57
          1395.43020	         6.82477e+57
          1396.23650	         6.97059e+57
          1397.04280	         6.84337e+57
          1397.84910	         8.33642e+57
          1398.65540	         8.42354e+57
          1399.46170	         9.71436e+57
          1400.26800	         8.18066e+57
          1401.07430	         5.99523e+57
          1401.88060	         7.74619e+57
          1402.68690	         8.41322e+57
          1403.49320	         7.32680e+57
          1404.29950	         8.78447e+57
          1405.10580	         1.03555e+58
          1405.91210	         1.11483e+58
          1406.71840	         1.24382e+58
          1407.52470	         1.18758e+58
          1408.33100	         1.07218e+58
          1409.13730	         1.08307e+58
          1409.94360	         1.23161e+58
          1410.74990	         1.20972e+58
          1411.55620	         1.05875e+58
          1412.36250	         9.51472e+57
          1413.16880	         1.00996e+58
          1413.97510	         9.17225e+57
          1414.78140	         8.40134e+57
          1415.58770	         9.67074e+57
          1416.39400	         9.79651e+57
          1417.20030	         9.41633e+57
          1418.00660	         8.72381e+57
          1418.81290	         8.97018e+57
          1419.61920	         8.65769e+57
          1420.42550	         1.04507e+58
          1421.23180	         1.31528e+58
          1422.03810	         1.19845e+58
          1422.84440	         1.14496e+58
          1423.65070	         1.28204e+58
          1424.45700	         1.05928e+58
          1425.26330	         8.89173e+57
          1426.06960	         8.94427e+57
          1426.87590	         1.07051e+58
          1427.68220	         1.08970e+58
          1428.48850	         1.13007e+58
          1429.29480	         1.10922e+58
          1430.10110	         1.10351e+58
          1430.90740	         8.55430e+57
          1431.71370	         8.96507e+57
          1432.52000	         9.14580e+57
          1433.32630	         8.63193e+57
          1434.13260	         7.36008e+57
          1434.93890	         7.11005e+57
          1435.74520	         9.03459e+57
          1436.55150	         9.29067e+57
          1437.35780	         9.28383e+57
          1438.16410	         9.24827e+57
          1438.97040	         8.57903e+57
          1439.77670	         8.35365e+57
          1440.58300	         8.84478e+57
          1441.38930	         9.02610e+57
          1442.19560	         9.58943e+57
          1443.00190	         1.00540e+58
          1443.80820	         1.04878e+58
          1444.61450	         9.77787e+57
          1445.42080	         8.78497e+57
          1446.22710	         1.08161e+58
          1447.03340	         1.00232e+58
          1447.83970	         9.18828e+57
          1448.64600	         1.03560e+58
          1449.45230	         9.76518e+57
          1450.25860	         9.74886e+57
          1451.06490	         9.52314e+57
          1451.87120	         7.88054e+57
          1452.67750	         7.06507e+57
          1453.48380	         7.64528e+57
          1454.29010	         8.02185e+57
          1455.09640	         7.46806e+57
          1455.90270	         7.63890e+57
          1456.70900	         8.18362e+57
          1457.51530	         9.42957e+57
          1458.32160	         1.06878e+58
          1459.12790	         1.12237e+58
          1459.93420	         1.04021e+58
          1460.74050	         9.28293e+57
          1461.54680	         9.41237e+57
          1462.35310	         8.35890e+57
          1463.15940	         8.75937e+57
          1463.96570	         1.01275e+58
          1464.77200	         1.16050e+58
          1465.57830	         1.15396e+58
          1466.38460	         9.35824e+57
          1467.19090	         8.63670e+57
          1467.99720	         8.81463e+57
          1468.80350	         9.88936e+57
          1469.60980	         1.04861e+58
          1470.41610	         1.02729e+58
          1471.22240	         8.97750e+57
          1472.02870	         9.07370e+57
          1472.83500	         9.58691e+57
          1473.64130	         9.23539e+57
          1474.44760	         9.44191e+57
          1475.25390	         9.86225e+57
          1476.06020	         8.55926e+57
          1476.86650	         8.09332e+57
          1477.67280	         8.13207e+57
          1478.47910	         8.31120e+57
          1479.28540	         7.92437e+57
          1480.09170	         7.36154e+57
          1480.89800	         7.03225e+57
          1481.70430	         8.12688e+57
          1482.51060	         8.21082e+57
          1483.31690	         7.98970e+57
          1484.12320	         8.01347e+57
          1484.92950	         7.12256e+57
          1485.73580	         7.79623e+57
          1486.54210	         8.52468e+57
          1487.34840	         6.95701e+57
          1488.15470	         6.88126e+57
          1488.96100	         8.53934e+57
          1489.76730	         9.71987e+57
          1490.57360	         9.01067e+57
          1491.37990	         7.71194e+57
          1492.18620	         8.02348e+57
          1492.99250	         8.76911e+57
          1493.79880	         8.63335e+57
          1494.60510	         7.96385e+57
          1495.41140	         7.05575e+57
          1496.21770	         8.91015e+57
          1497.02400	         1.20865e+58
          1497.83030	         9.24551e+57
          1498.63660	         6.87113e+57
          1499.44290	         6.36645e+57
          1500.24920	         6.54786e+57
          1501.05550	         6.41562e+57
          1501.86180	         8.10502e+57
          1502.66810	         9.61493e+57
          1503.47440	         9.90789e+57
          1504.28070	         8.49341e+57
          1505.08700	         9.54184e+57
          1505.89330	         8.62699e+57
          1506.69960	         7.69300e+57
          1507.50590	         8.06801e+57
          1508.31220	         7.97915e+57
          1509.11850	         8.88923e+57
          1509.92480	         9.46268e+57
          1510.73110	         9.79411e+57
          1511.53740	         8.18563e+57
          1512.34370	         7.13099e+57
          1513.15000	         8.92214e+57
          1513.95630	         1.09290e+58
          1514.76260	         1.03630e+58
          1515.56890	         8.42785e+57
          1516.37520	         7.91486e+57
          1517.18150	         7.72205e+57
          1517.98780	         7.87108e+57
          1518.79410	         7.35685e+57
          1519.60040	         8.27855e+57
          1520.40670	         1.01168e+58
          1521.21300	         9.57056e+57
          1522.01930	         7.88993e+57
          1522.82560	         9.10327e+57
          1523.63190	         9.87865e+57
          1524.43820	         7.01644e+57
          1525.24450	         5.54193e+57
          1526.05080	         6.27878e+57
          1526.85710	         6.46626e+57
          1527.66340	         7.13464e+57
          1528.46970	         8.47345e+57
          1529.27600	         7.60807e+57
          1530.08230	         7.27880e+57
          1530.88860	         7.62734e+57
          1531.69490	         8.22247e+57
          1532.50120	         8.95183e+57
          1533.30750	         1.03231e+58
          1534.11380	         1.00601e+58
          1534.92010	         9.08820e+57
          1535.72640	         9.26936e+57
          1536.53270	         9.13700e+57
          1537.33900	         8.90838e+57
          1538.14530	         9.03526e+57
          1538.95160	         8.50462e+57
          1539.75790	         8.84543e+57
          1540.56420	         8.49849e+57
          1541.37050	         7.82096e+57
          1542.17680	         7.19299e+57
          1542.98310	         6.56004e+57
          1543.78940	         7.41917e+57
          1544.59570	         7.75573e+57
          1545.40200	         7.68174e+57
          1546.20830	         8.69281e+57
          1547.01460	         1.09237e+58
          1547.82090	         1.06958e+58
          1548.62720	         1.22173e+58
          1549.43350	         1.21683e+58
          1550.23980	         1.08100e+58
          1551.04610	         1.29148e+58
          1551.85240	         1.27892e+58
          1552.65870	         1.15863e+58
          1553.46500	         1.07745e+58
          1554.27130	         1.04087e+58
          1555.07760	         9.89036e+57
          1555.88390	         8.94649e+57
          1556.69020	         9.03799e+57
          1557.49650	         9.13702e+57
          1558.30280	         8.48276e+57
          1559.10910	         8.45717e+57
          1559.91540	         8.84254e+57
          1560.72170	         8.09258e+57
          1561.52800	         7.66260e+57
          1562.33430	         8.02785e+57
          1563.14060	         7.15424e+57
          1563.94690	         6.95135e+57
          1564.75320	         8.38370e+57
          1565.55950	         7.65800e+57
          1566.36580	         8.53317e+57
          1567.17210	         9.87988e+57
          1567.97840	         9.81095e+57
          1568.78470	         8.89901e+57
          1569.59100	         9.19520e+57
          1570.39730	         8.67285e+57
          1571.20360	         7.70493e+57
          1572.00990	         7.42018e+57
          1572.81620	         8.64939e+57
          1573.62250	         1.03037e+58
          1574.42880	         9.61605e+57
          1575.23510	         7.87660e+57
          1576.04140	         8.66423e+57
          1576.84770	         8.67442e+57
          1577.65400	         7.63912e+57
          1578.46030	         8.63496e+57
          1579.26660	         9.96288e+57
          1580.07290	         9.72742e+57
          1580.87920	         7.91599e+57
          1581.68550	         7.32923e+57
          1582.49180	         7.84668e+57
          1583.29810	         8.11680e+57
          1584.10440	         9.35498e+57
          1584.91070	         8.42585e+57
          1585.71700	         8.04389e+57
          1586.52330	         8.54111e+57
          1587.32960	         8.89675e+57
          1588.13590	         9.42347e+57
          1588.94220	         8.34639e+57
          1589.74850	         8.33626e+57
          1590.55480	         8.72278e+57
          1591.36110	         7.57862e+57
          1592.16740	         7.89689e+57
          1592.97370	         8.74143e+57
          1593.78000	         8.89099e+57
          1594.58630	         9.45484e+57
          1595.39260	         8.61380e+57
          1596.19890	         8.77520e+57
          1597.00520	         1.01341e+58
          1597.81150	         8.46474e+57
          1598.61780	         6.37726e+57
          1599.42410	         6.67611e+57
          1600.23040	         7.37079e+57
          1601.03670	         7.39109e+57
          1601.84300	         6.61558e+57
          1602.64930	         7.90438e+57
          1603.45560	         8.66128e+57
          1604.26190	         8.61243e+57
          1605.06820	         8.36329e+57
          1605.87450	         7.65523e+57
          1606.68080	         7.47634e+57
          1607.48710	         6.07116e+57
          1608.29340	         5.99452e+57
          1609.09970	         6.89755e+57
          1609.90600	         6.86433e+57
          1610.71230	         6.90398e+57
          1611.51860	         7.33583e+57
          1612.32490	         7.41412e+57
          1613.13120	         8.35232e+57
          1613.93750	         7.30879e+57
          1614.74380	         7.38983e+57
          1615.55010	         8.10725e+57
          1616.35640	         8.58773e+57
          1617.16270	         9.06401e+57
          1617.96900	         9.99525e+57
          1618.77530	         9.50082e+57
          1619.58160	         8.28851e+57
          1620.38790	         7.02719e+57
          1621.19420	         8.15122e+57
          1622.00050	         8.73003e+57
          1622.80680	         8.29930e+57
          1623.61310	         8.41843e+57
          1624.41940	         8.89611e+57
          1625.22570	         9.00586e+57
          1626.03200	         9.20205e+57
          1626.83830	         7.55249e+57
          1627.64460	         5.98776e+57
          1628.45090	         6.15677e+57
          1629.25720	         8.89110e+57
          1630.06350	         9.47435e+57
          1630.86980	         6.50357e+57
          1631.67610	         7.75507e+57
          1632.48240	         8.15838e+57
          1633.28870	         8.70888e+57
          1634.09500	         1.04843e+58
          1634.90130	         1.22983e+58
          1635.70760	         9.48972e+57
          1636.51390	         7.14455e+57
          1637.32020	         7.87269e+57
          1638.12650	         1.02379e+58
          1638.93280	         1.00043e+58
          1639.73910	         9.97435e+57
          1640.54540	         1.05485e+58
          1641.35170	         8.44790e+57
          1642.15800	         8.25404e+57
          1642.96430	         7.75089e+57
          1643.77060	         8.04415e+57
          1644.57690	         8.68952e+57
          1645.38320	         9.11255e+57
          1646.18950	         7.50165e+57
          1646.99580	         7.98379e+57
          1647.80210	         8.62043e+57
          1648.60840	         8.26484e+57
          1649.41470	         7.84761e+57
          1650.22100	         6.88458e+57
          1651.02730	         6.53466e+57
          1651.83360	         6.88710e+57
          1652.63990	         7.72526e+57
          1653.44620	         8.81466e+57
          1654.25250	         7.93763e+57
          1655.05880	         7.35830e+57
          1655.86510	         8.22038e+57
          1656.67140	         7.70712e+57
          1657.47770	         7.73077e+57
          1658.28400	         8.48091e+57
          1659.09030	         7.97025e+57
          1659.89660	         8.80228e+57
          1660.70290	         1.07951e+58
          1661.50920	         1.00193e+58
          1662.31550	         8.25248e+57
          1663.12180	         8.10125e+57
          1663.92810	         9.32879e+57
          1664.73440	         1.12630e+58
          1665.54070	         1.23060e+58
          1666.34700	         1.23064e+58
          1667.15330	         1.10976e+58
          1667.95960	         9.08773e+57
          1668.76590	         7.51033e+57
          1669.57220	         6.75465e+57
          1670.37850	         7.67945e+57
          1671.18480	         8.21064e+57
          1671.99110	         7.73596e+57
          1672.79740	         6.50162e+57
          1673.60370	         6.35254e+57
          1674.41000	         7.59008e+57
          1675.21630	         6.97594e+57
          1676.02260	         6.08544e+57
          1676.82890	         6.90704e+57
          1677.63520	         6.72502e+57
          1678.44150	         8.39091e+57
          1679.24780	         8.71500e+57
          1680.05410	         7.98617e+57
          1680.86040	         6.85082e+57
          1681.66670	         7.84699e+57
          1682.47300	         8.39652e+57
          1683.27930	         8.58809e+57
          1684.08560	         9.00421e+57
          1684.89190	         8.12086e+57
          1685.69820	         6.20497e+57
          1686.50450	         6.39472e+57
          1687.31080	         7.11015e+57
          1688.11710	         8.24458e+57
          1688.92340	         6.96618e+57
          1689.72970	         5.76711e+57
          1690.53600	         6.92290e+57
          1691.34230	         6.77871e+57
          1692.14860	         7.83426e+57
          1692.95490	         7.14511e+57
          1693.76120	         7.34081e+57
          1694.56750	         7.04442e+57
          1695.37380	         8.00204e+57
          1696.18010	         8.55675e+57
          1696.98640	         8.90191e+57
          1697.79270	         8.43328e+57
          1698.59900	         8.34964e+57
          1699.40530	         7.76046e+57
          1700.21160	         7.41224e+57
          1701.01790	         7.86407e+57
          1701.82420	         7.85733e+57
          1702.63050	         8.22845e+57
          1703.43680	         8.46230e+57
          1704.24310	         8.60452e+57
          1705.04940	         8.86516e+57
          1705.85570	         8.00608e+57
          1706.66200	         8.80554e+57
          1707.46830	         8.67571e+57
          1708.27460	         7.09997e+57
          1709.08090	         5.44671e+57
          1709.88720	         4.87398e+57
          1710.69350	         6.05676e+57
          1711.49980	         7.83214e+57
          1712.30610	         6.79081e+57
          1713.11240	         7.73603e+57
          1713.91870	         6.99399e+57
          1714.72500	         7.79167e+57
          1715.53130	         8.88812e+57
          1716.33760	         8.39320e+57
          1717.14390	         7.32341e+57
          1717.95020	         8.37615e+57
          1718.75650	         9.35633e+57
          1719.56280	         8.67392e+57
          1720.36910	         6.58537e+57
          1721.17540	         6.01143e+57
          1721.98170	         5.86299e+57
          1722.78800	         5.98983e+57
          1723.59430	         6.55001e+57
          1724.40060	         7.55281e+57
          1725.20690	         7.99770e+57
          1726.01320	         7.87797e+57
          1726.81950	         7.80136e+57
          1727.62580	         8.07541e+57
          1728.43210	         7.58971e+57
          1729.23840	         8.17635e+57
          1730.04470	         9.22572e+57
          1730.85100	         9.41932e+57
          1731.65730	         8.44064e+57
          1732.46360	         7.98042e+57
          1733.26990	         8.03507e+57
          1734.07620	         7.13163e+57
          1734.88250	         7.07046e+57
          1735.68880	         8.26484e+57
          1736.49510	         8.52845e+57
          1737.30140	         7.40434e+57
          1738.10770	         6.79518e+57
          1738.91400	         6.98095e+57
          1739.72030	         7.54863e+57
          1740.52660	         6.61274e+57
          1741.33290	         6.44179e+57
          1742.13920	         6.54724e+57
          1742.94550	         7.24212e+57
          1743.75180	         8.58177e+57
          1744.55810	         8.41862e+57
          1745.36440	         7.27594e+57
          1746.17070	         5.70993e+57
          1746.97700	         5.90852e+57
          1747.78330	         7.59837e+57
          1748.58960	         7.76778e+57
          1749.39590	         6.84195e+57
          1750.20220	         6.24218e+57
          1751.00850	         5.27304e+57
          1751.81480	         5.06224e+57
          1752.62110	         6.68684e+57
          1753.42740	         7.19511e+57
          1754.23370	         6.87088e+57
          1755.04000	         7.82770e+57
          1755.84630	         8.77087e+57
          1756.65260	         8.43901e+57
          1757.45890	         7.83678e+57
          1758.26520	         7.64919e+57
          1759.07150	         9.72163e+57
          1759.87780	         8.61039e+57
          1760.68410	         7.16811e+57
          1761.49040	         7.53169e+57
          1762.29670	         6.59289e+57
          1763.10300	         7.49304e+57
          1763.90930	         8.06063e+57
          1764.71560	         8.27925e+57
          1765.52190	         7.57629e+57
          1766.32820	         7.99722e+57
          1767.13450	         8.27523e+57
          1767.94080	         6.65824e+57
          1768.74710	         7.16183e+57
          1769.55340	         7.46892e+57
          1770.35970	         6.20315e+57
          1771.16600	         7.38218e+57
          1771.97230	         8.03268e+57
          1772.77860	         7.61477e+57
          1773.58490	         7.37008e+57
          1774.39120	         6.18534e+57
          1775.19750	         5.22970e+57
          1776.00380	         5.64206e+57
          1776.81010	         6.82044e+57
          1777.61640	         6.62392e+57
          1778.42270	         6.50124e+57
          1779.22900	         7.00499e+57
          1780.03530	         6.34813e+57
          1780.84160	         7.15323e+57
          1781.64790	         8.74304e+57
          1782.45420	         7.30958e+57
          1783.26050	         6.75549e+57
          1784.06680	         6.94818e+57
          1784.87310	         7.74348e+57
          1785.67940	         7.69730e+57
          1786.48570	         6.99785e+57
          1787.29200	         6.19906e+57
          1788.09830	         5.51766e+57
          1788.90460	         4.84909e+57
          1789.71090	         4.06526e+57
          1790.51720	         4.94586e+57
          1791.32350	         7.08355e+57
          1792.12980	         8.56429e+57
          1792.93610	         8.48939e+57
          1793.74240	         7.36361e+57
          1794.54870	         7.66088e+57
          1795.35500	         8.44278e+57
          1796.16130	         8.79537e+57
          1796.96760	         7.41788e+57
          1797.77390	         7.11775e+57
          1798.58020	         7.62773e+57
          1799.38650	         6.63933e+57
          1800.19280	         6.37468e+57
          1800.99910	         6.81895e+57
          1801.80540	         5.68754e+57
          1802.61170	         7.11039e+57
          1803.41800	         8.37152e+57
          1804.22430	         8.00966e+57
          1805.03060	         7.56986e+57
          1805.83690	         6.93310e+57
          1806.64320	         7.67812e+57
          1807.44950	         7.89486e+57
          1808.25580	         6.91973e+57
          1809.06210	         8.04990e+57
          1809.86840	         7.16653e+57
          1810.67470	         8.21418e+57
          1811.48100	         8.92720e+57
          1812.28730	         8.19902e+57
          1813.09360	         7.31467e+57
          1813.89990	         7.43213e+57
          1814.70620	         6.97198e+57
          1815.51250	         7.30852e+57
          1816.31880	         6.89644e+57
          1817.12510	         6.63373e+57
          1817.93140	         6.03028e+57
          1818.73770	         6.27664e+57
          1819.54400	         8.10082e+57
          1820.35030	         9.29707e+57
          1821.15660	         7.45945e+57
          1821.96290	         6.18469e+57
          1822.76920	         7.38026e+57
          1823.57550	         7.81468e+57
          1824.38180	         6.48081e+57
          1825.18810	         6.65153e+57
          1825.99440	         8.33829e+57
          1826.80070	         7.15098e+57
          1827.60700	         6.12819e+57
          1828.41330	         5.79700e+57
          1829.21960	         6.22589e+57
          1830.02590	         7.22864e+57
          1830.83220	         8.95350e+57
          1831.63850	         8.22397e+57
          1832.44480	         7.09136e+57
          1833.25110	         8.41195e+57
          1834.05740	         8.93265e+57
          1834.86370	         7.42914e+57
          1835.67000	         6.14661e+57
          1836.47630	         6.92524e+57
          1837.28260	         8.01459e+57
          1838.08890	         8.36798e+57
          1838.89520	         8.56404e+57
          1839.70150	         7.98156e+57
          1840.50780	         6.97216e+57
          1841.31410	         6.84297e+57
          1842.12040	         7.12224e+57
          1842.92670	         6.81466e+57
          1843.73300	         6.76281e+57
          1844.53930	         6.99200e+57
          1845.34560	         6.55588e+57
          1846.15190	         7.07778e+57
          1846.95820	         7.81285e+57
          1847.76450	         7.13169e+57
          1848.57080	         6.54015e+57
          1849.37710	         6.63497e+57
          1850.18340	         6.48202e+57
          1850.98970	         7.92364e+57
          1851.79600	         8.51322e+57
          1852.60230	         6.30754e+57
          1853.40860	         6.27525e+57
          1854.21490	         6.43526e+57
          1855.02120	         5.55815e+57
          1855.82750	         5.38654e+57
          1856.63380	         7.56325e+57
          1857.44010	         7.65725e+57
          1858.24640	         6.42077e+57
          1859.05270	         7.36576e+57
          1859.85900	         6.23065e+57
          1860.66530	         5.75129e+57
          1861.47160	         7.17588e+57
          1862.27790	         7.25534e+57
          1863.08420	         8.10480e+57
          1863.89050	         8.08977e+57
          1864.69680	         6.95674e+57
          1865.50310	         7.68550e+57
          1866.30940	         7.17811e+57
          1867.11570	         5.97048e+57
          1867.92200	         6.52375e+57
          1868.72830	         6.55159e+57
          1869.53460	         6.28209e+57
          1870.34090	         7.33703e+57
          1871.14720	         7.75080e+57
          1871.95350	         7.82496e+57
          1872.75980	         7.98071e+57
          1873.56610	         6.48072e+57
          1874.37240	         6.11697e+57
          1875.17870	         6.15801e+57
          1875.98500	         7.02110e+57
          1876.79130	         7.67540e+57
          1877.59760	         6.66233e+57
          1878.40390	         5.54863e+57
          1879.21020	         5.78568e+57
          1880.01650	         7.10747e+57
          1880.82280	         8.37649e+57
          1881.62910	         8.67428e+57
          1882.43540	         9.18686e+57
          1883.24170	         7.63358e+57
          1884.04800	         6.10999e+57
          1884.85430	         6.01331e+57
          1885.66060	         6.57730e+57
          1886.46690	         8.38719e+57
          1887.27320	         7.94579e+57
          1888.07950	         5.70656e+57
          1888.88580	         5.53234e+57
          1889.69210	         8.98958e+57
          1890.49840	         8.44209e+57
          1891.30470	         7.81879e+57
          1892.11100	         8.27044e+57
          1892.91730	         8.63547e+57
          1893.72360	         8.45705e+57
          1894.52990	         8.06357e+57
          1895.33620	         8.04683e+57
          1896.14250	         7.03506e+57
          1896.94880	         6.75041e+57
          1897.75510	         4.46286e+57
          1898.56140	         6.03211e+57
          1899.36770	         7.54501e+57
          1900.17400	         6.89580e+57
          1900.98030	         6.95323e+57
          1901.78660	         7.36981e+57
          1902.59290	         7.52282e+57
          1903.39920	         8.17635e+57
          1904.20550	         9.45930e+57
          1905.01180	         9.42108e+57
          1905.81810	         9.73085e+57
          1906.62440	         1.25334e+58
          1907.43070	         1.49500e+58
          1908.23700	         1.49758e+58
          1909.04330	         1.28453e+58
          1909.84960	         1.09312e+58
          1910.65590	         9.63023e+57
          1911.46220	         9.08458e+57
          1912.26850	         8.03519e+57
          1913.07480	         6.15316e+57
          1913.88110	         5.81628e+57
          1914.68740	         5.71970e+57
          1915.49370	         5.49605e+57
          1916.30000	         6.64705e+57
          1917.10630	         6.92372e+57
          1917.91260	         6.45041e+57
          1918.71890	         5.58830e+57
          1919.52520	         5.86987e+57
          1920.33150	         5.36394e+57
          1921.13780	         6.90040e+57
          1921.94410	         8.07294e+57
          1922.75040	         8.27066e+57
          1923.55670	         7.71745e+57
          1924.36300	         8.03745e+57
          1925.16930	         6.87318e+57
          1925.97560	         6.61817e+57
          1926.78190	         5.75657e+57
          1927.58820	         5.78082e+57
          1928.39450	         4.31960e+57
          1929.20080	         3.97856e+57
          1930.00710	         7.18453e+57
          1930.81340	         8.20155e+57
          1931.61970	         7.84476e+57
          1932.42600	         7.75727e+57
          1933.23230	         6.87705e+57
          1934.03860	         7.06244e+57
          1934.84490	         5.97948e+57
          1935.65120	         7.71654e+57
          1936.45750	         7.23031e+57
          1937.26380	         6.44019e+57
          1938.07010	         7.37908e+57
          1938.87640	         7.00860e+57
          1939.68270	         7.54094e+57
          1940.48900	         8.16444e+57
          1941.29530	         7.58193e+57
          1942.10160	         7.61351e+57
          1942.90790	         6.46669e+57
          1943.71420	         5.31648e+57
          1944.52050	         6.17414e+57
          1945.32680	         6.61321e+57
          1946.13310	         6.76496e+57
          1946.93940	         7.85225e+57
          1947.74570	         7.62002e+57
          1948.55200	         6.47628e+57
          1949.35830	         7.27935e+57
          1950.16460	         5.76658e+57
          1950.97090	         5.61747e+57
          1951.77720	         6.36776e+57
          1952.58350	         7.53701e+57
          1953.38980	         5.95579e+57
          1954.19610	         4.71506e+57
          1955.00240	         5.64680e+57
          1955.80870	         6.20759e+57
          1956.61500	         6.43792e+57
          1957.42130	         5.54635e+57
          1958.22760	         5.99841e+57
          1959.03390	         6.64715e+57
          1959.84020	         7.14329e+57
          1960.64650	         7.04420e+57
          1961.45280	         6.46401e+57
          1962.25910	         6.35047e+57
          1963.06540	         6.77967e+57
          1963.87170	         6.60284e+57
          1964.67800	         7.18258e+57
          1965.48430	         7.82172e+57
          1966.29060	         6.75562e+57
          1967.09690	         8.36064e+57
          1967.90320	         7.25282e+57
          1968.70950	         5.49759e+57
          1969.51580	         5.65927e+57
          1970.32210	         7.36660e+57
          1971.12840	         6.33477e+57
          1971.93470	         5.25730e+57
          1972.74100	         4.79869e+57
          1973.54730	         6.12058e+57
          1974.35360	         6.49747e+57
          1975.15990	         6.87015e+57
          1975.96620	         6.62619e+57
          1976.77250	         7.99680e+57
          1977.57880	         8.21483e+57
          1978.38510	         6.57111e+57
          1979.19140	         7.95577e+57
          1979.99770	         7.50299e+57
          1980.80400	         6.37426e+57
          1981.61030	         7.19568e+57
          1982.41660	         5.59605e+57
          1983.22290	         5.55462e+57
          1984.02920	         6.26793e+57
          1984.83550	         6.10867e+57
          1985.64180	         5.49329e+57
          1986.44810	         6.44036e+57
          1987.25440	         5.28705e+57
          1988.06070	         5.31481e+57
          1988.86700	         5.96921e+57
          1989.67330	         7.42151e+57
          1990.47960	         6.72849e+57
          1991.28590	         6.92214e+57
          1992.09220	         6.42399e+57
          1992.89850	         5.74483e+57
          1993.70480	         5.93061e+57
          1994.51110	         5.70799e+57
          1995.31740	         4.37958e+57
          1996.12370	         5.53547e+57
          1996.93000	         6.76217e+57
          1997.73630	         7.57571e+57
          1998.54260	         6.21884e+57
          1999.34890	         7.46327e+57
          2000.15520	         7.37401e+57
          2000.96150	         6.78583e+57
          2001.76780	         5.41038e+57
          2002.57410	         4.24718e+57
          2003.38040	         5.97478e+57
          2004.18670	         5.84968e+57
          2004.99300	         5.70794e+57
          2005.79930	         6.69354e+57
          2006.60560	         6.51838e+57
          2007.41190	         5.95445e+57
          2008.21820	         6.66132e+57
          2009.02450	         7.06185e+57
          2009.83080	         6.00713e+57
          2010.63710	         6.82024e+57
          2011.44340	         7.59951e+57
          2012.24970	         7.62751e+57
          2013.05600	         7.02994e+57
          2013.86230	         6.67470e+57
          2014.66860	         4.60468e+57
          2015.47490	         6.46247e+57
          2016.28120	         6.53783e+57
          2017.08750	         6.91065e+57
          2017.89380	         5.40550e+57
          2018.70010	         4.69150e+57
          2019.50640	         5.71349e+57
          2020.31270	         6.40524e+57
          2021.11900	         6.75804e+57
          2021.92530	         7.35756e+57
          2022.73160	         7.83617e+57
          2023.53790	         7.37869e+57
          2024.34420	         6.13918e+57
          2025.15050	         5.77021e+57
          2025.95680	         5.29669e+57
          2026.76310	         6.51348e+57
          2027.56940	         6.81836e+57
          2028.37570	         7.05806e+57
          2029.18200	         6.17999e+57
          2029.98830	         6.24689e+57
          2030.79460	         7.07672e+57
          2031.60090	         6.29721e+57
          2032.40720	         6.52597e+57
          2033.21350	         5.87695e+57
          2034.01980	         5.56562e+57
          2034.82610	         4.81394e+57
          2035.63240	         4.77698e+57
          2036.43870	         5.54547e+57
          2037.24500	         6.57050e+57
          2038.05130	         6.44828e+57
          2038.85760	         5.23977e+57
          2039.66390	         5.80467e+57
          2040.47020	         5.44370e+57
          2041.27650	         5.11299e+57
          2042.08280	         5.08323e+57
          2042.88910	         6.21940e+57
          2043.69540	         5.90981e+57
          2044.50170	         5.79943e+57
          2045.30800	         5.83341e+57
          2046.11430	         4.58049e+57
          2046.92060	         5.15603e+57
          2047.72690	         6.32920e+57
          2048.53320	         6.42538e+57
          2049.33950	         4.45546e+57
          2050.14580	         4.38531e+57
          2050.95210	         6.75902e+57
          2051.75840	         7.08422e+57
          2052.56470	         6.16698e+57
          2053.37100	         4.20255e+57
          2054.17730	         4.00767e+57
          2054.98360	         3.32604e+57
          2055.78990	         2.67303e+57
          2056.59620	         2.96096e+57
          2057.40250	         4.62730e+57
          2058.20880	         6.97517e+57
          2059.01510	         6.56704e+57
          2059.82140	         6.11749e+57
          2060.62770	         9.64877e+57
          2061.43400	         1.51271e+58
          2062.24030	         1.09149e+58
          2063.04660	         3.98864e+57
          2063.85290	         1.82070e+57
          2064.65920	        -6.54525e+56
          2065.46550	        -9.60119e+57
          2066.27180	        -8.36981e+57
          2067.07810	         4.22047e+57
          2067.88440	         7.21595e+57
          2068.69070	         7.75483e+57
          2069.49700	         4.60135e+57
          2070.30330	         3.72028e+57
          2071.10960	         6.14369e+57
          2071.91590	         7.12139e+57
          2072.72220	         5.25070e+57
          2073.52850	         5.34921e+57
          2074.33480	         4.97694e+57
          2075.14110	         4.32904e+57
          2075.94740	         4.58941e+57
          2076.75370	         5.22139e+57
          2077.56000	         3.86334e+57
          2078.36630	         4.76942e+57
          2079.17260	         5.58542e+57
          2079.97890	         6.10603e+57
          2080.78520	         6.58249e+57
          2081.59150	         4.90491e+57
          2082.39780	         5.66089e+57
          2083.20410	         3.45601e+57
          2084.01040	         2.45290e+57
          2084.81670	         4.97798e+57
          2085.62300	         4.74595e+57
          2086.42930	         2.33490e+57
          2087.23560	         2.33957e+57
          2088.04190	         4.18634e+57
          2088.84820	         4.16025e+57
          2089.65450	         2.07329e+57
          2090.46080	         1.97349e+57
          2091.26710	         4.15124e+57
          2092.07340	         3.97134e+57
          2092.87970	         3.86020e+57
          2093.68600	        -1.66444e+57
          2094.49230	         4.60400e+57
          2095.29860	         5.76367e+57
          2096.10490	         4.52160e+57
          2096.91120	         2.19274e+57
          2097.71750	        -2.40547e+56
          2098.52380	         2.99544e+56
          2099.33010	         1.37924e+57
          2100.13640	         2.07556e+57
          2100.94270	         2.02298e+57
          2101.74900	         2.12859e+57
          2102.55530	         2.14361e+57
          2103.36160	         3.04077e+57
          2104.16790	         3.90475e+57
          2104.97420	         1.33042e+57
          2105.78050	        -1.93673e+56
          2106.58680	         1.66160e+57
          2107.39310	        -1.17847e+57
          2108.19940	         2.47568e+56
          2109.00570	         4.23465e+56
          2109.81200	        -1.85845e+57
          2110.61830	         9.38736e+56
          2111.42460	         9.37445e+56
          2112.23090	        -4.39484e+56
          2113.03720	        -8.02600e+56
          2113.84350	         1.74831e+57
          2114.64980	        -1.71307e+56
          2115.45610	         2.77180e+56
          2116.26240	        -5.12674e+57
          2117.06870	         1.12409e+57
          2117.87500	        -4.05910e+56
          2118.68130	         3.01305e+57
          2119.48760	         5.02554e+57
          2120.29390	         5.41139e+57
          2121.10020	        -9.77383e+56
          2121.90650	        -2.61168e+57
          2122.71280	         3.76379e+57
          2123.51910	         9.26643e+57
          2124.32540	         2.70995e+57
          2125.13170	        -2.36399e+57
          2125.93800	        -1.39221e+57
          2126.74430	        -7.43050e+56
          2127.55060	        -5.11882e+57
          2128.35690	        -2.07539e+57
          2129.16320	        -3.04335e+57
          2129.96950	        -4.01093e+57
          2130.77580	        -4.17281e+57
          2131.58210	        -1.77688e+57
          2132.38840	        -6.49490e+57
          2133.19470	        -4.28561e+57
          2134.00100	        -1.16322e+57
          2134.80730	        -3.09755e+57
          2135.61360	         3.05597e+57
          2136.41990	         2.18612e+57
          2137.22620	         3.95044e+57
          2138.03250	         1.96327e+57
          2138.83880	        -4.09416e+57
          2139.64510	         1.78686e+57
          2140.45140	        -4.10736e+57
          2141.25770	        -1.24808e+58
          2142.06400	        -4.00406e+57
          2142.87030	        -3.03957e+56
          2143.67660	        -6.85352e+56
          2144.48290	         7.70400e+57
          2145.28920	         1.46443e+58
          2146.09550	        -1.43260e+58
          2146.90180	        -1.39665e+58
          2147.70810	        -3.87707e+57
          2148.51440	        -5.85756e+57
          2149.32070	        -4.29892e+57
          2150.12700	        -3.86466e+57
          2150.93330	        -1.34978e+57
          2151.73960	         5.44532e+55
          2152.54590	        -2.84688e+57
          2153.35220	        -3.96776e+57
          2154.15850	        -4.66990e+57
          2154.96480	         4.81990e+57
          2155.77110	        -4.47300e+57
          2156.57740	        -1.05226e+57
          2157.38370	         2.56703e+57
          2158.19000	         4.14857e+57
          2158.99630	        -4.52594e+57
          2159.80260	        -1.24764e+58
          2160.60890	        -1.59150e+58
          2161.41520	        -2.48833e+57
          2162.22150	        -7.26710e+56
          2163.02780	        -1.49006e+57
          2163.83410	        -3.23994e+57
          2164.64040	        -9.80549e+57
          2165.44670	        -1.23448e+58
          2166.25300	        -2.88161e+57
          2167.05930	        -8.53583e+57
          2167.86560	        -1.06452e+58
          2168.67190	        -2.68929e+56
          2169.47820	        -1.83869e+57
          2170.28450	        -3.56514e+57
          2171.09080	         1.29129e+57
          2171.89710	         2.87551e+57
          2172.70340	         3.21590e+57
          2173.50970	        -4.14819e+57
          2174.31600	        -5.06622e+57
          2175.12230	        -4.20933e+57
          2175.92860	        -6.36715e+57
          2176.73490	        -8.77485e+57
          2177.54120	        -1.04561e+58
          2178.34750	        -4.30168e+57
          2179.15380	                 nan
          2179.96010	                 nan
          2180.76640	                 nan
          2181.57270	                 nan
          2182.37900	                 nan
          2183.18530	                 nan
          2183.99160	                 nan
          2184.79790	                 nan
          2185.60420	                 nan
          2186.41050	                 nan
          2187.21680	                 nan
          2188.02310	                 nan
          2188.82940	                 nan
          2189.63570	                 nan
          2190.44200	                 nan
          2191.24830	                 nan
          2192.05460	                 nan
          2192.86090	                 nan
          2193.66720	                 nan
          2194.47350	                 nan
          2195.27980	                 nan
          2196.08610	                 nan
          2196.89240	                 nan
          2197.69870	                 nan
          2198.50500	                 nan
          2199.31130	                 nan
          2200.11760	                 nan
          2200.92390	                 nan
          2201.73020	                 nan
          2202.53650	                 nan
          2203.34280	                 nan
          2204.14910	                 nan
          2204.95540	                 nan
          2205.76170	                 nan
          2206.56800	                 nan
          2207.37430	                 nan
          2208.18060	                 nan
          2208.98690	                 nan
          2209.79320	                 nan
          2210.59950	                 nan
          2211.40580	                 nan
          2212.21210	                 nan
          2213.01840	                 nan
          2213.82470	                 nan
          2214.63100	                 nan
          2215.43730	         0.00000e+00
