#sample_145_stacked_spectrum_rest_UV-bands_median_H-alpha_noDC.txt
#median Lum: 1.69548e+42
#Rest-frame wavelength (A) | Luminosity (erg/s/A)
#
          1110.00000	         0.00000e+00
          1110.80630	        -5.94273e+58
          1111.61260	         1.91119e+59
          1112.41890	         2.40365e+59
          1113.22520	         2.25965e+58
          1114.03150	        -2.72793e+59
          1114.83780	         6.53759e+57
          1115.64410	        -3.24855e+58
          1116.45040	        -7.12466e+58
          1117.25670	         1.00321e+58
          1118.06300	         2.49717e+59
          1118.86930	         8.43329e+58
          1119.67560	         1.27019e+59
          1120.48190	         2.85300e+57
          1121.28820	        -1.09723e+59
          1122.09450	        -1.74032e+58
          1122.90080	         1.18703e+58
          1123.70710	         5.91071e+58
          1124.51340	         6.79990e+58
          1125.31970	         3.02719e+58
          1126.12600	         1.66113e+58
          1126.93230	        -3.60240e+58
          1127.73860	        -5.26653e+58
          1128.54490	        -4.25255e+58
          1129.35120	        -1.59637e+58
          1130.15750	        -4.94473e+58
          1130.96380	        -3.49927e+58
          1131.77010	         5.15411e+58
          1132.57640	         5.73230e+58
          1133.38270	         2.84893e+58
          1134.18900	         1.11515e+58
          1134.99530	         2.51870e+58
          1135.80160	         2.19923e+58
          1136.60790	         2.19077e+58
          1137.41420	         7.33796e+57
          1138.22050	         4.95711e+58
          1139.02680	         3.91255e+58
          1139.83310	         1.35633e+58
          1140.63940	         2.51548e+58
          1141.44570	        -4.48785e+57
          1142.25200	        -3.31784e+56
          1143.05830	         2.69486e+58
          1143.86460	         3.73628e+58
          1144.67090	         1.42820e+58
          1145.47720	         3.08345e+58
          1146.28350	         2.13595e+58
          1147.08980	         1.79289e+58
          1147.89610	         2.01404e+58
          1148.70240	         2.67909e+58
          1149.50870	         2.43306e+58
          1150.31500	         1.58375e+58
          1151.12130	        -4.53989e+57
          1151.92760	        -5.54631e+57
          1152.73390	         1.43230e+58
          1153.54020	         1.40145e+58
          1154.34650	         2.60603e+58
          1155.15280	         1.85107e+58
          1155.95910	         1.34597e+58
          1156.76540	         1.44943e+57
          1157.57170	        -3.37372e+57
          1158.37800	        -3.91029e+57
          1159.18430	         2.62201e+57
          1159.99060	         7.97867e+56
          1160.79690	         7.25335e+57
          1161.60320	         2.12606e+58
          1162.40950	         1.16940e+58
          1163.21580	         1.32181e+58
          1164.02210	         1.73051e+58
          1164.82840	         5.34028e+57
          1165.63470	         1.53664e+58
          1166.44100	         3.29362e+58
          1167.24730	         2.36181e+58
          1168.05360	         7.08838e+57
          1168.85990	         1.04917e+58
          1169.66620	         8.63795e+57
          1170.47250	         1.85769e+58
          1171.27880	         1.39551e+58
          1172.08510	         1.17023e+58
          1172.89140	         7.82135e+57
          1173.69770	         8.56886e+57
          1174.50400	         9.69311e+57
          1175.31030	         1.82276e+58
          1176.11660	         1.88295e+58
          1176.92290	         2.05411e+58
          1177.72920	         1.56176e+58
          1178.53550	         8.85889e+57
          1179.34180	         2.62268e+57
          1180.14810	         2.07249e+57
          1180.95440	         8.33569e+57
          1181.76070	         7.73791e+57
          1182.56700	         8.11018e+57
          1183.37330	         6.61277e+57
          1184.17960	         1.29110e+58
          1184.98590	         1.31610e+58
          1185.79220	         7.25921e+57
          1186.59850	         1.15566e+58
          1187.40480	         1.21734e+58
          1188.21110	         1.52224e+58
          1189.01740	         1.07519e+58
          1189.82370	         1.15195e+58
          1190.63000	         1.05645e+58
          1191.43630	         9.32243e+57
          1192.24260	         1.36512e+58
          1193.04890	         1.57434e+58
          1193.85520	         1.22453e+58
          1194.66150	         7.95317e+57
          1195.46780	         1.07935e+58
          1196.27410	         1.12457e+58
          1197.08040	         1.13529e+58
          1197.88670	         1.48650e+58
          1198.69300	         1.63561e+58
          1199.49930	         1.08130e+58
          1200.30560	         6.74213e+57
          1201.11190	         5.73142e+57
          1201.91820	         1.05790e+58
          1202.72450	         9.59421e+57
          1203.53080	         1.68679e+58
          1204.33710	         1.11105e+58
          1205.14340	         5.27007e+57
          1205.94970	         7.26530e+57
          1206.75600	         6.05695e+57
          1207.56230	         4.39899e+57
          1208.36860	         8.47332e+57
          1209.17490	         6.38515e+57
          1209.98120	         4.84152e+57
          1210.78750	         9.00096e+57
          1211.59380	         1.48028e+58
          1212.40010	         1.99604e+58
          1213.20640	         2.01389e+58
          1214.01270	         2.07449e+58
          1214.81900	         2.49245e+58
          1215.62530	         4.34731e+58
          1216.43160	         9.11961e+58
          1217.23790	         1.49271e+59
          1218.04420	         1.12874e+59
          1218.85050	         8.70039e+58
          1219.65680	         5.64915e+58
          1220.46310	         3.08228e+58
          1221.26940	         2.39232e+58
          1222.07570	         1.53369e+58
          1222.88200	         1.07175e+58
          1223.68830	         8.26322e+57
          1224.49460	         5.99916e+57
          1225.30090	         5.51620e+57
          1226.10720	         5.76507e+57
          1226.91350	         6.37623e+57
          1227.71980	         9.22993e+57
          1228.52610	         7.94249e+57
          1229.33240	         7.98036e+57
          1230.13870	         9.85093e+57
          1230.94500	         7.16496e+57
          1231.75130	         4.55557e+57
          1232.55760	         6.37612e+57
          1233.36390	         8.38581e+57
          1234.17020	         6.51992e+57
          1234.97650	         7.32324e+57
          1235.78280	         9.02431e+57
          1236.58910	         8.97072e+57
          1237.39540	         1.07438e+58
          1238.20170	         1.17303e+58
          1239.00800	         1.28060e+58
          1239.81430	         1.53501e+58
          1240.62060	         1.28729e+58
          1241.42690	         1.20036e+58
          1242.23320	         1.34592e+58
          1243.03950	         9.39883e+57
          1243.84580	         9.45958e+57
          1244.65210	         9.38699e+57
          1245.45840	         8.77221e+57
          1246.26470	         7.45897e+57
          1247.07100	         4.43038e+57
          1247.87730	         6.09508e+57
          1248.68360	         5.72632e+57
          1249.48990	         7.11157e+57
          1250.29620	         1.17852e+58
          1251.10250	         8.74294e+57
          1251.90880	         4.70578e+57
          1252.71510	         5.83894e+57
          1253.52140	         7.80021e+57
          1254.32770	         1.05721e+58
          1255.13400	         1.37744e+58
          1255.94030	         1.33712e+58
          1256.74660	         1.08860e+58
          1257.55290	         1.13631e+58
          1258.35920	         9.22538e+57
          1259.16550	         7.69924e+57
          1259.97180	         6.61988e+57
          1260.77810	         7.01686e+57
          1261.58440	         9.68858e+57
          1262.39070	         8.04293e+57
          1263.19700	         7.57780e+57
          1264.00330	         8.93548e+57
          1264.80960	         1.13535e+58
          1265.61590	         1.36673e+58
          1266.42220	         1.41751e+58
          1267.22850	         1.15463e+58
          1268.03480	         1.35907e+58
          1268.84110	         1.47039e+58
          1269.64740	         1.12937e+58
          1270.45370	         1.08286e+58
          1271.26000	         1.17256e+58
          1272.06630	         1.29230e+58
          1272.87260	         1.23967e+58
          1273.67890	         1.05231e+58
          1274.48520	         1.11536e+58
          1275.29150	         1.22152e+58
          1276.09780	         1.09265e+58
          1276.90410	         1.33089e+58
          1277.71040	         1.40273e+58
          1278.51670	         1.38069e+58
          1279.32300	         1.39130e+58
          1280.12930	         1.18631e+58
          1280.93560	         1.26425e+58
          1281.74190	         1.17719e+58
          1282.54820	         1.13927e+58
          1283.35450	         9.98750e+57
          1284.16080	         1.15342e+58
          1284.96710	         1.43623e+58
          1285.77340	         1.23434e+58
          1286.57970	         1.09025e+58
          1287.38600	         1.32772e+58
          1288.19230	         1.57356e+58
          1288.99860	         1.52318e+58
          1289.80490	         1.21473e+58
          1290.61120	         1.30306e+58
          1291.41750	         1.37104e+58
          1292.22380	         1.25117e+58
          1293.03010	         1.12254e+58
          1293.83640	         1.24032e+58
          1294.64270	         9.75087e+57
          1295.44900	         7.60653e+57
          1296.25530	         8.35964e+57
          1297.06160	         8.63962e+57
          1297.86790	         1.02976e+58
          1298.67420	         6.95103e+57
          1299.48050	         8.14367e+57
          1300.28680	         1.09422e+58
          1301.09310	         7.20946e+57
          1301.89940	         4.21541e+57
          1302.70570	         5.91715e+57
          1303.51200	         8.92475e+57
          1304.31830	         1.04501e+58
          1305.12460	         9.59098e+57
          1305.93090	         1.04525e+58
          1306.73720	         1.21696e+58
          1307.54350	         1.25632e+58
          1308.34980	         1.40996e+58
          1309.15610	         1.64058e+58
          1309.96240	         1.49994e+58
          1310.76870	         1.23875e+58
          1311.57500	         1.03500e+58
          1312.38130	         1.06726e+58
          1313.18760	         1.39912e+58
          1313.99390	         1.45647e+58
          1314.80020	         1.67076e+58
          1315.60650	         1.60395e+58
          1316.41280	         1.41270e+58
          1317.21910	         1.27993e+58
          1318.02540	         1.25625e+58
          1318.83170	         1.27598e+58
          1319.63800	         1.14504e+58
          1320.44430	         1.07374e+58
          1321.25060	         1.24577e+58
          1322.05690	         1.33304e+58
          1322.86320	         1.25489e+58
          1323.66950	         1.08969e+58
          1324.47580	         9.40549e+57
          1325.28210	         1.10560e+58
          1326.08840	         1.21357e+58
          1326.89470	         1.19084e+58
          1327.70100	         1.12136e+58
          1328.50730	         8.94265e+57
          1329.31360	         9.47506e+57
          1330.11990	         9.25594e+57
          1330.92620	         9.54732e+57
          1331.73250	         1.07180e+58
          1332.53880	         8.46744e+57
          1333.34510	         8.71173e+57
          1334.15140	         1.02588e+58
          1334.95770	         1.10475e+58
          1335.76400	         1.29838e+58
          1336.57030	         1.23097e+58
          1337.37660	         1.04468e+58
          1338.18290	         1.14278e+58
          1338.98920	         1.21292e+58
          1339.79550	         1.22710e+58
          1340.60180	         1.42622e+58
          1341.40810	         1.47980e+58
          1342.21440	         1.18488e+58
          1343.02070	         1.24778e+58
          1343.82700	         1.34036e+58
          1344.63330	         1.20770e+58
          1345.43960	         1.19242e+58
          1346.24590	         1.16775e+58
          1347.05220	         1.20896e+58
          1347.85850	         9.99601e+57
          1348.66480	         1.09490e+58
          1349.47110	         1.31519e+58
          1350.27740	         1.28100e+58
          1351.08370	         1.18907e+58
          1351.89000	         1.18653e+58
          1352.69630	         1.20511e+58
          1353.50260	         1.14215e+58
          1354.30890	         1.20085e+58
          1355.11520	         1.20836e+58
          1355.92150	         1.14254e+58
          1356.72780	         1.02101e+58
          1357.53410	         8.66205e+57
          1358.34040	         9.56063e+57
          1359.14670	         1.00134e+58
          1359.95300	         1.05676e+58
          1360.75930	         1.16720e+58
          1361.56560	         1.11970e+58
          1362.37190	         1.14333e+58
          1363.17820	         1.06073e+58
          1363.98450	         1.08527e+58
          1364.79080	         1.22220e+58
          1365.59710	         1.27653e+58
          1366.40340	         1.20547e+58
          1367.20970	         1.15054e+58
          1368.01600	         9.51777e+57
          1368.82230	         1.10626e+58
          1369.62860	         1.10877e+58
          1370.43490	         9.32290e+57
          1371.24120	         9.33334e+57
          1372.04750	         7.49200e+57
          1372.85380	         1.04062e+58
          1373.66010	         1.10552e+58
          1374.46640	         1.06604e+58
          1375.27270	         1.23526e+58
          1376.07900	         1.02486e+58
          1376.88530	         8.95405e+57
          1377.69160	         9.76725e+57
          1378.49790	         8.40202e+57
          1379.30420	         7.76073e+57
          1380.11050	         8.52178e+57
          1380.91680	         8.37431e+57
          1381.72310	         8.23647e+57
          1382.52940	         7.88995e+57
          1383.33570	         8.96422e+57
          1384.14200	         9.96328e+57
          1384.94830	         9.93334e+57
          1385.75460	         1.05735e+58
          1386.56090	         1.09303e+58
          1387.36720	         9.84369e+57
          1388.17350	         1.22734e+58
          1388.97980	         1.12085e+58
          1389.78610	         1.00035e+58
          1390.59240	         9.12161e+57
          1391.39870	         8.89300e+57
          1392.20500	         8.82196e+57
          1393.01130	         9.12892e+57
          1393.81760	         7.64124e+57
          1394.62390	         7.05514e+57
          1395.43020	         6.72791e+57
          1396.23650	         5.75653e+57
          1397.04280	         6.67497e+57
          1397.84910	         8.83546e+57
          1398.65540	         9.96885e+57
          1399.46170	         1.11775e+58
          1400.26800	         7.88849e+57
          1401.07430	         7.12937e+57
          1401.88060	         8.14640e+57
          1402.68690	         9.08168e+57
          1403.49320	         9.91621e+57
          1404.29950	         9.38232e+57
          1405.10580	         1.07908e+58
          1405.91210	         1.23728e+58
          1406.71840	         1.23830e+58
          1407.52470	         1.11298e+58
          1408.33100	         1.05149e+58
          1409.13730	         1.20958e+58
          1409.94360	         1.24967e+58
          1410.74990	         1.11241e+58
          1411.55620	         9.64958e+57
          1412.36250	         8.23709e+57
          1413.16880	         7.81435e+57
          1413.97510	         7.36950e+57
          1414.78140	         7.33995e+57
          1415.58770	         1.08227e+58
          1416.39400	         1.13014e+58
          1417.20030	         9.98172e+57
          1418.00660	         9.23644e+57
          1418.81290	         1.05713e+58
          1419.61920	         1.05526e+58
          1420.42550	         1.25296e+58
          1421.23180	         1.31530e+58
          1422.03810	         1.21123e+58
          1422.84440	         1.22254e+58
          1423.65070	         1.38417e+58
          1424.45700	         1.23678e+58
          1425.26330	         8.50171e+57
          1426.06960	         9.17001e+57
          1426.87590	         1.05402e+58
          1427.68220	         9.83297e+57
          1428.48850	         1.08975e+58
          1429.29480	         1.07287e+58
          1430.10110	         1.13570e+58
          1430.90740	         9.25854e+57
          1431.71370	         8.09868e+57
          1432.52000	         8.97275e+57
          1433.32630	         7.97379e+57
          1434.13260	         7.84271e+57
          1434.93890	         8.41314e+57
          1435.74520	         9.31253e+57
          1436.55150	         1.01051e+58
          1437.35780	         9.06433e+57
          1438.16410	         8.53956e+57
          1438.97040	         8.40785e+57
          1439.77670	         8.64875e+57
          1440.58300	         8.92328e+57
          1441.38930	         9.84801e+57
          1442.19560	         1.05239e+58
          1443.00190	         1.02012e+58
          1443.80820	         1.13406e+58
          1444.61450	         1.00641e+58
          1445.42080	         8.15214e+57
          1446.22710	         9.83411e+57
          1447.03340	         1.10264e+58
          1447.83970	         1.06063e+58
          1448.64600	         1.03826e+58
          1449.45230	         1.04114e+58
          1450.25860	         1.03294e+58
          1451.06490	         8.96696e+57
          1451.87120	         8.23178e+57
          1452.67750	         8.13638e+57
          1453.48380	         9.11357e+57
          1454.29010	         8.23122e+57
          1455.09640	         7.36326e+57
          1455.90270	         1.03025e+58
          1456.70900	         9.05744e+57
          1457.51530	         9.06509e+57
          1458.32160	         1.15537e+58
          1459.12790	         1.19629e+58
          1459.93420	         9.89803e+57
          1460.74050	         6.58405e+57
          1461.54680	         7.33572e+57
          1462.35310	         8.16155e+57
          1463.15940	         9.71687e+57
          1463.96570	         1.12958e+58
          1464.77200	         1.22356e+58
          1465.57830	         9.86087e+57
          1466.38460	         8.94043e+57
          1467.19090	         8.96727e+57
          1467.99720	         8.73534e+57
          1468.80350	         9.35757e+57
          1469.60980	         8.93613e+57
          1470.41610	         9.69857e+57
          1471.22240	         8.98907e+57
          1472.02870	         9.48504e+57
          1472.83500	         9.79001e+57
          1473.64130	         9.89540e+57
          1474.44760	         1.01067e+58
          1475.25390	         9.93504e+57
          1476.06020	         8.96691e+57
          1476.86650	         8.76942e+57
          1477.67280	         9.20002e+57
          1478.47910	         7.64582e+57
          1479.28540	         7.33807e+57
          1480.09170	         8.38324e+57
          1480.89800	         8.83456e+57
          1481.70430	         8.90469e+57
          1482.51060	         8.96519e+57
          1483.31690	         8.43534e+57
          1484.12320	         8.07439e+57
          1484.92950	         7.81522e+57
          1485.73580	         8.04934e+57
          1486.54210	         8.72189e+57
          1487.34840	         8.14837e+57
          1488.15470	         8.44480e+57
          1488.96100	         8.56672e+57
          1489.76730	         8.97980e+57
          1490.57360	         8.47255e+57
          1491.37990	         7.74568e+57
          1492.18620	         8.39699e+57
          1492.99250	         8.44817e+57
          1493.79880	         7.94105e+57
          1494.60510	         7.64669e+57
          1495.41140	         6.65796e+57
          1496.21770	         8.13641e+57
          1497.02400	         1.02391e+58
          1497.83030	         9.37347e+57
          1498.63660	         7.08681e+57
          1499.44290	         6.04848e+57
          1500.24920	         6.62301e+57
          1501.05550	         6.65541e+57
          1501.86180	         7.36311e+57
          1502.66810	         8.42098e+57
          1503.47440	         8.97803e+57
          1504.28070	         8.25411e+57
          1505.08700	         8.79192e+57
          1505.89330	         9.46053e+57
          1506.69960	         8.49781e+57
          1507.50590	         9.20299e+57
          1508.31220	         8.80887e+57
          1509.11850	         8.57739e+57
          1509.92480	         9.79787e+57
          1510.73110	         1.01271e+58
          1511.53740	         7.68001e+57
          1512.34370	         7.47853e+57
          1513.15000	         9.31148e+57
          1513.95630	         9.82237e+57
          1514.76260	         8.44930e+57
          1515.56890	         7.90768e+57
          1516.37520	         9.08197e+57
          1517.18150	         8.92779e+57
          1517.98780	         7.49863e+57
          1518.79410	         7.01084e+57
          1519.60040	         8.41503e+57
          1520.40670	         9.93281e+57
          1521.21300	         9.49523e+57
          1522.01930	         7.75120e+57
          1522.82560	         8.72286e+57
          1523.63190	         9.51677e+57
          1524.43820	         8.61232e+57
          1525.24450	         6.64065e+57
          1526.05080	         6.57469e+57
          1526.85710	         6.93159e+57
          1527.66340	         7.01036e+57
          1528.46970	         8.26942e+57
          1529.27600	         8.38840e+57
          1530.08230	         7.47912e+57
          1530.88860	         7.99019e+57
          1531.69490	         8.92256e+57
          1532.50120	         9.18145e+57
          1533.30750	         9.72975e+57
          1534.11380	         9.19890e+57
          1534.92010	         9.12676e+57
          1535.72640	         9.85249e+57
          1536.53270	         1.02926e+58
          1537.33900	         9.52971e+57
          1538.14530	         8.09896e+57
          1538.95160	         9.40879e+57
          1539.75790	         1.04212e+58
          1540.56420	         9.64648e+57
          1541.37050	         8.54831e+57
          1542.17680	         7.28088e+57
          1542.98310	         8.22728e+57
          1543.78940	         9.02124e+57
          1544.59570	         7.13300e+57
          1545.40200	         7.60007e+57
          1546.20830	         9.41282e+57
          1547.01460	         1.01215e+58
          1547.82090	         1.14105e+58
          1548.62720	         1.26127e+58
          1549.43350	         1.25885e+58
          1550.23980	         1.19266e+58
          1551.04610	         1.26342e+58
          1551.85240	         1.20810e+58
          1552.65870	         1.11440e+58
          1553.46500	         1.01996e+58
          1554.27130	         9.72141e+57
          1555.07760	         9.79569e+57
          1555.88390	         9.46371e+57
          1556.69020	         8.56642e+57
          1557.49650	         8.36975e+57
          1558.30280	         8.23429e+57
          1559.10910	         8.61241e+57
          1559.91540	         8.70053e+57
          1560.72170	         8.70871e+57
          1561.52800	         8.97580e+57
          1562.33430	         8.86815e+57
          1563.14060	         8.18033e+57
          1563.94690	         7.65890e+57
          1564.75320	         8.00548e+57
          1565.55950	         6.92514e+57
          1566.36580	         7.05064e+57
          1567.17210	         8.86217e+57
          1567.97840	         9.85057e+57
          1568.78470	         8.87427e+57
          1569.59100	         9.56729e+57
          1570.39730	         8.97531e+57
          1571.20360	         7.78339e+57
          1572.00990	         7.64743e+57
          1572.81620	         8.49637e+57
          1573.62250	         1.11069e+58
          1574.42880	         1.01339e+58
          1575.23510	         7.34959e+57
          1576.04140	         8.62432e+57
          1576.84770	         1.00197e+58
          1577.65400	         9.33469e+57
          1578.46030	         1.04802e+58
          1579.26660	         1.06561e+58
          1580.07290	         8.72286e+57
          1580.87920	         7.29615e+57
          1581.68550	         7.92784e+57
          1582.49180	         8.66699e+57
          1583.29810	         8.07427e+57
          1584.10440	         7.78012e+57
          1584.91070	         8.17574e+57
          1585.71700	         8.49612e+57
          1586.52330	         8.56954e+57
          1587.32960	         8.36286e+57
          1588.13590	         8.44626e+57
          1588.94220	         9.12632e+57
          1589.74850	         9.07770e+57
          1590.55480	         9.24155e+57
          1591.36110	         8.62778e+57
          1592.16740	         9.03817e+57
          1592.97370	         8.49441e+57
          1593.78000	         8.66231e+57
          1594.58630	         9.37080e+57
          1595.39260	         9.25197e+57
          1596.19890	         8.49770e+57
          1597.00520	         9.10813e+57
          1597.81150	         9.23442e+57
          1598.61780	         7.92418e+57
          1599.42410	         7.34304e+57
          1600.23040	         6.63740e+57
          1601.03670	         7.33703e+57
          1601.84300	         6.93568e+57
          1602.64930	         8.24359e+57
          1603.45560	         9.03022e+57
          1604.26190	         7.61162e+57
          1605.06820	         7.82931e+57
          1605.87450	         7.36556e+57
          1606.68080	         7.03498e+57
          1607.48710	         6.57519e+57
          1608.29340	         5.81430e+57
          1609.09970	         7.16348e+57
          1609.90600	         7.44182e+57
          1610.71230	         6.69745e+57
          1611.51860	         7.07392e+57
          1612.32490	         6.87589e+57
          1613.13120	         7.46319e+57
          1613.93750	         7.24831e+57
          1614.74380	         7.72501e+57
          1615.55010	         8.87068e+57
          1616.35640	         9.75436e+57
          1617.16270	         1.01616e+58
          1617.96900	         1.05014e+58
          1618.77530	         9.01074e+57
          1619.58160	         8.50207e+57
          1620.38790	         8.84086e+57
          1621.19420	         9.47451e+57
          1622.00050	         8.78722e+57
          1622.80680	         8.82407e+57
          1623.61310	         8.89739e+57
          1624.41940	         8.17048e+57
          1625.22570	         8.74508e+57
          1626.03200	         8.92888e+57
          1626.83830	         8.98691e+57
          1627.64460	         7.47816e+57
          1628.45090	         6.25691e+57
          1629.25720	         8.04253e+57
          1630.06350	         8.64255e+57
          1630.86980	         5.26049e+57
          1631.67610	         6.61450e+57
          1632.48240	         7.83930e+57
          1633.28870	         7.28173e+57
          1634.09500	         8.29231e+57
          1634.90130	         1.08165e+58
          1635.70760	         8.68157e+57
          1636.51390	         7.82505e+57
          1637.32020	         8.05335e+57
          1638.12650	         9.01289e+57
          1638.93280	         9.19874e+57
          1639.73910	         9.84123e+57
          1640.54540	         1.04691e+58
          1641.35170	         9.16550e+57
          1642.15800	         9.55747e+57
          1642.96430	         8.52112e+57
          1643.77060	         8.87935e+57
          1644.57690	         9.28185e+57
          1645.38320	         9.58419e+57
          1646.18950	         8.68194e+57
          1646.99580	         9.05853e+57
          1647.80210	         9.01891e+57
          1648.60840	         7.72988e+57
          1649.41470	         8.60688e+57
          1650.22100	         7.15789e+57
          1651.02730	         6.24981e+57
          1651.83360	         7.49784e+57
          1652.63990	         8.07077e+57
          1653.44620	         8.74567e+57
          1654.25250	         8.51040e+57
          1655.05880	         8.28592e+57
          1655.86510	         7.81340e+57
          1656.67140	         8.00822e+57
          1657.47770	         7.72900e+57
          1658.28400	         7.76050e+57
          1659.09030	         8.45553e+57
          1659.89660	         9.73053e+57
          1660.70290	         9.80116e+57
          1661.50920	         9.90328e+57
          1662.31550	         8.96424e+57
          1663.12180	         8.62991e+57
          1663.92810	         9.58917e+57
          1664.73440	         1.08630e+58
          1665.54070	         1.17716e+58
          1666.34700	         1.21070e+58
          1667.15330	         1.10758e+58
          1667.95960	         9.16752e+57
          1668.76590	         7.69600e+57
          1669.57220	         6.31475e+57
          1670.37850	         6.30304e+57
          1671.18480	         6.76120e+57
          1671.99110	         7.19489e+57
          1672.79740	         7.00937e+57
          1673.60370	         7.47677e+57
          1674.41000	         8.12795e+57
          1675.21630	         8.56695e+57
          1676.02260	         8.02079e+57
          1676.82890	         7.77248e+57
          1677.63520	         7.20769e+57
          1678.44150	         7.78426e+57
          1679.24780	         8.48256e+57
          1680.05410	         7.44171e+57
          1680.86040	         5.85571e+57
          1681.66670	         6.81359e+57
          1682.47300	         8.60813e+57
          1683.27930	         8.09056e+57
          1684.08560	         8.92131e+57
          1684.89190	         8.35920e+57
          1685.69820	         5.81109e+57
          1686.50450	         5.30417e+57
          1687.31080	         6.60553e+57
          1688.11710	         7.65218e+57
          1688.92340	         7.12609e+57
          1689.72970	         6.78865e+57
          1690.53600	         6.83646e+57
          1691.34230	         6.93589e+57
          1692.14860	         7.65058e+57
          1692.95490	         8.60530e+57
          1693.76120	         7.33568e+57
          1694.56750	         6.57860e+57
          1695.37380	         9.17276e+57
          1696.18010	         9.08695e+57
          1696.98640	         8.00160e+57
          1697.79270	         8.13423e+57
          1698.59900	         8.04881e+57
          1699.40530	         7.90044e+57
          1700.21160	         9.24910e+57
          1701.01790	         9.30158e+57
          1701.82420	         7.62296e+57
          1702.63050	         7.02153e+57
          1703.43680	         8.60213e+57
          1704.24310	         9.07740e+57
          1705.04940	         7.17729e+57
          1705.85570	         7.17979e+57
          1706.66200	         8.67238e+57
          1707.46830	         7.79363e+57
          1708.27460	         6.44163e+57
          1709.08090	         6.74185e+57
          1709.88720	         6.99979e+57
          1710.69350	         6.08095e+57
          1711.49980	         6.33145e+57
          1712.30610	         7.36319e+57
          1713.11240	         9.03053e+57
          1713.91870	         8.02786e+57
          1714.72500	         7.88160e+57
          1715.53130	         8.25853e+57
          1716.33760	         7.62716e+57
          1717.14390	         7.26262e+57
          1717.95020	         8.36739e+57
          1718.75650	         8.66150e+57
          1719.56280	         9.14948e+57
          1720.36910	         7.18648e+57
          1721.17540	         6.32872e+57
          1721.98170	         6.49802e+57
          1722.78800	         6.34002e+57
          1723.59430	         7.47543e+57
          1724.40060	         8.66913e+57
          1725.20690	         8.47953e+57
          1726.01320	         6.96857e+57
          1726.81950	         6.88974e+57
          1727.62580	         7.44384e+57
          1728.43210	         6.92240e+57
          1729.23840	         6.73305e+57
          1730.04470	         8.30051e+57
          1730.85100	         9.76811e+57
          1731.65730	         8.78859e+57
          1732.46360	         8.75947e+57
          1733.26990	         8.17022e+57
          1734.07620	         7.37504e+57
          1734.88250	         8.23465e+57
          1735.68880	         8.22724e+57
          1736.49510	         8.34250e+57
          1737.30140	         8.08601e+57
          1738.10770	         7.09364e+57
          1738.91400	         7.21573e+57
          1739.72030	         7.21647e+57
          1740.52660	         5.29125e+57
          1741.33290	         5.80338e+57
          1742.13920	         6.36252e+57
          1742.94550	         7.17711e+57
          1743.75180	         8.21078e+57
          1744.55810	         7.82135e+57
          1745.36440	         7.14699e+57
          1746.17070	         5.68471e+57
          1746.97700	         5.47680e+57
          1747.78330	         7.27048e+57
          1748.58960	         7.48935e+57
          1749.39590	         7.61181e+57
          1750.20220	         6.51597e+57
          1751.00850	         5.30868e+57
          1751.81480	         6.47370e+57
          1752.62110	         7.59357e+57
          1753.42740	         7.71873e+57
          1754.23370	         6.34299e+57
          1755.04000	         7.02915e+57
          1755.84630	         7.74614e+57
          1756.65260	         8.00611e+57
          1757.45890	         8.30022e+57
          1758.26520	         8.15488e+57
          1759.07150	         1.00034e+58
          1759.87780	         9.96029e+57
          1760.68410	         7.85640e+57
          1761.49040	         6.85489e+57
          1762.29670	         6.69081e+57
          1763.10300	         7.51461e+57
          1763.90930	         8.42012e+57
          1764.71560	         8.96489e+57
          1765.52190	         8.08862e+57
          1766.32820	         7.67084e+57
          1767.13450	         7.69771e+57
          1767.94080	         6.44682e+57
          1768.74710	         5.02289e+57
          1769.55340	         6.16573e+57
          1770.35970	         7.35044e+57
          1771.16600	         7.47075e+57
          1771.97230	         8.25028e+57
          1772.77860	         8.25354e+57
          1773.58490	         7.30954e+57
          1774.39120	         6.09532e+57
          1775.19750	         6.37488e+57
          1776.00380	         6.54805e+57
          1776.81010	         5.97068e+57
          1777.61640	         6.94840e+57
          1778.42270	         7.55889e+57
          1779.22900	         6.80698e+57
          1780.03530	         5.87613e+57
          1780.84160	         7.03938e+57
          1781.64790	         8.54610e+57
          1782.45420	         6.52252e+57
          1783.26050	         6.25915e+57
          1784.06680	         7.39568e+57
          1784.87310	         7.18079e+57
          1785.67940	         7.24927e+57
          1786.48570	         6.80773e+57
          1787.29200	         6.49015e+57
          1788.09830	         6.94615e+57
          1788.90460	         5.49701e+57
          1789.71090	         4.81638e+57
          1790.51720	         5.16706e+57
          1791.32350	         6.73175e+57
          1792.12980	         8.25304e+57
          1792.93610	         7.80790e+57
          1793.74240	         7.19109e+57
          1794.54870	         8.37195e+57
          1795.35500	         8.55316e+57
          1796.16130	         8.28182e+57
          1796.96760	         7.87903e+57
          1797.77390	         8.04990e+57
          1798.58020	         8.01364e+57
          1799.38650	         7.22999e+57
          1800.19280	         5.95338e+57
          1800.99910	         6.19911e+57
          1801.80540	         7.10535e+57
          1802.61170	         8.17493e+57
          1803.41800	         7.69770e+57
          1804.22430	         6.54142e+57
          1805.03060	         5.69551e+57
          1805.83690	         7.22001e+57
          1806.64320	         8.77266e+57
          1807.44950	         8.10187e+57
          1808.25580	         7.08691e+57
          1809.06210	         8.15803e+57
          1809.86840	         8.30298e+57
          1810.67470	         5.91600e+57
          1811.48100	         7.69717e+57
          1812.28730	         9.23738e+57
          1813.09360	         7.93573e+57
          1813.89990	         8.11043e+57
          1814.70620	         8.10466e+57
          1815.51250	         8.33490e+57
          1816.31880	         8.40453e+57
          1817.12510	         7.68234e+57
          1817.93140	         7.40708e+57
          1818.73770	         7.41191e+57
          1819.54400	         8.42029e+57
          1820.35030	         8.44822e+57
          1821.15660	         6.63780e+57
          1821.96290	         6.42798e+57
          1822.76920	         7.23662e+57
          1823.57550	         7.88013e+57
          1824.38180	         7.39342e+57
          1825.18810	         7.05276e+57
          1825.99440	         7.80698e+57
          1826.80070	         7.61709e+57
          1827.60700	         6.14164e+57
          1828.41330	         6.35759e+57
          1829.21960	         6.64954e+57
          1830.02590	         7.14896e+57
          1830.83220	         8.49272e+57
          1831.63850	         7.85184e+57
          1832.44480	         6.71529e+57
          1833.25110	         7.40288e+57
          1834.05740	         7.64591e+57
          1834.86370	         7.38374e+57
          1835.67000	         6.44911e+57
          1836.47630	         7.07333e+57
          1837.28260	         7.59391e+57
          1838.08890	         7.92965e+57
          1838.89520	         8.56326e+57
          1839.70150	         7.72151e+57
          1840.50780	         7.17813e+57
          1841.31410	         7.12921e+57
          1842.12040	         7.17228e+57
          1842.92670	         7.09872e+57
          1843.73300	         7.05284e+57
          1844.53930	         6.50692e+57
          1845.34560	         6.72084e+57
          1846.15190	         7.15383e+57
          1846.95820	         7.44903e+57
          1847.76450	         7.61865e+57
          1848.57080	         7.36062e+57
          1849.37710	         6.24458e+57
          1850.18340	         6.85530e+57
          1850.98970	         9.09387e+57
          1851.79600	         8.66350e+57
          1852.60230	         7.53701e+57
          1853.40860	         6.36989e+57
          1854.21490	         7.42768e+57
          1855.02120	         5.74072e+57
          1855.82750	         5.00085e+57
          1856.63380	         6.57496e+57
          1857.44010	         7.50606e+57
          1858.24640	         7.16391e+57
          1859.05270	         7.36080e+57
          1859.85900	         6.64992e+57
          1860.66530	         6.27161e+57
          1861.47160	         7.46922e+57
          1862.27790	         7.77399e+57
          1863.08420	         7.54011e+57
          1863.89050	         7.76793e+57
          1864.69680	         6.62638e+57
          1865.50310	         7.29888e+57
          1866.30940	         7.43779e+57
          1867.11570	         7.36291e+57
          1867.92200	         8.43681e+57
          1868.72830	         7.72652e+57
          1869.53460	         5.80474e+57
          1870.34090	         6.07996e+57
          1871.14720	         8.05097e+57
          1871.95350	         8.07684e+57
          1872.75980	         7.52044e+57
          1873.56610	         7.15688e+57
          1874.37240	         5.53131e+57
          1875.17870	         4.95390e+57
          1875.98500	         6.20010e+57
          1876.79130	         7.38372e+57
          1877.59760	         7.01135e+57
          1878.40390	         5.97313e+57
          1879.21020	         6.10554e+57
          1880.01650	         7.48097e+57
          1880.82280	         8.36414e+57
          1881.62910	         9.66031e+57
          1882.43540	         9.01255e+57
          1883.24170	         7.38131e+57
          1884.04800	         6.36317e+57
          1884.85430	         8.01724e+57
          1885.66060	         8.27825e+57
          1886.46690	         8.18332e+57
          1887.27320	         7.76787e+57
          1888.07950	         5.69575e+57
          1888.88580	         6.39062e+57
          1889.69210	         8.37721e+57
          1890.49840	         8.59113e+57
          1891.30470	         8.04622e+57
          1892.11100	         8.59194e+57
          1892.91730	         7.93506e+57
          1893.72360	         7.04442e+57
          1894.52990	         6.75458e+57
          1895.33620	         8.00191e+57
          1896.14250	         6.74033e+57
          1896.94880	         6.12671e+57
          1897.75510	         4.64576e+57
          1898.56140	         5.61646e+57
          1899.36770	         8.61235e+57
          1900.17400	         6.49030e+57
          1900.98030	         4.89412e+57
          1901.78660	         6.33426e+57
          1902.59290	         7.70377e+57
          1903.39920	         8.55196e+57
          1904.20550	         8.49728e+57
          1905.01180	         9.16588e+57
          1905.81810	         1.01300e+58
          1906.62440	         1.21069e+58
          1907.43070	         1.53079e+58
          1908.23700	         1.58869e+58
          1909.04330	         1.32859e+58
          1909.84960	         1.16340e+58
          1910.65590	         1.05835e+58
          1911.46220	         8.66257e+57
          1912.26850	         7.97242e+57
          1913.07480	         6.55403e+57
          1913.88110	         5.87741e+57
          1914.68740	         5.81821e+57
          1915.49370	         4.99220e+57
          1916.30000	         5.61076e+57
          1917.10630	         7.02790e+57
          1917.91260	         6.76473e+57
          1918.71890	         6.12935e+57
          1919.52520	         6.43600e+57
          1920.33150	         5.76923e+57
          1921.13780	         6.28545e+57
          1921.94410	         7.56635e+57
          1922.75040	         8.29273e+57
          1923.55670	         7.02856e+57
          1924.36300	         7.21063e+57
          1925.16930	         5.62086e+57
          1925.97560	         4.83439e+57
          1926.78190	         4.47547e+57
          1927.58820	         5.51840e+57
          1928.39450	         5.74396e+57
          1929.20080	         5.86219e+57
          1930.00710	         6.19770e+57
          1930.81340	         6.61028e+57
          1931.61970	         6.82879e+57
          1932.42600	         6.42532e+57
          1933.23230	         7.83241e+57
          1934.03860	         6.62801e+57
          1934.84490	         4.94721e+57
          1935.65120	         7.76906e+57
          1936.45750	         9.58805e+57
          1937.26380	         6.57987e+57
          1938.07010	         7.10102e+57
          1938.87640	         8.00052e+57
          1939.68270	         7.27098e+57
          1940.48900	         7.47320e+57
          1941.29530	         8.88405e+57
          1942.10160	         7.75579e+57
          1942.90790	         7.22821e+57
          1943.71420	         7.01891e+57
          1944.52050	         5.52495e+57
          1945.32680	         5.46376e+57
          1946.13310	         7.67141e+57
          1946.93940	         7.96313e+57
          1947.74570	         8.31199e+57
          1948.55200	         5.90668e+57
          1949.35830	         5.77297e+57
          1950.16460	         6.69489e+57
          1950.97090	         7.04807e+57
          1951.77720	         7.19749e+57
          1952.58350	         7.15375e+57
          1953.38980	         5.20886e+57
          1954.19610	         4.38008e+57
          1955.00240	         4.85820e+57
          1955.80870	         5.67132e+57
          1956.61500	         6.27000e+57
          1957.42130	         5.49477e+57
          1958.22760	         6.52379e+57
          1959.03390	         7.89192e+57
          1959.84020	         7.41260e+57
          1960.64650	         7.35052e+57
          1961.45280	         7.24438e+57
          1962.25910	         6.59591e+57
          1963.06540	         6.51909e+57
          1963.87170	         5.73545e+57
          1964.67800	         6.52693e+57
          1965.48430	         5.69015e+57
          1966.29060	         5.10159e+57
          1967.09690	         7.49065e+57
          1967.90320	         6.65585e+57
          1968.70950	         6.28998e+57
          1969.51580	         4.44196e+57
          1970.32210	         6.34528e+57
          1971.12840	         6.82124e+57
          1971.93470	         4.17951e+57
          1972.74100	         4.02438e+57
          1973.54730	         5.40040e+57
          1974.35360	         6.53077e+57
          1975.15990	         8.09629e+57
          1975.96620	         8.33401e+57
          1976.77250	         8.70809e+57
          1977.57880	         8.02481e+57
          1978.38510	         6.26638e+57
          1979.19140	         6.94626e+57
          1979.99770	         8.16681e+57
          1980.80400	         7.76265e+57
          1981.61030	         6.79141e+57
          1982.41660	         6.72567e+57
          1983.22290	         5.75497e+57
          1984.02920	         4.92007e+57
          1984.83550	         6.30571e+57
          1985.64180	         7.52293e+57
          1986.44810	         7.27530e+57
          1987.25440	         6.33942e+57
          1988.06070	         5.56441e+57
          1988.86700	         6.80105e+57
          1989.67330	         6.57186e+57
          1990.47960	         6.52655e+57
          1991.28590	         5.99505e+57
          1992.09220	         5.77796e+57
          1992.89850	         6.03222e+57
          1993.70480	         6.02182e+57
          1994.51110	         4.71550e+57
          1995.31740	         4.40815e+57
          1996.12370	         4.20662e+57
          1996.93000	         5.60258e+57
          1997.73630	         7.59231e+57
          1998.54260	         8.09167e+57
          1999.34890	         7.16067e+57
          2000.15520	         6.30596e+57
          2000.96150	         6.58843e+57
          2001.76780	         6.12868e+57
          2002.57410	         5.64238e+57
          2003.38040	         5.72166e+57
          2004.18670	         5.75524e+57
          2004.99300	         6.90773e+57
          2005.79930	         6.68359e+57
          2006.60560	         6.46825e+57
          2007.41190	         6.20942e+57
          2008.21820	         6.67417e+57
          2009.02450	         7.27100e+57
          2009.83080	         6.31303e+57
          2010.63710	         5.66470e+57
          2011.44340	         6.67058e+57
          2012.24970	         7.44518e+57
          2013.05600	         7.44300e+57
          2013.86230	         6.73510e+57
          2014.66860	         6.09488e+57
          2015.47490	         6.85282e+57
          2016.28120	         6.45616e+57
          2017.08750	         5.32386e+57
          2017.89380	         5.73638e+57
          2018.70010	         6.67416e+57
          2019.50640	         4.97711e+57
          2020.31270	         5.94497e+57
          2021.11900	         7.78821e+57
          2021.92530	         7.63830e+57
          2022.73160	         7.94432e+57
          2023.53790	         7.12740e+57
          2024.34420	         5.95295e+57
          2025.15050	         4.65148e+57
          2025.95680	         5.61677e+57
          2026.76310	         6.58659e+57
          2027.56940	         6.40777e+57
          2028.37570	         6.34529e+57
          2029.18200	         5.24403e+57
          2029.98830	         6.15355e+57
          2030.79460	         6.52638e+57
          2031.60090	         6.21868e+57
          2032.40720	         6.60162e+57
          2033.21350	         4.69166e+57
          2034.01980	         4.59899e+57
          2034.82610	         5.34203e+57
          2035.63240	         5.34569e+57
          2036.43870	         5.47573e+57
          2037.24500	         6.82660e+57
          2038.05130	         7.19139e+57
          2038.85760	         7.13940e+57
          2039.66390	         6.34510e+57
          2040.47020	         5.67876e+57
          2041.27650	         5.05901e+57
          2042.08280	         5.10930e+57
          2042.88910	         6.58437e+57
          2043.69540	         6.09537e+57
          2044.50170	         5.91625e+57
          2045.30800	         6.08698e+57
          2046.11430	         5.39977e+57
          2046.92060	         4.90697e+57
          2047.72690	         5.81949e+57
          2048.53320	         5.59169e+57
          2049.33950	         5.26900e+57
          2050.14580	         5.93224e+57
          2050.95210	         7.31804e+57
          2051.75840	         7.42416e+57
          2052.56470	         5.70999e+57
          2053.37100	         4.73203e+57
          2054.17730	         4.57851e+57
          2054.98360	         4.61172e+57
          2055.78990	         1.76183e+57
          2056.59620	         2.65136e+57
          2057.40250	         5.39998e+57
          2058.20880	         7.01323e+57
          2059.01510	         6.73372e+57
          2059.82140	         6.35057e+57
          2060.62770	         9.75681e+57
          2061.43400	         1.56501e+58
          2062.24030	         9.66356e+57
          2063.04660	         4.67822e+57
          2063.85290	         1.24630e+57
          2064.65920	        -4.12288e+57
          2065.46550	        -9.48493e+57
          2066.27180	        -7.63485e+57
          2067.07810	         1.80856e+57
          2067.88440	         4.31112e+57
          2068.69070	         5.93588e+57
          2069.49700	         6.10800e+57
          2070.30330	         3.08988e+57
          2071.10960	         6.94101e+57
          2071.91590	         6.39356e+57
          2072.72220	         4.40623e+57
          2073.52850	         5.47854e+57
          2074.33480	         4.31712e+57
          2075.14110	         4.33050e+57
          2075.94740	         4.08934e+57
          2076.75370	         4.74181e+57
          2077.56000	         5.22650e+57
          2078.36630	         5.15780e+57
          2079.17260	         5.47684e+57
          2079.97890	         4.35077e+57
          2080.78520	         5.50495e+57
          2081.59150	         3.72747e+57
          2082.39780	         4.54817e+57
          2083.20410	         4.41501e+57
          2084.01040	         2.87346e+57
          2084.81670	         2.98327e+57
          2085.62300	         2.61758e+57
          2086.42930	         3.42423e+57
          2087.23560	         3.70465e+57
          2088.04190	         5.05134e+57
          2088.84820	         4.83491e+57
          2089.65450	         2.02772e+57
          2090.46080	         2.36432e+57
          2091.26710	         3.63532e+57
          2092.07340	         3.48853e+57
          2092.87970	         3.05303e+57
          2093.68600	        -5.30838e+56
          2094.49230	         8.56065e+56
          2095.29860	         3.60134e+57
          2096.10490	         3.65584e+57
          2096.91120	         1.65341e+57
          2097.71750	         9.35577e+56
          2098.52380	         5.65944e+56
          2099.33010	         9.22945e+56
          2100.13640	         8.06435e+56
          2100.94270	         9.73774e+56
          2101.74900	         3.14357e+57
          2102.55530	         4.68849e+57
          2103.36160	         3.87601e+57
          2104.16790	         2.85910e+57
          2104.97420	         3.67423e+56
          2105.78050	         6.17546e+56
          2106.58680	         8.69681e+56
          2107.39310	         2.86577e+56
          2108.19940	         1.76728e+57
          2109.00570	        -6.62247e+56
          2109.81200	        -8.72715e+56
          2110.61830	         2.85908e+57
          2111.42460	         2.25428e+57
          2112.23090	         1.78309e+57
          2113.03720	        -2.39221e+56
          2113.84350	         4.78389e+57
          2114.64980	         3.73896e+57
          2115.45610	        -2.46315e+57
          2116.26240	        -1.09851e+57
          2117.06870	        -6.65119e+56
          2117.87500	        -3.35526e+57
          2118.68130	        -1.87154e+56
          2119.48760	         2.29630e+57
          2120.29390	        -9.87384e+56
          2121.10020	        -5.13858e+57
          2121.90650	        -4.71325e+57
          2122.71280	        -1.42796e+57
          2123.51910	         2.05953e+57
          2124.32540	         4.55762e+57
          2125.13170	         5.60214e+56
          2125.93800	         2.17610e+57
          2126.74430	        -1.79237e+57
          2127.55060	        -7.08283e+57
          2128.35690	         2.20618e+57
          2129.16320	         1.34396e+57
          2129.96950	        -1.39281e+57
          2130.77580	         3.22828e+57
          2131.58210	        -2.56446e+57
          2132.38840	        -2.34646e+57
          2133.19470	        -4.95106e+57
          2134.00100	         1.02268e+57
          2134.80730	         1.98035e+57
          2135.61360	         7.87953e+57
          2136.41990	         8.81013e+57
          2137.22620	         8.07871e+57
          2138.03250	         4.19875e+57
          2138.83880	        -9.86882e+57
          2139.64510	        -5.17432e+56
          2140.45140	        -5.29874e+56
          2141.25770	        -1.04903e+58
          2142.06400	         1.03205e+56
          2142.87030	         7.60797e+57
          2143.67660	         1.03768e+58
          2144.48290	         5.74896e+57
          2145.28920	         1.12153e+58
          2146.09550	        -8.66569e+56
          2146.90180	        -8.45536e+57
          2147.70810	        -1.16083e+58
          2148.51440	        -1.21772e+58
          2149.32070	        -7.90980e+57
          2150.12700	        -1.20489e+58
          2150.93330	        -5.80018e+57
          2151.73960	        -4.35361e+57
          2152.54590	        -2.78596e+57
          2153.35220	         3.42123e+57
          2154.15850	        -8.66707e+54
          2154.96480	        -2.04650e+57
          2155.77110	         9.85399e+56
          2156.57740	        -5.31659e+57
          2157.38370	        -6.31926e+57
          2158.19000	         3.90376e+57
          2158.99630	        -8.91714e+57
          2159.80260	        -1.52977e+58
          2160.60890	        -9.00902e+57
          2161.41520	        -7.62543e+56
          2162.22150	        -3.18099e+57
          2163.02780	        -1.44610e+57
          2163.83410	        -9.13205e+57
          2164.64040	        -1.65492e+58
          2165.44670	        -1.88568e+58
          2166.25300	        -8.28166e+57
          2167.05930	        -4.93135e+57
          2167.86560	        -5.33997e+57
          2168.67190	        -1.24115e+57
          2169.47820	        -1.49883e+58
          2170.28450	        -5.24952e+57
          2171.09080	        -7.00973e+57
          2171.89710	        -5.52067e+56
          2172.70340	         1.82929e+57
          2173.50970	        -5.54676e+57
          2174.31600	        -2.13638e+57
          2175.12230	         3.29106e+57
          2175.92860	        -3.92818e+57
          2176.73490	        -1.05815e+58
          2177.54120	        -8.69044e+57
          2178.34750	        -4.90403e+57
          2179.15380	                 nan
          2179.96010	                 nan
          2180.76640	                 nan
          2181.57270	                 nan
          2182.37900	                 nan
          2183.18530	                 nan
          2183.99160	                 nan
          2184.79790	                 nan
          2185.60420	                 nan
          2186.41050	                 nan
          2187.21680	                 nan
          2188.02310	                 nan
          2188.82940	                 nan
          2189.63570	                 nan
          2190.44200	                 nan
          2191.24830	                 nan
          2192.05460	                 nan
          2192.86090	                 nan
          2193.66720	                 nan
          2194.47350	                 nan
          2195.27980	                 nan
          2196.08610	                 nan
          2196.89240	                 nan
          2197.69870	                 nan
          2198.50500	                 nan
          2199.31130	                 nan
          2200.11760	                 nan
          2200.92390	                 nan
          2201.73020	                 nan
          2202.53650	                 nan
          2203.34280	                 nan
          2204.14910	                 nan
          2204.95540	                 nan
          2205.76170	                 nan
          2206.56800	                 nan
          2207.37430	                 nan
          2208.18060	                 nan
          2208.98690	                 nan
          2209.79320	                 nan
          2210.59950	                 nan
          2211.40580	                 nan
          2212.21210	                 nan
          2213.01840	                 nan
          2213.82470	                 nan
          2214.63100	                 nan
          2215.43730	         0.00000e+00
