#sample_348_stacked_spectrum_rest_UV-bands_median_H-alpha_noDC.txt
#median Lum: 1.67166e+42
#Rest-frame wavelength (A) | Luminosity (erg/s/A)
#
          1110.00000	         0.00000e+00
          1110.80630	         3.96633e+59
          1111.61260	         1.17525e+59
          1112.41890	         2.75582e+58
          1113.22520	        -4.70915e+58
          1114.03150	        -1.18287e+59
          1114.83780	        -4.10844e+58
          1115.64410	         2.32809e+59
          1116.45040	         3.33605e+59
          1117.25670	         3.68851e+57
          1118.06300	         1.34569e+59
          1118.86930	        -2.95280e+58
          1119.67560	         7.55737e+58
          1120.48190	        -3.67218e+58
          1121.28820	        -9.36426e+58
          1122.09450	        -2.84254e+58
          1122.90080	        -2.94607e+58
          1123.70710	         9.07818e+58
          1124.51340	         1.00674e+59
          1125.31970	        -5.99424e+56
          1126.12600	         4.39225e+57
          1126.93230	        -4.56231e+58
          1127.73860	        -4.01994e+58
          1128.54490	         1.64708e+58
          1129.35120	         3.74615e+58
          1130.15750	         2.62662e+58
          1130.96380	        -1.98089e+58
          1131.77010	         1.89605e+58
          1132.57640	         4.19961e+58
          1133.38270	         2.73431e+58
          1134.18900	         3.01925e+58
          1134.99530	         2.47955e+58
          1135.80160	         3.13832e+58
          1136.60790	         3.19277e+58
          1137.41420	        -1.68813e+58
          1138.22050	         4.30127e+58
          1139.02680	         1.09397e+58
          1139.83310	         3.20704e+58
          1140.63940	         1.30919e+58
          1141.44570	        -1.60489e+58
          1142.25200	        -1.87348e+57
          1143.05830	         8.52588e+57
          1143.86460	         2.35882e+58
          1144.67090	         2.77601e+58
          1145.47720	         1.21856e+58
          1146.28350	         1.07652e+58
          1147.08980	         1.43755e+58
          1147.89610	         2.01508e+58
          1148.70240	         2.07047e+58
          1149.50870	         2.88594e+58
          1150.31500	         1.12302e+58
          1151.12130	         7.35109e+57
          1151.92760	         2.11818e+57
          1152.73390	         1.03429e+58
          1153.54020	        -4.64708e+57
          1154.34650	         1.64342e+58
          1155.15280	         1.85793e+58
          1155.95910	         1.10781e+58
          1156.76540	         1.47840e+58
          1157.57170	        -2.25313e+57
          1158.37800	        -2.64199e+57
          1159.18430	        -2.81379e+57
          1159.99060	         8.14687e+57
          1160.79690	         2.88534e+57
          1161.60320	         4.95954e+57
          1162.40950	         1.53137e+58
          1163.21580	         1.79026e+58
          1164.02210	         9.45465e+57
          1164.82840	         1.69337e+58
          1165.63470	         1.74173e+58
          1166.44100	         2.47506e+58
          1167.24730	         1.56859e+58
          1168.05360	         1.18749e+58
          1168.85990	         8.21914e+57
          1169.66620	         3.73485e+57
          1170.47250	         4.07585e+57
          1171.27880	         1.45397e+58
          1172.08510	         1.98556e+58
          1172.89140	         7.15284e+57
          1173.69770	         7.37980e+57
          1174.50400	         1.37815e+58
          1175.31030	         2.03756e+58
          1176.11660	         2.08257e+58
          1176.92290	         1.39564e+58
          1177.72920	         1.13111e+58
          1178.53550	         5.39138e+57
          1179.34180	        -4.79644e+56
          1180.14810	         3.85096e+57
          1180.95440	         8.52434e+57
          1181.76070	         7.21631e+57
          1182.56700	         1.15129e+58
          1183.37330	         8.32146e+57
          1184.17960	         8.81466e+57
          1184.98590	         1.32583e+58
          1185.79220	         1.42110e+58
          1186.59850	         1.37128e+58
          1187.40480	         1.12406e+58
          1188.21110	         1.73052e+58
          1189.01740	         1.07696e+58
          1189.82370	         1.27822e+58
          1190.63000	         1.47027e+58
          1191.43630	         1.64699e+58
          1192.24260	         1.15910e+58
          1193.04890	         8.53158e+57
          1193.85520	         5.59133e+57
          1194.66150	         3.25148e+57
          1195.46780	         6.63827e+57
          1196.27410	         1.07533e+58
          1197.08040	         6.56330e+57
          1197.88670	         1.05105e+58
          1198.69300	         1.21155e+58
          1199.49930	         1.43838e+58
          1200.30560	         1.22928e+58
          1201.11190	         8.64061e+57
          1201.91820	         1.12159e+58
          1202.72450	         9.08424e+57
          1203.53080	         1.78782e+58
          1204.33710	         1.29182e+58
          1205.14340	         8.12224e+57
          1205.94970	         9.24464e+57
          1206.75600	         9.76727e+57
          1207.56230	         5.83835e+57
          1208.36860	         8.85631e+57
          1209.17490	         7.19009e+57
          1209.98120	         6.10934e+57
          1210.78750	         8.22798e+57
          1211.59380	         1.48771e+58
          1212.40010	         1.72891e+58
          1213.20640	         2.15560e+58
          1214.01270	         2.22071e+58
          1214.81900	         2.51285e+58
          1215.62530	         4.74733e+58
          1216.43160	         9.56244e+58
          1217.23790	         1.53253e+59
          1218.04420	         1.10659e+59
          1218.85050	         8.28057e+58
          1219.65680	         5.84758e+58
          1220.46310	         3.63907e+58
          1221.26940	         2.35496e+58
          1222.07570	         1.41218e+58
          1222.88200	         1.25094e+58
          1223.68830	         1.19761e+58
          1224.49460	         1.00353e+58
          1225.30090	         5.59835e+57
          1226.10720	         3.93025e+57
          1226.91350	         5.41205e+57
          1227.71980	         8.23553e+57
          1228.52610	         1.06006e+58
          1229.33240	         1.00900e+58
          1230.13870	         7.33212e+57
          1230.94500	         7.86028e+57
          1231.75130	         5.86288e+57
          1232.55760	         6.45271e+57
          1233.36390	         8.61946e+57
          1234.17020	         9.96552e+57
          1234.97650	         7.96479e+57
          1235.78280	         5.81384e+57
          1236.58910	         8.53771e+57
          1237.39540	         1.23575e+58
          1238.20170	         9.06115e+57
          1239.00800	         1.03718e+58
          1239.81430	         1.50541e+58
          1240.62060	         1.16051e+58
          1241.42690	         8.89247e+57
          1242.23320	         1.05924e+58
          1243.03950	         7.96822e+57
          1243.84580	         6.86860e+57
          1244.65210	         9.32775e+57
          1245.45840	         9.74313e+57
          1246.26470	         7.89359e+57
          1247.07100	         8.62991e+57
          1247.87730	         1.01223e+58
          1248.68360	         5.62592e+57
          1249.48990	         7.58374e+57
          1250.29620	         9.99462e+57
          1251.10250	         7.84122e+57
          1251.90880	         5.60598e+57
          1252.71510	         4.30078e+57
          1253.52140	         4.20358e+57
          1254.32770	         8.10138e+57
          1255.13400	         1.37024e+58
          1255.94030	         1.31002e+58
          1256.74660	         1.07031e+58
          1257.55290	         1.02355e+58
          1258.35920	         8.17509e+57
          1259.16550	         7.43191e+57
          1259.97180	         5.39491e+57
          1260.77810	         8.57990e+57
          1261.58440	         8.82828e+57
          1262.39070	         7.82351e+57
          1263.19700	         1.16017e+58
          1264.00330	         1.14695e+58
          1264.80960	         1.19148e+58
          1265.61590	         1.23702e+58
          1266.42220	         1.06433e+58
          1267.22850	         8.28149e+57
          1268.03480	         1.22088e+58
          1268.84110	         1.53401e+58
          1269.64740	         1.50885e+58
          1270.45370	         1.49757e+58
          1271.26000	         1.17995e+58
          1272.06630	         1.24785e+58
          1272.87260	         1.36659e+58
          1273.67890	         1.12308e+58
          1274.48520	         9.04628e+57
          1275.29150	         1.07605e+58
          1276.09780	         1.18690e+58
          1276.90410	         1.44234e+58
          1277.71040	         1.39524e+58
          1278.51670	         1.09933e+58
          1279.32300	         1.21428e+58
          1280.12930	         1.29324e+58
          1280.93560	         1.21555e+58
          1281.74190	         1.22152e+58
          1282.54820	         1.34172e+58
          1283.35450	         1.28996e+58
          1284.16080	         1.18591e+58
          1284.96710	         1.44605e+58
          1285.77340	         1.34005e+58
          1286.57970	         1.48381e+58
          1287.38600	         1.72272e+58
          1288.19230	         1.77491e+58
          1288.99860	         1.69095e+58
          1289.80490	         1.22765e+58
          1290.61120	         1.32122e+58
          1291.41750	         1.48683e+58
          1292.22380	         1.16813e+58
          1293.03010	         7.55930e+57
          1293.83640	         9.87908e+57
          1294.64270	         1.00006e+58
          1295.44900	         5.62706e+57
          1296.25530	         6.19968e+57
          1297.06160	         9.21386e+57
          1297.86790	         9.57505e+57
          1298.67420	         7.77703e+57
          1299.48050	         9.35156e+57
          1300.28680	         1.03224e+58
          1301.09310	         7.50443e+57
          1301.89940	         4.80228e+57
          1302.70570	         5.84254e+57
          1303.51200	         7.77753e+57
          1304.31830	         9.97131e+57
          1305.12460	         9.89637e+57
          1305.93090	         1.04418e+58
          1306.73720	         1.22688e+58
          1307.54350	         1.35767e+58
          1308.34980	         1.47610e+58
          1309.15610	         1.71785e+58
          1309.96240	         1.64782e+58
          1310.76870	         1.32882e+58
          1311.57500	         1.27130e+58
          1312.38130	         1.14164e+58
          1313.18760	         1.40599e+58
          1313.99390	         1.50819e+58
          1314.80020	         1.36310e+58
          1315.60650	         1.28707e+58
          1316.41280	         1.29349e+58
          1317.21910	         1.11258e+58
          1318.02540	         1.30442e+58
          1318.83170	         1.35256e+58
          1319.63800	         1.22986e+58
          1320.44430	         1.17307e+58
          1321.25060	         1.19623e+58
          1322.05690	         1.22184e+58
          1322.86320	         1.19292e+58
          1323.66950	         1.06726e+58
          1324.47580	         9.31827e+57
          1325.28210	         8.75415e+57
          1326.08840	         9.95018e+57
          1326.89470	         1.25197e+58
          1327.70100	         1.04991e+58
          1328.50730	         7.48730e+57
          1329.31360	         9.78012e+57
          1330.11990	         1.05663e+58
          1330.92620	         9.13942e+57
          1331.73250	         1.04200e+58
          1332.53880	         1.01296e+58
          1333.34510	         9.13636e+57
          1334.15140	         9.50978e+57
          1334.95770	         9.40729e+57
          1335.76400	         1.08329e+58
          1336.57030	         1.11585e+58
          1337.37660	         1.01345e+58
          1338.18290	         1.17609e+58
          1338.98920	         1.23561e+58
          1339.79550	         1.09880e+58
          1340.60180	         1.09561e+58
          1341.40810	         1.37348e+58
          1342.21440	         1.22757e+58
          1343.02070	         1.07276e+58
          1343.82700	         1.38693e+58
          1344.63330	         1.26260e+58
          1345.43960	         1.36802e+58
          1346.24590	         1.13938e+58
          1347.05220	         1.10083e+58
          1347.85850	         1.22493e+58
          1348.66480	         1.23007e+58
          1349.47110	         1.12519e+58
          1350.27740	         1.07558e+58
          1351.08370	         1.20253e+58
          1351.89000	         1.24699e+58
          1352.69630	         1.18720e+58
          1353.50260	         1.09972e+58
          1354.30890	         1.23130e+58
          1355.11520	         1.24002e+58
          1355.92150	         1.00021e+58
          1356.72780	         9.88432e+57
          1357.53410	         9.52018e+57
          1358.34040	         1.03034e+58
          1359.14670	         1.05593e+58
          1359.95300	         9.84873e+57
          1360.75930	         8.97139e+57
          1361.56560	         1.02120e+58
          1362.37190	         1.08401e+58
          1363.17820	         1.07997e+58
          1363.98450	         1.09063e+58
          1364.79080	         1.16587e+58
          1365.59710	         1.20596e+58
          1366.40340	         1.21544e+58
          1367.20970	         1.08597e+58
          1368.01600	         9.20157e+57
          1368.82230	         8.79650e+57
          1369.62860	         1.01659e+58
          1370.43490	         9.27382e+57
          1371.24120	         7.87085e+57
          1372.04750	         7.36244e+57
          1372.85380	         9.54416e+57
          1373.66010	         1.08001e+58
          1374.46640	         1.21825e+58
          1375.27270	         1.13453e+58
          1376.07900	         8.60082e+57
          1376.88530	         7.38490e+57
          1377.69160	         8.34958e+57
          1378.49790	         7.06411e+57
          1379.30420	         8.21368e+57
          1380.11050	         8.87853e+57
          1380.91680	         8.12038e+57
          1381.72310	         7.82652e+57
          1382.52940	         9.16362e+57
          1383.33570	         9.09185e+57
          1384.14200	         1.01108e+58
          1384.94830	         1.23071e+58
          1385.75460	         1.07016e+58
          1386.56090	         1.04083e+58
          1387.36720	         1.11870e+58
          1388.17350	         1.22107e+58
          1388.97980	         1.09304e+58
          1389.78610	         9.17610e+57
          1390.59240	         8.32835e+57
          1391.39870	         7.49708e+57
          1392.20500	         8.73284e+57
          1393.01130	         7.86198e+57
          1393.81760	         7.32921e+57
          1394.62390	         7.30732e+57
          1395.43020	         6.25935e+57
          1396.23650	         7.18213e+57
          1397.04280	         6.85148e+57
          1397.84910	         8.39931e+57
          1398.65540	         8.92353e+57
          1399.46170	         9.71512e+57
          1400.26800	         9.49735e+57
          1401.07430	         8.03939e+57
          1401.88060	         7.96347e+57
          1402.68690	         9.35952e+57
          1403.49320	         1.02245e+58
          1404.29950	         9.96484e+57
          1405.10580	         1.03160e+58
          1405.91210	         1.04285e+58
          1406.71840	         1.07980e+58
          1407.52470	         1.13031e+58
          1408.33100	         1.08193e+58
          1409.13730	         1.13049e+58
          1409.94360	         1.13989e+58
          1410.74990	         1.01268e+58
          1411.55620	         8.48311e+57
          1412.36250	         8.70476e+57
          1413.16880	         9.39031e+57
          1413.97510	         8.29399e+57
          1414.78140	         9.20341e+57
          1415.58770	         1.02698e+58
          1416.39400	         8.78192e+57
          1417.20030	         8.63965e+57
          1418.00660	         8.43742e+57
          1418.81290	         9.38533e+57
          1419.61920	         9.35156e+57
          1420.42550	         1.06877e+58
          1421.23180	         1.08666e+58
          1422.03810	         9.41417e+57
          1422.84440	         9.54931e+57
          1423.65070	         1.17649e+58
          1424.45700	         1.16397e+58
          1425.26330	         9.09091e+57
          1426.06960	         8.41001e+57
          1426.87590	         9.44059e+57
          1427.68220	         1.03427e+58
          1428.48850	         1.05671e+58
          1429.29480	         9.29846e+57
          1430.10110	         9.16355e+57
          1430.90740	         8.10821e+57
          1431.71370	         8.79256e+57
          1432.52000	         9.12078e+57
          1433.32630	         7.35071e+57
          1434.13260	         7.32547e+57
          1434.93890	         8.01284e+57
          1435.74520	         7.84913e+57
          1436.55150	         8.31229e+57
          1437.35780	         8.80448e+57
          1438.16410	         8.17152e+57
          1438.97040	         8.20157e+57
          1439.77670	         7.62220e+57
          1440.58300	         8.15114e+57
          1441.38930	         9.27944e+57
          1442.19560	         9.35933e+57
          1443.00190	         9.18985e+57
          1443.80820	         1.05726e+58
          1444.61450	         9.70968e+57
          1445.42080	         8.84640e+57
          1446.22710	         9.32254e+57
          1447.03340	         8.92628e+57
          1447.83970	         1.01239e+58
          1448.64600	         9.79767e+57
          1449.45230	         1.08704e+58
          1450.25860	         1.04508e+58
          1451.06490	         9.37590e+57
          1451.87120	         8.34692e+57
          1452.67750	         7.59675e+57
          1453.48380	         8.54789e+57
          1454.29010	         7.79460e+57
          1455.09640	         7.38632e+57
          1455.90270	         8.22170e+57
          1456.70900	         8.93792e+57
          1457.51530	         1.08768e+58
          1458.32160	         1.22936e+58
          1459.12790	         1.15006e+58
          1459.93420	         1.05238e+58
          1460.74050	         8.17958e+57
          1461.54680	         7.97352e+57
          1462.35310	         7.39737e+57
          1463.15940	         9.30559e+57
          1463.96570	         1.03381e+58
          1464.77200	         1.04519e+58
          1465.57830	         1.03622e+58
          1466.38460	         9.07036e+57
          1467.19090	         8.56930e+57
          1467.99720	         7.58976e+57
          1468.80350	         8.54779e+57
          1469.60980	         9.86580e+57
          1470.41610	         9.97183e+57
          1471.22240	         8.77089e+57
          1472.02870	         9.20001e+57
          1472.83500	         9.35923e+57
          1473.64130	         9.65672e+57
          1474.44760	         9.25168e+57
          1475.25390	         9.31217e+57
          1476.06020	         8.55623e+57
          1476.86650	         8.13490e+57
          1477.67280	         7.80457e+57
          1478.47910	         6.91209e+57
          1479.28540	         8.48813e+57
          1480.09170	         8.81904e+57
          1480.89800	         7.83190e+57
          1481.70430	         7.82512e+57
          1482.51060	         7.29424e+57
          1483.31690	         7.22892e+57
          1484.12320	         7.91367e+57
          1484.92950	         7.97632e+57
          1485.73580	         8.66297e+57
          1486.54210	         9.75571e+57
          1487.34840	         8.50749e+57
          1488.15470	         8.56479e+57
          1488.96100	         9.07609e+57
          1489.76730	         9.70656e+57
          1490.57360	         9.51727e+57
          1491.37990	         7.07551e+57
          1492.18620	         7.69814e+57
          1492.99250	         8.70140e+57
          1493.79880	         8.05332e+57
          1494.60510	         8.88287e+57
          1495.41140	         7.71640e+57
          1496.21770	         8.30449e+57
          1497.02400	         1.13334e+58
          1497.83030	         9.84542e+57
          1498.63660	         6.41905e+57
          1499.44290	         5.81043e+57
          1500.24920	         7.15203e+57
          1501.05550	         8.26925e+57
          1501.86180	         8.20652e+57
          1502.66810	         8.70943e+57
          1503.47440	         9.01803e+57
          1504.28070	         8.81577e+57
          1505.08700	         8.78742e+57
          1505.89330	         8.88632e+57
          1506.69960	         7.97691e+57
          1507.50590	         8.67592e+57
          1508.31220	         8.60017e+57
          1509.11850	         8.68694e+57
          1509.92480	         8.96299e+57
          1510.73110	         9.15505e+57
          1511.53740	         7.84389e+57
          1512.34370	         7.36262e+57
          1513.15000	         9.29276e+57
          1513.95630	         1.04917e+58
          1514.76260	         9.47436e+57
          1515.56890	         8.15550e+57
          1516.37520	         8.23434e+57
          1517.18150	         7.88280e+57
          1517.98780	         6.23228e+57
          1518.79410	         6.82063e+57
          1519.60040	         8.22997e+57
          1520.40670	         9.48331e+57
          1521.21300	         9.28606e+57
          1522.01930	         7.97203e+57
          1522.82560	         8.77835e+57
          1523.63190	         9.98001e+57
          1524.43820	         8.65964e+57
          1525.24450	         6.34278e+57
          1526.05080	         5.75147e+57
          1526.85710	         5.86419e+57
          1527.66340	         6.10194e+57
          1528.46970	         7.46595e+57
          1529.27600	         7.83809e+57
          1530.08230	         7.21916e+57
          1530.88860	         7.84522e+57
          1531.69490	         8.24433e+57
          1532.50120	         9.26710e+57
          1533.30750	         9.35509e+57
          1534.11380	         8.45548e+57
          1534.92010	         7.78190e+57
          1535.72640	         8.33208e+57
          1536.53270	         8.65952e+57
          1537.33900	         8.01970e+57
          1538.14530	         9.09381e+57
          1538.95160	         9.92587e+57
          1539.75790	         9.28116e+57
          1540.56420	         8.65482e+57
          1541.37050	         8.17910e+57
          1542.17680	         7.80863e+57
          1542.98310	         7.80331e+57
          1543.78940	         7.46086e+57
          1544.59570	         6.78308e+57
          1545.40200	         7.28980e+57
          1546.20830	         9.46444e+57
          1547.01460	         1.08512e+58
          1547.82090	         1.21074e+58
          1548.62720	         1.23464e+58
          1549.43350	         1.14186e+58
          1550.23980	         1.19598e+58
          1551.04610	         1.32073e+58
          1551.85240	         1.17571e+58
          1552.65870	         1.20311e+58
          1553.46500	         1.09926e+58
          1554.27130	         1.04184e+58
          1555.07760	         9.38127e+57
          1555.88390	         9.14465e+57
          1556.69020	         9.77292e+57
          1557.49650	         9.10803e+57
          1558.30280	         7.62939e+57
          1559.10910	         8.18225e+57
          1559.91540	         8.99269e+57
          1560.72170	         8.50915e+57
          1561.52800	         7.75864e+57
          1562.33430	         7.91301e+57
          1563.14060	         8.20318e+57
          1563.94690	         8.79923e+57
          1564.75320	         8.18723e+57
          1565.55950	         7.16123e+57
          1566.36580	         7.38831e+57
          1567.17210	         8.56282e+57
          1567.97840	         8.59936e+57
          1568.78470	         8.47722e+57
          1569.59100	         9.29750e+57
          1570.39730	         8.83841e+57
          1571.20360	         7.67609e+57
          1572.00990	         7.36668e+57
          1572.81620	         8.42896e+57
          1573.62250	         9.86801e+57
          1574.42880	         9.84168e+57
          1575.23510	         8.33069e+57
          1576.04140	         8.57054e+57
          1576.84770	         9.80894e+57
          1577.65400	         9.22750e+57
          1578.46030	         8.58789e+57
          1579.26660	         9.50610e+57
          1580.07290	         9.23607e+57
          1580.87920	         7.65376e+57
          1581.68550	         7.92677e+57
          1582.49180	         9.19391e+57
          1583.29810	         8.17914e+57
          1584.10440	         7.84640e+57
          1584.91070	         7.09139e+57
          1585.71700	         8.43181e+57
          1586.52330	         9.70388e+57
          1587.32960	         8.53419e+57
          1588.13590	         8.43585e+57
          1588.94220	         8.24745e+57
          1589.74850	         8.24018e+57
          1590.55480	         8.35575e+57
          1591.36110	         8.57169e+57
          1592.16740	         8.67151e+57
          1592.97370	         8.15493e+57
          1593.78000	         8.53447e+57
          1594.58630	         9.48468e+57
          1595.39260	         8.46016e+57
          1596.19890	         9.80899e+57
          1597.00520	         1.07000e+58
          1597.81150	         9.48542e+57
          1598.61780	         8.32597e+57
          1599.42410	         7.58000e+57
          1600.23040	         6.35651e+57
          1601.03670	         7.79532e+57
          1601.84300	         7.65994e+57
          1602.64930	         8.54735e+57
          1603.45560	         9.36578e+57
          1604.26190	         8.52762e+57
          1605.06820	         8.04620e+57
          1605.87450	         7.95492e+57
          1606.68080	         7.29572e+57
          1607.48710	         6.18917e+57
          1608.29340	         5.88972e+57
          1609.09970	         6.85281e+57
          1609.90600	         7.77536e+57
          1610.71230	         7.55158e+57
          1611.51860	         6.64561e+57
          1612.32490	         6.29672e+57
          1613.13120	         7.08489e+57
          1613.93750	         7.72680e+57
          1614.74380	         8.70029e+57
          1615.55010	         8.79374e+57
          1616.35640	         9.27366e+57
          1617.16270	         9.10552e+57
          1617.96900	         9.07994e+57
          1618.77530	         8.21035e+57
          1619.58160	         7.88184e+57
          1620.38790	         8.79918e+57
          1621.19420	         9.25727e+57
          1622.00050	         8.47304e+57
          1622.80680	         8.76149e+57
          1623.61310	         9.11222e+57
          1624.41940	         8.88132e+57
          1625.22570	         8.74447e+57
          1626.03200	         8.91357e+57
          1626.83830	         7.56540e+57
          1627.64460	         6.84362e+57
          1628.45090	         7.30209e+57
          1629.25720	         9.89250e+57
          1630.06350	         9.23146e+57
          1630.86980	         5.27815e+57
          1631.67610	         5.87095e+57
          1632.48240	         8.52563e+57
          1633.28870	         8.89929e+57
          1634.09500	         8.49052e+57
          1634.90130	         9.84056e+57
          1635.70760	         9.18362e+57
          1636.51390	         7.46103e+57
          1637.32020	         7.59058e+57
          1638.12650	         8.31612e+57
          1638.93280	         9.23063e+57
          1639.73910	         1.10874e+58
          1640.54540	         1.20977e+58
          1641.35170	         9.80505e+57
          1642.15800	         8.93337e+57
          1642.96430	         8.85416e+57
          1643.77060	         9.33951e+57
          1644.57690	         9.04660e+57
          1645.38320	         8.62075e+57
          1646.18950	         6.80998e+57
          1646.99580	         8.50210e+57
          1647.80210	         8.98507e+57
          1648.60840	         8.32073e+57
          1649.41470	         8.51754e+57
          1650.22100	         7.45557e+57
          1651.02730	         6.62568e+57
          1651.83360	         7.16343e+57
          1652.63990	         8.28123e+57
          1653.44620	         9.25210e+57
          1654.25250	         8.47639e+57
          1655.05880	         6.90898e+57
          1655.86510	         7.69472e+57
          1656.67140	         8.55807e+57
          1657.47770	         8.58619e+57
          1658.28400	         8.16331e+57
          1659.09030	         8.06886e+57
          1659.89660	         9.12992e+57
          1660.70290	         1.03517e+58
          1661.50920	         8.92191e+57
          1662.31550	         7.95679e+57
          1663.12180	         8.20566e+57
          1663.92810	         8.97293e+57
          1664.73440	         1.06184e+58
          1665.54070	         1.21029e+58
          1666.34700	         1.21891e+58
          1667.15330	         1.13217e+58
          1667.95960	         8.56570e+57
          1668.76590	         6.81724e+57
          1669.57220	         7.01869e+57
          1670.37850	         6.68261e+57
          1671.18480	         7.06186e+57
          1671.99110	         6.48856e+57
          1672.79740	         6.22834e+57
          1673.60370	         6.82565e+57
          1674.41000	         6.93975e+57
          1675.21630	         7.19849e+57
          1676.02260	         7.55717e+57
          1676.82890	         6.90227e+57
          1677.63520	         6.28174e+57
          1678.44150	         6.54167e+57
          1679.24780	         8.00068e+57
          1680.05410	         6.98063e+57
          1680.86040	         6.68724e+57
          1681.66670	         7.67350e+57
          1682.47300	         8.52189e+57
          1683.27930	         8.81792e+57
          1684.08560	         9.01538e+57
          1684.89190	         7.33061e+57
          1685.69820	         5.57621e+57
          1686.50450	         5.40711e+57
          1687.31080	         6.47224e+57
          1688.11710	         6.98703e+57
          1688.92340	         6.30083e+57
          1689.72970	         6.33927e+57
          1690.53600	         7.25117e+57
          1691.34230	         8.06458e+57
          1692.14860	         7.95154e+57
          1692.95490	         6.95122e+57
          1693.76120	         6.64385e+57
          1694.56750	         7.18802e+57
          1695.37380	         7.87359e+57
          1696.18010	         8.02874e+57
          1696.98640	         8.19503e+57
          1697.79270	         8.90069e+57
          1698.59900	         8.04655e+57
          1699.40530	         6.30389e+57
          1700.21160	         7.30828e+57
          1701.01790	         9.36167e+57
          1701.82420	         8.48679e+57
          1702.63050	         7.22502e+57
          1703.43680	         7.33282e+57
          1704.24310	         7.74831e+57
          1705.04940	         7.83517e+57
          1705.85570	         7.92781e+57
          1706.66200	         9.18153e+57
          1707.46830	         9.42686e+57
          1708.27460	         7.61480e+57
          1709.08090	         6.51762e+57
          1709.88720	         6.03463e+57
          1710.69350	         6.14509e+57
          1711.49980	         6.62642e+57
          1712.30610	         5.63911e+57
          1713.11240	         6.59386e+57
          1713.91870	         7.40183e+57
          1714.72500	         8.19472e+57
          1715.53130	         9.89218e+57
          1716.33760	         8.40069e+57
          1717.14390	         8.12977e+57
          1717.95020	         8.81886e+57
          1718.75650	         9.70792e+57
          1719.56280	         8.94185e+57
          1720.36910	         7.45158e+57
          1721.17540	         7.29810e+57
          1721.98170	         6.67047e+57
          1722.78800	         7.18994e+57
          1723.59430	         7.79317e+57
          1724.40060	         8.10077e+57
          1725.20690	         8.22180e+57
          1726.01320	         8.77104e+57
          1726.81950	         7.92238e+57
          1727.62580	         6.22300e+57
          1728.43210	         6.74842e+57
          1729.23840	         8.27157e+57
          1730.04470	         8.16071e+57
          1730.85100	         8.08480e+57
          1731.65730	         8.47280e+57
          1732.46360	         7.58956e+57
          1733.26990	         7.21283e+57
          1734.07620	         7.29137e+57
          1734.88250	         7.30546e+57
          1735.68880	         8.00096e+57
          1736.49510	         8.60139e+57
          1737.30140	         8.27400e+57
          1738.10770	         7.41318e+57
          1738.91400	         7.94707e+57
          1739.72030	         8.30328e+57
          1740.52660	         6.52911e+57
          1741.33290	         5.25932e+57
          1742.13920	         5.99759e+57
          1742.94550	         6.35150e+57
          1743.75180	         6.90682e+57
          1744.55810	         8.19322e+57
          1745.36440	         7.44893e+57
          1746.17070	         4.73231e+57
          1746.97700	         5.04472e+57
          1747.78330	         6.69272e+57
          1748.58960	         6.65075e+57
          1749.39590	         6.37248e+57
          1750.20220	         6.00938e+57
          1751.00850	         5.61146e+57
          1751.81480	         6.27092e+57
          1752.62110	         7.44677e+57
          1753.42740	         8.39325e+57
          1754.23370	         7.24860e+57
          1755.04000	         7.33349e+57
          1755.84630	         8.01806e+57
          1756.65260	         8.23321e+57
          1757.45890	         8.61387e+57
          1758.26520	         8.30206e+57
          1759.07150	         9.02274e+57
          1759.87780	         8.35896e+57
          1760.68410	         7.78975e+57
          1761.49040	         7.89724e+57
          1762.29670	         6.66344e+57
          1763.10300	         7.32755e+57
          1763.90930	         6.94091e+57
          1764.71560	         7.96702e+57
          1765.52190	         7.49642e+57
          1766.32820	         8.49778e+57
          1767.13450	         8.68647e+57
          1767.94080	         7.23587e+57
          1768.74710	         6.92237e+57
          1769.55340	         7.18754e+57
          1770.35970	         7.09170e+57
          1771.16600	         7.14255e+57
          1771.97230	         8.13377e+57
          1772.77860	         8.40436e+57
          1773.58490	         7.21682e+57
          1774.39120	         6.52401e+57
          1775.19750	         5.89928e+57
          1776.00380	         6.44763e+57
          1776.81010	         6.23926e+57
          1777.61640	         6.36738e+57
          1778.42270	         7.43942e+57
          1779.22900	         6.31655e+57
          1780.03530	         6.64395e+57
          1780.84160	         7.35288e+57
          1781.64790	         8.11684e+57
          1782.45420	         6.97974e+57
          1783.26050	         5.98983e+57
          1784.06680	         7.53316e+57
          1784.87310	         7.77696e+57
          1785.67940	         7.19105e+57
          1786.48570	         6.96111e+57
          1787.29200	         7.43830e+57
          1788.09830	         7.37603e+57
          1788.90460	         6.45695e+57
          1789.71090	         5.59447e+57
          1790.51720	         5.01787e+57
          1791.32350	         6.37410e+57
          1792.12980	         7.91032e+57
          1792.93610	         7.27098e+57
          1793.74240	         7.38845e+57
          1794.54870	         8.52285e+57
          1795.35500	         8.08816e+57
          1796.16130	         7.74321e+57
          1796.96760	         7.17895e+57
          1797.77390	         7.98789e+57
          1798.58020	         7.48379e+57
          1799.38650	         6.69729e+57
          1800.19280	         6.89754e+57
          1800.99910	         7.95360e+57
          1801.80540	         8.02824e+57
          1802.61170	         7.38657e+57
          1803.41800	         8.29774e+57
          1804.22430	         7.65911e+57
          1805.03060	         7.39897e+57
          1805.83690	         7.77777e+57
          1806.64320	         6.99200e+57
          1807.44950	         6.91870e+57
          1808.25580	         7.16401e+57
          1809.06210	         8.73795e+57
          1809.86840	         7.35942e+57
          1810.67470	         7.82133e+57
          1811.48100	         8.42489e+57
          1812.28730	         8.41147e+57
          1813.09360	         7.51559e+57
          1813.89990	         7.32496e+57
          1814.70620	         7.36787e+57
          1815.51250	         6.99297e+57
          1816.31880	         7.46673e+57
          1817.12510	         7.23744e+57
          1817.93140	         6.95231e+57
          1818.73770	         7.83408e+57
          1819.54400	         8.48194e+57
          1820.35030	         8.93117e+57
          1821.15660	         6.98571e+57
          1821.96290	         6.12663e+57
          1822.76920	         7.50368e+57
          1823.57550	         7.80889e+57
          1824.38180	         7.56259e+57
          1825.18810	         7.63650e+57
          1825.99440	         8.16679e+57
          1826.80070	         7.86577e+57
          1827.60700	         5.92737e+57
          1828.41330	         5.20131e+57
          1829.21960	         6.77585e+57
          1830.02590	         7.02823e+57
          1830.83220	         7.13693e+57
          1831.63850	         6.66505e+57
          1832.44480	         6.31143e+57
          1833.25110	         8.01104e+57
          1834.05740	         8.64637e+57
          1834.86370	         7.02266e+57
          1835.67000	         6.82382e+57
          1836.47630	         7.47419e+57
          1837.28260	         8.15236e+57
          1838.08890	         8.76842e+57
          1838.89520	         8.87497e+57
          1839.70150	         8.35695e+57
          1840.50780	         7.15290e+57
          1841.31410	         6.70210e+57
          1842.12040	         7.18610e+57
          1842.92670	         6.99177e+57
          1843.73300	         6.72243e+57
          1844.53930	         6.85502e+57
          1845.34560	         7.88709e+57
          1846.15190	         8.31137e+57
          1846.95820	         8.53686e+57
          1847.76450	         7.46844e+57
          1848.57080	         5.81090e+57
          1849.37710	         6.03311e+57
          1850.18340	         7.16976e+57
          1850.98970	         7.90597e+57
          1851.79600	         8.45985e+57
          1852.60230	         7.71224e+57
          1853.40860	         7.25699e+57
          1854.21490	         6.86461e+57
          1855.02120	         6.51849e+57
          1855.82750	         5.50567e+57
          1856.63380	         6.02053e+57
          1857.44010	         7.21486e+57
          1858.24640	         6.59218e+57
          1859.05270	         6.60621e+57
          1859.85900	         5.67917e+57
          1860.66530	         5.59716e+57
          1861.47160	         6.79690e+57
          1862.27790	         6.72942e+57
          1863.08420	         7.39390e+57
          1863.89050	         8.33090e+57
          1864.69680	         7.54171e+57
          1865.50310	         6.86751e+57
          1866.30940	         5.70983e+57
          1867.11570	         6.20995e+57
          1867.92200	         6.68785e+57
          1868.72830	         7.22610e+57
          1869.53460	         7.41799e+57
          1870.34090	         7.77940e+57
          1871.14720	         7.95928e+57
          1871.95350	         6.50226e+57
          1872.75980	         6.55286e+57
          1873.56610	         6.66477e+57
          1874.37240	         4.66199e+57
          1875.17870	         4.16175e+57
          1875.98500	         6.82584e+57
          1876.79130	         7.73675e+57
          1877.59760	         6.71887e+57
          1878.40390	         5.33310e+57
          1879.21020	         5.79666e+57
          1880.01650	         6.47300e+57
          1880.82280	         8.04914e+57
          1881.62910	         9.73761e+57
          1882.43540	         1.05764e+58
          1883.24170	         7.93555e+57
          1884.04800	         6.16451e+57
          1884.85430	         7.51290e+57
          1885.66060	         7.90529e+57
          1886.46690	         7.68336e+57
          1887.27320	         7.04748e+57
          1888.07950	         5.91320e+57
          1888.88580	         6.82859e+57
          1889.69210	         7.41883e+57
          1890.49840	         7.93586e+57
          1891.30470	         6.96440e+57
          1892.11100	         7.80545e+57
          1892.91730	         7.17621e+57
          1893.72360	         7.12267e+57
          1894.52990	         6.51714e+57
          1895.33620	         6.95893e+57
          1896.14250	         7.10963e+57
          1896.94880	         6.52562e+57
          1897.75510	         4.84855e+57
          1898.56140	         6.80494e+57
          1899.36770	         8.54790e+57
          1900.17400	         5.98519e+57
          1900.98030	         4.34830e+57
          1901.78660	         6.49650e+57
          1902.59290	         7.87031e+57
          1903.39920	         9.16471e+57
          1904.20550	         9.70551e+57
          1905.01180	         9.87968e+57
          1905.81810	         1.00769e+58
          1906.62440	         1.28228e+58
          1907.43070	         1.48198e+58
          1908.23700	         1.44179e+58
          1909.04330	         1.29400e+58
          1909.84960	         1.11227e+58
          1910.65590	         9.53227e+57
          1911.46220	         8.80226e+57
          1912.26850	         7.98119e+57
          1913.07480	         6.64528e+57
          1913.88110	         5.52771e+57
          1914.68740	         5.81517e+57
          1915.49370	         5.98954e+57
          1916.30000	         6.20533e+57
          1917.10630	         6.84342e+57
          1917.91260	         6.59040e+57
          1918.71890	         7.13037e+57
          1919.52520	         6.76400e+57
          1920.33150	         6.41851e+57
          1921.13780	         6.99153e+57
          1921.94410	         7.80269e+57
          1922.75040	         7.37682e+57
          1923.55670	         7.79082e+57
          1924.36300	         6.78107e+57
          1925.16930	         5.03293e+57
          1925.97560	         5.26814e+57
          1926.78190	         4.94904e+57
          1927.58820	         5.90958e+57
          1928.39450	         6.31029e+57
          1929.20080	         5.23060e+57
          1930.00710	         6.25155e+57
          1930.81340	         6.85372e+57
          1931.61970	         6.98707e+57
          1932.42600	         7.52911e+57
          1933.23230	         8.09212e+57
          1934.03860	         6.45623e+57
          1934.84490	         5.30424e+57
          1935.65120	         8.83979e+57
          1936.45750	         9.66681e+57
          1937.26380	         6.55074e+57
          1938.07010	         6.93453e+57
          1938.87640	         6.46209e+57
          1939.68270	         6.82209e+57
          1940.48900	         8.20242e+57
          1941.29530	         7.60551e+57
          1942.10160	         8.12370e+57
          1942.90790	         6.78767e+57
          1943.71420	         6.22944e+57
          1944.52050	         7.03415e+57
          1945.32680	         5.98052e+57
          1946.13310	         6.40215e+57
          1946.93940	         7.54984e+57
          1947.74570	         7.39642e+57
          1948.55200	         6.70514e+57
          1949.35830	         6.16429e+57
          1950.16460	         5.98005e+57
          1950.97090	         6.24553e+57
          1951.77720	         7.58247e+57
          1952.58350	         8.36116e+57
          1953.38980	         5.95583e+57
          1954.19610	         4.27481e+57
          1955.00240	         4.80968e+57
          1955.80870	         5.54924e+57
          1956.61500	         5.73768e+57
          1957.42130	         6.48661e+57
          1958.22760	         6.64998e+57
          1959.03390	         7.67655e+57
          1959.84020	         8.03523e+57
          1960.64650	         6.86825e+57
          1961.45280	         6.88714e+57
          1962.25910	         6.27712e+57
          1963.06540	         6.53761e+57
          1963.87170	         6.74698e+57
          1964.67800	         7.21698e+57
          1965.48430	         6.24458e+57
          1966.29060	         6.62801e+57
          1967.09690	         7.87244e+57
          1967.90320	         6.39427e+57
          1968.70950	         6.88295e+57
          1969.51580	         6.80092e+57
          1970.32210	         6.68949e+57
          1971.12840	         5.95937e+57
          1971.93470	         4.72015e+57
          1972.74100	         5.41449e+57
          1973.54730	         5.79843e+57
          1974.35360	         7.31850e+57
          1975.15990	         8.44417e+57
          1975.96620	         6.96539e+57
          1976.77250	         7.04449e+57
          1977.57880	         7.20407e+57
          1978.38510	         6.54580e+57
          1979.19140	         7.25795e+57
          1979.99770	         7.57445e+57
          1980.80400	         6.76800e+57
          1981.61030	         6.91236e+57
          1982.41660	         5.99169e+57
          1983.22290	         7.04689e+57
          1984.02920	         5.58589e+57
          1984.83550	         4.90721e+57
          1985.64180	         6.00308e+57
          1986.44810	         6.25890e+57
          1987.25440	         6.45477e+57
          1988.06070	         6.23150e+57
          1988.86700	         6.08975e+57
          1989.67330	         6.57835e+57
          1990.47960	         6.26511e+57
          1991.28590	         5.99956e+57
          1992.09220	         5.74622e+57
          1992.89850	         5.47385e+57
          1993.70480	         4.83844e+57
          1994.51110	         4.47476e+57
          1995.31740	         4.61776e+57
          1996.12370	         5.21802e+57
          1996.93000	         5.91857e+57
          1997.73630	         7.92477e+57
          1998.54260	         8.47825e+57
          1999.34890	         7.27563e+57
          2000.15520	         6.50617e+57
          2000.96150	         6.62066e+57
          2001.76780	         6.09655e+57
          2002.57410	         4.45300e+57
          2003.38040	         6.01122e+57
          2004.18670	         6.62503e+57
          2004.99300	         5.65761e+57
          2005.79930	         6.83356e+57
          2006.60560	         6.80801e+57
          2007.41190	         6.27206e+57
          2008.21820	         7.39150e+57
          2009.02450	         7.54019e+57
          2009.83080	         6.27526e+57
          2010.63710	         6.61016e+57
          2011.44340	         7.10063e+57
          2012.24970	         7.53400e+57
          2013.05600	         7.37663e+57
          2013.86230	         6.09326e+57
          2014.66860	         4.67482e+57
          2015.47490	         5.79447e+57
          2016.28120	         5.89844e+57
          2017.08750	         6.32720e+57
          2017.89380	         6.46718e+57
          2018.70010	         6.53380e+57
          2019.50640	         5.48582e+57
          2020.31270	         6.96519e+57
          2021.11900	         8.78074e+57
          2021.92530	         7.72523e+57
          2022.73160	         7.71701e+57
          2023.53790	         7.10707e+57
          2024.34420	         5.95755e+57
          2025.15050	         5.88241e+57
          2025.95680	         5.53819e+57
          2026.76310	         6.53968e+57
          2027.56940	         6.23141e+57
          2028.37570	         7.57654e+57
          2029.18200	         6.92408e+57
          2029.98830	         6.50847e+57
          2030.79460	         6.50324e+57
          2031.60090	         6.66886e+57
          2032.40720	         6.06332e+57
          2033.21350	         7.36213e+57
          2034.01980	         5.62330e+57
          2034.82610	         4.67916e+57
          2035.63240	         5.20960e+57
          2036.43870	         5.54382e+57
          2037.24500	         6.36004e+57
          2038.05130	         7.54491e+57
          2038.85760	         6.94623e+57
          2039.66390	         6.33673e+57
          2040.47020	         6.05079e+57
          2041.27650	         5.50360e+57
          2042.08280	         4.30582e+57
          2042.88910	         5.93868e+57
          2043.69540	         5.16567e+57
          2044.50170	         6.29690e+57
          2045.30800	         6.49388e+57
          2046.11430	         6.00395e+57
          2046.92060	         5.94432e+57
          2047.72690	         6.38321e+57
          2048.53320	         6.19493e+57
          2049.33950	         5.73307e+57
          2050.14580	         5.53110e+57
          2050.95210	         4.96491e+57
          2051.75840	         7.45208e+57
          2052.56470	         5.64464e+57
          2053.37100	         4.30277e+57
          2054.17730	         3.81797e+57
          2054.98360	         3.91189e+57
          2055.78990	         4.08280e+57
          2056.59620	         3.58295e+57
          2057.40250	         4.95373e+57
          2058.20880	         6.20251e+57
          2059.01510	         6.04031e+57
          2059.82140	         6.09551e+57
          2060.62770	         1.03068e+58
          2061.43400	         1.30077e+58
          2062.24030	         9.56519e+57
          2063.04660	         4.10567e+57
          2063.85290	         3.13619e+57
          2064.65920	        -2.02913e+57
          2065.46550	        -8.08105e+57
          2066.27180	        -8.49975e+57
          2067.07810	         3.32610e+57
          2067.88440	         4.67174e+57
          2068.69070	         5.37525e+57
          2069.49700	         4.52661e+57
          2070.30330	         3.12146e+57
          2071.10960	         6.97827e+57
          2071.91590	         7.17258e+57
          2072.72220	         3.55073e+57
          2073.52850	         5.48304e+57
          2074.33480	         5.44817e+57
          2075.14110	         5.38328e+57
          2075.94740	         6.01489e+57
          2076.75370	         5.67511e+57
          2077.56000	         5.01526e+57
          2078.36630	         5.50103e+57
          2079.17260	         5.48913e+57
          2079.97890	         6.08456e+57
          2080.78520	         6.23121e+57
          2081.59150	         5.28796e+57
          2082.39780	         4.71637e+57
          2083.20410	         1.75810e+57
          2084.01040	         2.51663e+57
          2084.81670	         4.02882e+57
          2085.62300	         4.48863e+57
          2086.42930	         5.81411e+57
          2087.23560	         4.03618e+57
          2088.04190	         4.64823e+57
          2088.84820	         4.21487e+57
          2089.65450	         2.02258e+57
          2090.46080	         2.32094e+57
          2091.26710	         3.36652e+57
          2092.07340	         3.31901e+57
          2092.87970	         3.74532e+57
          2093.68600	         1.11160e+57
          2094.49230	         9.82809e+56
          2095.29860	         4.34414e+57
          2096.10490	         4.10515e+57
          2096.91120	         9.15872e+56
          2097.71750	        -5.02558e+56
          2098.52380	        -3.76243e+56
          2099.33010	        -2.82308e+56
          2100.13640	        -4.43408e+56
          2100.94270	         3.64488e+56
          2101.74900	         1.09746e+57
          2102.55530	         1.17225e+57
          2103.36160	        -4.27594e+56
          2104.16790	         2.08964e+57
          2104.97420	         2.48692e+57
          2105.78050	         2.67665e+57
          2106.58680	         2.21864e+57
          2107.39310	         2.26471e+57
          2108.19940	         3.62561e+57
          2109.00570	         2.51363e+57
          2109.81200	         1.40687e+57
          2110.61830	        -3.38895e+56
          2111.42460	         7.92889e+56
          2112.23090	         1.26486e+57
          2113.03720	         1.56289e+55
          2113.84350	        -1.38326e+57
          2114.64980	         4.23120e+57
          2115.45610	         4.85617e+56
          2116.26240	        -3.82852e+57
          2117.06870	        -3.89065e+55
          2117.87500	         1.50082e+57
          2118.68130	        -2.91645e+57
          2119.48760	        -1.02068e+57
          2120.29390	        -6.23685e+56
          2121.10020	        -2.90723e+57
          2121.90650	         1.27103e+57
          2122.71280	         2.84811e+57
          2123.51910	         2.60727e+57
          2124.32540	         4.23802e+56
          2125.13170	        -3.36388e+57
          2125.93800	         2.85021e+57
          2126.74430	        -3.88203e+57
          2127.55060	        -8.40193e+57
          2128.35690	        -5.60788e+57
          2129.16320	        -4.09389e+56
          2129.96950	        -7.56026e+57
          2130.77580	        -4.88357e+57
          2131.58210	        -5.22287e+56
          2132.38840	         1.02509e+57
          2133.19470	         1.69977e+57
          2134.00100	         4.45856e+57
          2134.80730	        -6.83391e+57
          2135.61360	        -1.89231e+57
          2136.41990	        -2.31873e+57
          2137.22620	         6.71817e+57
          2138.03250	         7.20768e+55
          2138.83880	         6.52665e+56
          2139.64510	         1.22111e+57
          2140.45140	        -8.33239e+56
          2141.25770	        -6.36224e+57
          2142.06400	        -8.81021e+56
          2142.87030	         4.20061e+57
          2143.67660	        -1.44968e+57
          2144.48290	        -6.01515e+57
          2145.28920	         9.14309e+57
          2146.09550	        -7.01107e+56
          2146.90180	        -1.23658e+58
          2147.70810	        -8.26036e+57
          2148.51440	        -7.90049e+57
          2149.32070	        -5.63736e+57
          2150.12700	        -8.89663e+57
          2150.93330	        -7.39194e+57
          2151.73960	         1.49871e+57
          2152.54590	         4.04148e+57
          2153.35220	         3.86334e+57
          2154.15850	        -3.78042e+57
          2154.96480	        -4.55726e+56
          2155.77110	        -6.63253e+57
          2156.57740	        -6.96513e+57
          2157.38370	         4.67643e+56
          2158.19000	         4.42618e+57
          2158.99630	         1.99514e+57
          2159.80260	        -1.58135e+58
          2160.60890	        -1.41974e+58
          2161.41520	         2.61149e+57
          2162.22150	        -3.93763e+57
          2163.02780	        -1.92808e+57
          2163.83410	        -6.57653e+57
          2164.64040	        -3.71439e+57
          2165.44670	        -6.16206e+57
          2166.25300	         1.83645e+57
          2167.05930	        -6.18665e+56
          2167.86560	        -7.78124e+57
          2168.67190	         6.91450e+56
          2169.47820	         4.20616e+57
          2170.28450	        -1.97915e+57
          2171.09080	        -1.08831e+57
          2171.89710	         2.69920e+57
          2172.70340	         2.14375e+57
          2173.50970	        -5.80579e+57
          2174.31600	        -4.15529e+57
          2175.12230	        -4.81170e+57
          2175.92860	        -3.74051e+57
          2176.73490	        -3.58573e+57
          2177.54120	        -7.14861e+57
          2178.34750	        -4.99020e+57
          2179.15380	                 nan
          2179.96010	                 nan
          2180.76640	                 nan
          2181.57270	                 nan
          2182.37900	                 nan
          2183.18530	                 nan
          2183.99160	                 nan
          2184.79790	                 nan
          2185.60420	                 nan
          2186.41050	                 nan
          2187.21680	                 nan
          2188.02310	                 nan
          2188.82940	                 nan
          2189.63570	                 nan
          2190.44200	                 nan
          2191.24830	                 nan
          2192.05460	                 nan
          2192.86090	                 nan
          2193.66720	                 nan
          2194.47350	                 nan
          2195.27980	                 nan
          2196.08610	                 nan
          2196.89240	                 nan
          2197.69870	                 nan
          2198.50500	                 nan
          2199.31130	                 nan
          2200.11760	                 nan
          2200.92390	                 nan
          2201.73020	                 nan
          2202.53650	                 nan
          2203.34280	                 nan
          2204.14910	                 nan
          2204.95540	                 nan
          2205.76170	                 nan
          2206.56800	                 nan
          2207.37430	                 nan
          2208.18060	                 nan
          2208.98690	                 nan
          2209.79320	                 nan
          2210.59950	                 nan
          2211.40580	                 nan
          2212.21210	                 nan
          2213.01840	                 nan
          2213.82470	                 nan
          2214.63100	                 nan
          2215.43730	         0.00000e+00
