#sample_156_stacked_spectrum_rest_UV-bands_median_H-alpha_noDC.txt
#median Lum: 1.72400e+42
#Rest-frame wavelength (A) | Luminosity (erg/s/A)
#
          1110.00000	         0.00000e+00
          1110.80630	         2.87779e+58
          1111.61260	         8.62894e+58
          1112.41890	         3.51265e+59
          1113.22520	        -3.84777e+58
          1114.03150	        -7.53246e+58
          1114.83780	         3.72012e+59
          1115.64410	         1.51353e+59
          1116.45040	         1.54752e+59
          1117.25670	         1.02768e+59
          1118.06300	         3.87486e+58
          1118.86930	         1.02419e+59
          1119.67560	         7.09239e+58
          1120.48190	        -2.38219e+58
          1121.28820	        -1.50224e+59
          1122.09450	        -7.76999e+58
          1122.90080	         2.86728e+58
          1123.70710	         3.74013e+58
          1124.51340	         1.04572e+59
          1125.31970	        -1.61093e+58
          1126.12600	         3.30462e+58
          1126.93230	        -2.54746e+58
          1127.73860	        -3.91308e+58
          1128.54490	        -5.02310e+57
          1129.35120	         1.57482e+58
          1130.15750	        -3.66296e+58
          1130.96380	        -4.08618e+58
          1131.77010	         2.64205e+58
          1132.57640	         6.42208e+58
          1133.38270	         4.90410e+58
          1134.18900	         3.34155e+57
          1134.99530	         2.37036e+58
          1135.80160	         4.54745e+57
          1136.60790	         2.87973e+58
          1137.41420	         1.54533e+58
          1138.22050	         2.17761e+58
          1139.02680	         2.04813e+58
          1139.83310	         3.39058e+58
          1140.63940	         1.34890e+58
          1141.44570	        -6.11428e+57
          1142.25200	         6.78269e+55
          1143.05830	         2.23188e+58
          1143.86460	         1.34586e+58
          1144.67090	         2.67833e+58
          1145.47720	         3.08117e+58
          1146.28350	         1.44498e+58
          1147.08980	         2.17240e+58
          1147.89610	         2.24694e+58
          1148.70240	         2.99160e+58
          1149.50870	         2.95511e+58
          1150.31500	         9.61713e+57
          1151.12130	         8.38651e+57
          1151.92760	         1.00830e+58
          1152.73390	         4.93341e+57
          1153.54020	        -5.68896e+57
          1154.34650	         1.66821e+58
          1155.15280	         1.65911e+58
          1155.95910	         1.35848e+58
          1156.76540	         1.70932e+58
          1157.57170	        -6.72009e+57
          1158.37800	         9.93970e+55
          1159.18430	        -1.18223e+57
          1159.99060	         5.54446e+57
          1160.79690	         6.60942e+57
          1161.60320	         1.13794e+58
          1162.40950	         1.87686e+58
          1163.21580	         2.98859e+58
          1164.02210	         4.35220e+57
          1164.82840	         1.48046e+58
          1165.63470	         2.27655e+58
          1166.44100	         1.91934e+58
          1167.24730	         1.19686e+58
          1168.05360	         7.69431e+57
          1168.85990	         7.25229e+57
          1169.66620	         7.94252e+57
          1170.47250	         1.46120e+58
          1171.27880	         9.44670e+57
          1172.08510	         1.30897e+58
          1172.89140	         1.56811e+58
          1173.69770	         1.42734e+57
          1174.50400	         8.67709e+57
          1175.31030	         1.41311e+58
          1176.11660	         1.77492e+58
          1176.92290	         1.57484e+58
          1177.72920	         1.18501e+58
          1178.53550	         5.96224e+57
          1179.34180	         4.52289e+57
          1180.14810	         7.07128e+57
          1180.95440	         1.15250e+58
          1181.76070	         9.05239e+57
          1182.56700	         1.07269e+58
          1183.37330	         6.24245e+57
          1184.17960	         7.96923e+57
          1184.98590	         9.54908e+57
          1185.79220	         9.13887e+57
          1186.59850	         1.38841e+58
          1187.40480	         1.39030e+58
          1188.21110	         1.51550e+58
          1189.01740	         1.79230e+58
          1189.82370	         1.25333e+58
          1190.63000	         9.20006e+57
          1191.43630	         1.08513e+58
          1192.24260	         8.51652e+57
          1193.04890	         1.25721e+58
          1193.85520	         1.01733e+58
          1194.66150	         3.13699e+57
          1195.46780	         7.06251e+57
          1196.27410	         9.70754e+57
          1197.08040	         9.19291e+57
          1197.88670	         1.25140e+58
          1198.69300	         1.50905e+58
          1199.49930	         1.45068e+58
          1200.30560	         1.10768e+58
          1201.11190	         1.21380e+58
          1201.91820	         1.37057e+58
          1202.72450	         1.12777e+58
          1203.53080	         1.34151e+58
          1204.33710	         9.32555e+57
          1205.14340	         1.05444e+58
          1205.94970	         8.42328e+57
          1206.75600	         5.50700e+57
          1207.56230	         5.41086e+57
          1208.36860	         1.11298e+58
          1209.17490	         5.46913e+57
          1209.98120	         6.57593e+57
          1210.78750	         1.05860e+58
          1211.59380	         1.39040e+58
          1212.40010	         1.67553e+58
          1213.20640	         2.04864e+58
          1214.01270	         2.13521e+58
          1214.81900	         2.45013e+58
          1215.62530	         4.43477e+58
          1216.43160	         9.05671e+58
          1217.23790	         1.49246e+59
          1218.04420	         1.16691e+59
          1218.85050	         8.74820e+58
          1219.65680	         5.66060e+58
          1220.46310	         3.24025e+58
          1221.26940	         2.24717e+58
          1222.07570	         1.44514e+58
          1222.88200	         1.20354e+58
          1223.68830	         1.26711e+58
          1224.49460	         8.40371e+57
          1225.30090	         8.21496e+57
          1226.10720	         5.14420e+57
          1226.91350	         8.48272e+57
          1227.71980	         1.09949e+58
          1228.52610	         9.70157e+57
          1229.33240	         7.27944e+57
          1230.13870	         7.53059e+57
          1230.94500	         7.19057e+57
          1231.75130	         6.63507e+57
          1232.55760	         8.20813e+57
          1233.36390	         1.02107e+58
          1234.17020	         7.96110e+57
          1234.97650	         6.94941e+57
          1235.78280	         6.07552e+57
          1236.58910	         6.10182e+57
          1237.39540	         1.02779e+58
          1238.20170	         1.11932e+58
          1239.00800	         1.14345e+58
          1239.81430	         1.40910e+58
          1240.62060	         1.49341e+58
          1241.42690	         1.15187e+58
          1242.23320	         1.14137e+58
          1243.03950	         8.91409e+57
          1243.84580	         4.77505e+57
          1244.65210	         7.31314e+57
          1245.45840	         8.48815e+57
          1246.26470	         8.49895e+57
          1247.07100	         8.98772e+57
          1247.87730	         9.47775e+57
          1248.68360	         6.26969e+57
          1249.48990	         7.80759e+57
          1250.29620	         7.68496e+57
          1251.10250	         6.73138e+57
          1251.90880	         6.76376e+57
          1252.71510	         7.49565e+57
          1253.52140	         7.50595e+57
          1254.32770	         9.76932e+57
          1255.13400	         1.25510e+58
          1255.94030	         1.18645e+58
          1256.74660	         1.01246e+58
          1257.55290	         1.06763e+58
          1258.35920	         8.16474e+57
          1259.16550	         6.29209e+57
          1259.97180	         6.61031e+57
          1260.77810	         1.00727e+58
          1261.58440	         1.07863e+58
          1262.39070	         7.82202e+57
          1263.19700	         9.52538e+57
          1264.00330	         1.02876e+58
          1264.80960	         1.08491e+58
          1265.61590	         1.38590e+58
          1266.42220	         1.22565e+58
          1267.22850	         1.03747e+58
          1268.03480	         1.41197e+58
          1268.84110	         1.57191e+58
          1269.64740	         1.28253e+58
          1270.45370	         1.26841e+58
          1271.26000	         1.18655e+58
          1272.06630	         1.19096e+58
          1272.87260	         1.18441e+58
          1273.67890	         1.23219e+58
          1274.48520	         1.25971e+58
          1275.29150	         1.42992e+58
          1276.09780	         1.32784e+58
          1276.90410	         1.24921e+58
          1277.71040	         1.28911e+58
          1278.51670	         1.28824e+58
          1279.32300	         1.34244e+58
          1280.12930	         1.36362e+58
          1280.93560	         1.25682e+58
          1281.74190	         1.19449e+58
          1282.54820	         1.27904e+58
          1283.35450	         1.12526e+58
          1284.16080	         1.25648e+58
          1284.96710	         1.43042e+58
          1285.77340	         1.16096e+58
          1286.57970	         1.08899e+58
          1287.38600	         1.55682e+58
          1288.19230	         1.83277e+58
          1288.99860	         1.52313e+58
          1289.80490	         1.16852e+58
          1290.61120	         1.34782e+58
          1291.41750	         1.35485e+58
          1292.22380	         1.26999e+58
          1293.03010	         1.20338e+58
          1293.83640	         1.24753e+58
          1294.64270	         9.65869e+57
          1295.44900	         5.47299e+57
          1296.25530	         7.91165e+57
          1297.06160	         1.14313e+58
          1297.86790	         9.54674e+57
          1298.67420	         8.72336e+57
          1299.48050	         1.07280e+58
          1300.28680	         1.30937e+58
          1301.09310	         9.65284e+57
          1301.89940	         3.76956e+57
          1302.70570	         6.50510e+57
          1303.51200	         7.82991e+57
          1304.31830	         8.56451e+57
          1305.12460	         1.06181e+58
          1305.93090	         1.03679e+58
          1306.73720	         1.16811e+58
          1307.54350	         1.43470e+58
          1308.34980	         1.63001e+58
          1309.15610	         1.63647e+58
          1309.96240	         1.58086e+58
          1310.76870	         1.34762e+58
          1311.57500	         9.80252e+57
          1312.38130	         7.35518e+57
          1313.18760	         1.10217e+58
          1313.99390	         1.62520e+58
          1314.80020	         1.59908e+58
          1315.60650	         1.37009e+58
          1316.41280	         1.10244e+58
          1317.21910	         9.82320e+57
          1318.02540	         1.24988e+58
          1318.83170	         1.40937e+58
          1319.63800	         1.21027e+58
          1320.44430	         1.10075e+58
          1321.25060	         1.20340e+58
          1322.05690	         1.24010e+58
          1322.86320	         1.27316e+58
          1323.66950	         1.07589e+58
          1324.47580	         9.09179e+57
          1325.28210	         1.05956e+58
          1326.08840	         1.10847e+58
          1326.89470	         1.18626e+58
          1327.70100	         9.79166e+57
          1328.50730	         7.31273e+57
          1329.31360	         7.98865e+57
          1330.11990	         9.12518e+57
          1330.92620	         9.03194e+57
          1331.73250	         1.06904e+58
          1332.53880	         1.08798e+58
          1333.34510	         1.05261e+58
          1334.15140	         1.01699e+58
          1334.95770	         9.61476e+57
          1335.76400	         1.08227e+58
          1336.57030	         1.10520e+58
          1337.37660	         1.06165e+58
          1338.18290	         1.12957e+58
          1338.98920	         1.14991e+58
          1339.79550	         1.03226e+58
          1340.60180	         9.84619e+57
          1341.40810	         1.30173e+58
          1342.21440	         1.22780e+58
          1343.02070	         1.02791e+58
          1343.82700	         1.10752e+58
          1344.63330	         1.10875e+58
          1345.43960	         1.12743e+58
          1346.24590	         1.07332e+58
          1347.05220	         1.14447e+58
          1347.85850	         1.06830e+58
          1348.66480	         1.12746e+58
          1349.47110	         1.30883e+58
          1350.27740	         1.23209e+58
          1351.08370	         1.00347e+58
          1351.89000	         9.68645e+57
          1352.69630	         1.19633e+58
          1353.50260	         1.18882e+58
          1354.30890	         1.27082e+58
          1355.11520	         1.27478e+58
          1355.92150	         1.13049e+58
          1356.72780	         1.07393e+58
          1357.53410	         1.05814e+58
          1358.34040	         9.44609e+57
          1359.14670	         8.21576e+57
          1359.95300	         9.59298e+57
          1360.75930	         1.10788e+58
          1361.56560	         1.15860e+58
          1362.37190	         1.17941e+58
          1363.17820	         1.03143e+58
          1363.98450	         9.74801e+57
          1364.79080	         1.17471e+58
          1365.59710	         1.37165e+58
          1366.40340	         1.19486e+58
          1367.20970	         8.97641e+57
          1368.01600	         9.16831e+57
          1368.82230	         8.89049e+57
          1369.62860	         1.02863e+58
          1370.43490	         9.69491e+57
          1371.24120	         9.60465e+57
          1372.04750	         7.88656e+57
          1372.85380	         1.02899e+58
          1373.66010	         1.08030e+58
          1374.46640	         1.06016e+58
          1375.27270	         1.03464e+58
          1376.07900	         9.05453e+57
          1376.88530	         8.51933e+57
          1377.69160	         8.10308e+57
          1378.49790	         7.29443e+57
          1379.30420	         8.21045e+57
          1380.11050	         9.09103e+57
          1380.91680	         8.57536e+57
          1381.72310	         7.51638e+57
          1382.52940	         7.23286e+57
          1383.33570	         8.46760e+57
          1384.14200	         9.46013e+57
          1384.94830	         1.06275e+58
          1385.75460	         1.10812e+58
          1386.56090	         1.06166e+58
          1387.36720	         9.99044e+57
          1388.17350	         1.19928e+58
          1388.97980	         9.86944e+57
          1389.78610	         8.63240e+57
          1390.59240	         8.76026e+57
          1391.39870	         7.20148e+57
          1392.20500	         8.09588e+57
          1393.01130	         6.84440e+57
          1393.81760	         5.24006e+57
          1394.62390	         5.50828e+57
          1395.43020	         5.88716e+57
          1396.23650	         6.16564e+57
          1397.04280	         7.26025e+57
          1397.84910	         9.31078e+57
          1398.65540	         9.64577e+57
          1399.46170	         1.03286e+58
          1400.26800	         9.56948e+57
          1401.07430	         8.74665e+57
          1401.88060	         8.32937e+57
          1402.68690	         8.42042e+57
          1403.49320	         9.11254e+57
          1404.29950	         9.20531e+57
          1405.10580	         1.06915e+58
          1405.91210	         1.18869e+58
          1406.71840	         1.13594e+58
          1407.52470	         1.10111e+58
          1408.33100	         9.85644e+57
          1409.13730	         1.11413e+58
          1409.94360	         1.18946e+58
          1410.74990	         1.11057e+58
          1411.55620	         1.00426e+58
          1412.36250	         8.67535e+57
          1413.16880	         9.33247e+57
          1413.97510	         9.70628e+57
          1414.78140	         1.03175e+58
          1415.58770	         9.85508e+57
          1416.39400	         9.06263e+57
          1417.20030	         1.10073e+58
          1418.00660	         1.23883e+58
          1418.81290	         1.25528e+58
          1419.61920	         1.06596e+58
          1420.42550	         1.12620e+58
          1421.23180	         1.15626e+58
          1422.03810	         1.22048e+58
          1422.84440	         1.22181e+58
          1423.65070	         1.24739e+58
          1424.45700	         1.07503e+58
          1425.26330	         8.39621e+57
          1426.06960	         8.73401e+57
          1426.87590	         1.03832e+58
          1427.68220	         1.00706e+58
          1428.48850	         1.04638e+58
          1429.29480	         1.07461e+58
          1430.10110	         1.03858e+58
          1430.90740	         8.63097e+57
          1431.71370	         8.69600e+57
          1432.52000	         8.71864e+57
          1433.32630	         7.69127e+57
          1434.13260	         8.40910e+57
          1434.93890	         8.79199e+57
          1435.74520	         9.69802e+57
          1436.55150	         9.93723e+57
          1437.35780	         9.53200e+57
          1438.16410	         1.00765e+58
          1438.97040	         9.13601e+57
          1439.77670	         9.34282e+57
          1440.58300	         9.42434e+57
          1441.38930	         9.97559e+57
          1442.19560	         9.74509e+57
          1443.00190	         9.43593e+57
          1443.80820	         1.00582e+58
          1444.61450	         9.47651e+57
          1445.42080	         7.66917e+57
          1446.22710	         9.52566e+57
          1447.03340	         1.02013e+58
          1447.83970	         1.05497e+58
          1448.64600	         1.04663e+58
          1449.45230	         9.78928e+57
          1450.25860	         9.83327e+57
          1451.06490	         9.03127e+57
          1451.87120	         7.75826e+57
          1452.67750	         7.53081e+57
          1453.48380	         9.59818e+57
          1454.29010	         8.29247e+57
          1455.09640	         7.10322e+57
          1455.90270	         9.13830e+57
          1456.70900	         9.29275e+57
          1457.51530	         1.05480e+58
          1458.32160	         1.24567e+58
          1459.12790	         1.03832e+58
          1459.93420	         8.41231e+57
          1460.74050	         8.03723e+57
          1461.54680	         9.58661e+57
          1462.35310	         9.70226e+57
          1463.15940	         9.63797e+57
          1463.96570	         1.09058e+58
          1464.77200	         1.13266e+58
          1465.57830	         1.11032e+58
          1466.38460	         9.59701e+57
          1467.19090	         8.84396e+57
          1467.99720	         8.48076e+57
          1468.80350	         8.70764e+57
          1469.60980	         9.45919e+57
          1470.41610	         1.06814e+58
          1471.22240	         1.03400e+58
          1472.02870	         1.05911e+58
          1472.83500	         1.02968e+58
          1473.64130	         9.79705e+57
          1474.44760	         9.16850e+57
          1475.25390	         8.26345e+57
          1476.06020	         8.07812e+57
          1476.86650	         8.82909e+57
          1477.67280	         8.32483e+57
          1478.47910	         8.41684e+57
          1479.28540	         7.80354e+57
          1480.09170	         8.35635e+57
          1480.89800	         8.77069e+57
          1481.70430	         8.94575e+57
          1482.51060	         8.41910e+57
          1483.31690	         7.79976e+57
          1484.12320	         7.76164e+57
          1484.92950	         7.17175e+57
          1485.73580	         7.81515e+57
          1486.54210	         9.65884e+57
          1487.34840	         8.94418e+57
          1488.15470	         8.13252e+57
          1488.96100	         9.46752e+57
          1489.76730	         1.06243e+58
          1490.57360	         9.39302e+57
          1491.37990	         7.78999e+57
          1492.18620	         7.08183e+57
          1492.99250	         8.07808e+57
          1493.79880	         9.34271e+57
          1494.60510	         8.22932e+57
          1495.41140	         7.46256e+57
          1496.21770	         9.61884e+57
          1497.02400	         1.12426e+58
          1497.83030	         9.62642e+57
          1498.63660	         8.43912e+57
          1499.44290	         6.66007e+57
          1500.24920	         7.06552e+57
          1501.05550	         8.42974e+57
          1501.86180	         8.62986e+57
          1502.66810	         9.40004e+57
          1503.47440	         1.00339e+58
          1504.28070	         9.58724e+57
          1505.08700	         9.48412e+57
          1505.89330	         1.04533e+58
          1506.69960	         8.98701e+57
          1507.50590	         7.88165e+57
          1508.31220	         8.56270e+57
          1509.11850	         9.34628e+57
          1509.92480	         9.38566e+57
          1510.73110	         9.21782e+57
          1511.53740	         8.61138e+57
          1512.34370	         7.69205e+57
          1513.15000	         8.26354e+57
          1513.95630	         9.72212e+57
          1514.76260	         8.19196e+57
          1515.56890	         8.33736e+57
          1516.37520	         8.67727e+57
          1517.18150	         7.86708e+57
          1517.98780	         7.51818e+57
          1518.79410	         7.05889e+57
          1519.60040	         8.11049e+57
          1520.40670	         8.92967e+57
          1521.21300	         9.01529e+57
          1522.01930	         8.00991e+57
          1522.82560	         8.18551e+57
          1523.63190	         9.80834e+57
          1524.43820	         9.98300e+57
          1525.24450	         7.26501e+57
          1526.05080	         5.74614e+57
          1526.85710	         6.28430e+57
          1527.66340	         6.75038e+57
          1528.46970	         8.72272e+57
          1529.27600	         7.93711e+57
          1530.08230	         6.68302e+57
          1530.88860	         7.27268e+57
          1531.69490	         8.44794e+57
          1532.50120	         9.13029e+57
          1533.30750	         9.23933e+57
          1534.11380	         9.87650e+57
          1534.92010	         1.00115e+58
          1535.72640	         9.87283e+57
          1536.53270	         9.02759e+57
          1537.33900	         8.19058e+57
          1538.14530	         8.52259e+57
          1538.95160	         9.55556e+57
          1539.75790	         9.22523e+57
          1540.56420	         8.13370e+57
          1541.37050	         7.78850e+57
          1542.17680	         7.28870e+57
          1542.98310	         7.11915e+57
          1543.78940	         7.52191e+57
          1544.59570	         6.89375e+57
          1545.40200	         7.03665e+57
          1546.20830	         8.68614e+57
          1547.01460	         1.05048e+58
          1547.82090	         1.12675e+58
          1548.62720	         1.25490e+58
          1549.43350	         1.23170e+58
          1550.23980	         1.12594e+58
          1551.04610	         1.29046e+58
          1551.85240	         1.27582e+58
          1552.65870	         1.17980e+58
          1553.46500	         1.09565e+58
          1554.27130	         1.02498e+58
          1555.07760	         9.38878e+57
          1555.88390	         7.87196e+57
          1556.69020	         8.79087e+57
          1557.49650	         9.21857e+57
          1558.30280	         9.43222e+57
          1559.10910	         9.51283e+57
          1559.91540	         9.50093e+57
          1560.72170	         8.44166e+57
          1561.52800	         7.63272e+57
          1562.33430	         8.24063e+57
          1563.14060	         7.59440e+57
          1563.94690	         7.02855e+57
          1564.75320	         7.61712e+57
          1565.55950	         6.96828e+57
          1566.36580	         7.20708e+57
          1567.17210	         9.13976e+57
          1567.97840	         9.20063e+57
          1568.78470	         8.17337e+57
          1569.59100	         8.81151e+57
          1570.39730	         8.77786e+57
          1571.20360	         7.12904e+57
          1572.00990	         6.66713e+57
          1572.81620	         7.76685e+57
          1573.62250	         9.80597e+57
          1574.42880	         9.48717e+57
          1575.23510	         8.49948e+57
          1576.04140	         8.58897e+57
          1576.84770	         8.86705e+57
          1577.65400	         8.64766e+57
          1578.46030	         9.31328e+57
          1579.26660	         1.07619e+58
          1580.07290	         9.95382e+57
          1580.87920	         8.17800e+57
          1581.68550	         7.36372e+57
          1582.49180	         8.11851e+57
          1583.29810	         7.32445e+57
          1584.10440	         7.98170e+57
          1584.91070	         8.71970e+57
          1585.71700	         8.45665e+57
          1586.52330	         8.80517e+57
          1587.32960	         8.72723e+57
          1588.13590	         8.30560e+57
          1588.94220	         7.43801e+57
          1589.74850	         8.76564e+57
          1590.55480	         9.99406e+57
          1591.36110	         8.81056e+57
          1592.16740	         8.11867e+57
          1592.97370	         7.48819e+57
          1593.78000	         8.16812e+57
          1594.58630	         9.70893e+57
          1595.39260	         9.03077e+57
          1596.19890	         9.06963e+57
          1597.00520	         9.04409e+57
          1597.81150	         8.33371e+57
          1598.61780	         7.05527e+57
          1599.42410	         6.95372e+57
          1600.23040	         7.10027e+57
          1601.03670	         7.01900e+57
          1601.84300	         7.78330e+57
          1602.64930	         8.95250e+57
          1603.45560	         9.19428e+57
          1604.26190	         8.24251e+57
          1605.06820	         7.83113e+57
          1605.87450	         6.20327e+57
          1606.68080	         6.23533e+57
          1607.48710	         6.03388e+57
          1608.29340	         6.66386e+57
          1609.09970	         7.51786e+57
          1609.90600	         7.51365e+57
          1610.71230	         7.50663e+57
          1611.51860	         7.62005e+57
          1612.32490	         6.83244e+57
          1613.13120	         7.48844e+57
          1613.93750	         8.83142e+57
          1614.74380	         8.61463e+57
          1615.55010	         8.70402e+57
          1616.35640	         9.29769e+57
          1617.16270	         1.03553e+58
          1617.96900	         1.01552e+58
          1618.77530	         9.60731e+57
          1619.58160	         8.95370e+57
          1620.38790	         7.78392e+57
          1621.19420	         8.49209e+57
          1622.00050	         7.05967e+57
          1622.80680	         8.90175e+57
          1623.61310	         9.88208e+57
          1624.41940	         8.94913e+57
          1625.22570	         8.52791e+57
          1626.03200	         8.43108e+57
          1626.83830	         8.26109e+57
          1627.64460	         8.05369e+57
          1628.45090	         6.34847e+57
          1629.25720	         8.89429e+57
          1630.06350	         1.03942e+58
          1630.86980	         6.64807e+57
          1631.67610	         7.62230e+57
          1632.48240	         8.92203e+57
          1633.28870	         8.75625e+57
          1634.09500	         1.09568e+58
          1634.90130	         1.17119e+58
          1635.70760	         8.43158e+57
          1636.51390	         6.55257e+57
          1637.32020	         7.46939e+57
          1638.12650	         1.03626e+58
          1638.93280	         9.86719e+57
          1639.73910	         9.47006e+57
          1640.54540	         1.00905e+58
          1641.35170	         9.03404e+57
          1642.15800	         9.00442e+57
          1642.96430	         8.92213e+57
          1643.77060	         9.07732e+57
          1644.57690	         8.24509e+57
          1645.38320	         8.41469e+57
          1646.18950	         8.12784e+57
          1646.99580	         8.20308e+57
          1647.80210	         7.97007e+57
          1648.60840	         7.82846e+57
          1649.41470	         8.34384e+57
          1650.22100	         8.00573e+57
          1651.02730	         7.57322e+57
          1651.83360	         8.00468e+57
          1652.63990	         7.37848e+57
          1653.44620	         8.08490e+57
          1654.25250	         8.39388e+57
          1655.05880	         7.67876e+57
          1655.86510	         8.70179e+57
          1656.67140	         9.13403e+57
          1657.47770	         8.47746e+57
          1658.28400	         8.02075e+57
          1659.09030	         9.04668e+57
          1659.89660	         1.01902e+58
          1660.70290	         9.76768e+57
          1661.50920	         9.15521e+57
          1662.31550	         7.82134e+57
          1663.12180	         8.12622e+57
          1663.92810	         9.66395e+57
          1664.73440	         1.10649e+58
          1665.54070	         1.20139e+58
          1666.34700	         1.26613e+58
          1667.15330	         1.21590e+58
          1667.95960	         9.39656e+57
          1668.76590	         7.21748e+57
          1669.57220	         7.49530e+57
          1670.37850	         7.09399e+57
          1671.18480	         7.18412e+57
          1671.99110	         7.69581e+57
          1672.79740	         7.61693e+57
          1673.60370	         7.40771e+57
          1674.41000	         7.73591e+57
          1675.21630	         8.22195e+57
          1676.02260	         8.22601e+57
          1676.82890	         7.51720e+57
          1677.63520	         7.65651e+57
          1678.44150	         7.18921e+57
          1679.24780	         7.61963e+57
          1680.05410	         7.74713e+57
          1680.86040	         6.43979e+57
          1681.66670	         5.74939e+57
          1682.47300	         7.32187e+57
          1683.27930	         8.66243e+57
          1684.08560	         9.24926e+57
          1684.89190	         8.48927e+57
          1685.69820	         5.75533e+57
          1686.50450	         5.67676e+57
          1687.31080	         6.94448e+57
          1688.11710	         7.68570e+57
          1688.92340	         7.76772e+57
          1689.72970	         7.37723e+57
          1690.53600	         6.84293e+57
          1691.34230	         7.17804e+57
          1692.14860	         7.94403e+57
          1692.95490	         7.98081e+57
          1693.76120	         7.58794e+57
          1694.56750	         7.00573e+57
          1695.37380	         8.23450e+57
          1696.18010	         1.00753e+58
          1696.98640	         9.04798e+57
          1697.79270	         8.25514e+57
          1698.59900	         8.65345e+57
          1699.40530	         8.10850e+57
          1700.21160	         7.07302e+57
          1701.01790	         7.98696e+57
          1701.82420	         7.58618e+57
          1702.63050	         8.12079e+57
          1703.43680	         8.60087e+57
          1704.24310	         9.85986e+57
          1705.04940	         9.06109e+57
          1705.85570	         8.17774e+57
          1706.66200	         9.45744e+57
          1707.46830	         8.47758e+57
          1708.27460	         8.03466e+57
          1709.08090	         7.39259e+57
          1709.88720	         6.81967e+57
          1710.69350	         5.96419e+57
          1711.49980	         6.59371e+57
          1712.30610	         7.44440e+57
          1713.11240	         8.76991e+57
          1713.91870	         8.38044e+57
          1714.72500	         8.58228e+57
          1715.53130	         8.57677e+57
          1716.33760	         7.56178e+57
          1717.14390	         7.07369e+57
          1717.95020	         7.95774e+57
          1718.75650	         8.75476e+57
          1719.56280	         7.86685e+57
          1720.36910	         7.09535e+57
          1721.17540	         6.96395e+57
          1721.98170	         6.67868e+57
          1722.78800	         6.71305e+57
          1723.59430	         7.66642e+57
          1724.40060	         9.25105e+57
          1725.20690	         8.81142e+57
          1726.01320	         7.08709e+57
          1726.81950	         7.48607e+57
          1727.62580	         8.34237e+57
          1728.43210	         7.29815e+57
          1729.23840	         7.41792e+57
          1730.04470	         8.17046e+57
          1730.85100	         9.12868e+57
          1731.65730	         8.40877e+57
          1732.46360	         7.14068e+57
          1733.26990	         7.35416e+57
          1734.07620	         7.47643e+57
          1734.88250	         6.85915e+57
          1735.68880	         7.26143e+57
          1736.49510	         7.96104e+57
          1737.30140	         7.61364e+57
          1738.10770	         6.98280e+57
          1738.91400	         7.43656e+57
          1739.72030	         7.58752e+57
          1740.52660	         6.97017e+57
          1741.33290	         5.87671e+57
          1742.13920	         5.66938e+57
          1742.94550	         6.97434e+57
          1743.75180	         7.94644e+57
          1744.55810	         7.75915e+57
          1745.36440	         6.53357e+57
          1746.17070	         4.98760e+57
          1746.97700	         4.95701e+57
          1747.78330	         6.84274e+57
          1748.58960	         7.40249e+57
          1749.39590	         7.64023e+57
          1750.20220	         7.16208e+57
          1751.00850	         5.76881e+57
          1751.81480	         5.49097e+57
          1752.62110	         7.37157e+57
          1753.42740	         8.43077e+57
          1754.23370	         7.64751e+57
          1755.04000	         7.48582e+57
          1755.84630	         8.02256e+57
          1756.65260	         9.48439e+57
          1757.45890	         9.72087e+57
          1758.26520	         7.52303e+57
          1759.07150	         9.24369e+57
          1759.87780	         8.61012e+57
          1760.68410	         7.69142e+57
          1761.49040	         8.47986e+57
          1762.29670	         6.93314e+57
          1763.10300	         8.09428e+57
          1763.90930	         8.86665e+57
          1764.71560	         8.78313e+57
          1765.52190	         7.53069e+57
          1766.32820	         8.88014e+57
          1767.13450	         9.09081e+57
          1767.94080	         6.55451e+57
          1768.74710	         6.23839e+57
          1769.55340	         7.07276e+57
          1770.35970	         6.48304e+57
          1771.16600	         7.11583e+57
          1771.97230	         8.47732e+57
          1772.77860	         8.33226e+57
          1773.58490	         8.03561e+57
          1774.39120	         6.57626e+57
          1775.19750	         5.51349e+57
          1776.00380	         5.83912e+57
          1776.81010	         6.59501e+57
          1777.61640	         6.62325e+57
          1778.42270	         7.07515e+57
          1779.22900	         6.60878e+57
          1780.03530	         6.30722e+57
          1780.84160	         7.33065e+57
          1781.64790	         7.99596e+57
          1782.45420	         6.25693e+57
          1783.26050	         6.59177e+57
          1784.06680	         7.42593e+57
          1784.87310	         6.45424e+57
          1785.67940	         7.73809e+57
          1786.48570	         7.05305e+57
          1787.29200	         5.31465e+57
          1788.09830	         5.29198e+57
          1788.90460	         5.44415e+57
          1789.71090	         5.10179e+57
          1790.51720	         5.56811e+57
          1791.32350	         6.74231e+57
          1792.12980	         8.36505e+57
          1792.93610	         7.90214e+57
          1793.74240	         6.94274e+57
          1794.54870	         8.78570e+57
          1795.35500	         8.67791e+57
          1796.16130	         9.34652e+57
          1796.96760	         8.07533e+57
          1797.77390	         7.28462e+57
          1798.58020	         6.21895e+57
          1799.38650	         5.90878e+57
          1800.19280	         6.45700e+57
          1800.99910	         7.69480e+57
          1801.80540	         7.58083e+57
          1802.61170	         7.87113e+57
          1803.41800	         8.99976e+57
          1804.22430	         8.92814e+57
          1805.03060	         8.49882e+57
          1805.83690	         8.28633e+57
          1806.64320	         8.89094e+57
          1807.44950	         8.62018e+57
          1808.25580	         7.44996e+57
          1809.06210	         8.15505e+57
          1809.86840	         7.11898e+57
          1810.67470	         6.00882e+57
          1811.48100	         7.51039e+57
          1812.28730	         9.06924e+57
          1813.09360	         8.21475e+57
          1813.89990	         7.81496e+57
          1814.70620	         7.99037e+57
          1815.51250	         8.36816e+57
          1816.31880	         8.48244e+57
          1817.12510	         7.89404e+57
          1817.93140	         6.49923e+57
          1818.73770	         6.36742e+57
          1819.54400	         8.47761e+57
          1820.35030	         9.27308e+57
          1821.15660	         6.87429e+57
          1821.96290	         6.76991e+57
          1822.76920	         7.24474e+57
          1823.57550	         7.86821e+57
          1824.38180	         7.20975e+57
          1825.18810	         7.28445e+57
          1825.99440	         8.61167e+57
          1826.80070	         7.86466e+57
          1827.60700	         6.79625e+57
          1828.41330	         6.61285e+57
          1829.21960	         6.71679e+57
          1830.02590	         6.20696e+57
          1830.83220	         7.09831e+57
          1831.63850	         6.88863e+57
          1832.44480	         6.33854e+57
          1833.25110	         8.31466e+57
          1834.05740	         9.10909e+57
          1834.86370	         7.44875e+57
          1835.67000	         5.31739e+57
          1836.47630	         7.52641e+57
          1837.28260	         9.34383e+57
          1838.08890	         9.34711e+57
          1838.89520	         8.10486e+57
          1839.70150	         7.21723e+57
          1840.50780	         7.62149e+57
          1841.31410	         7.41905e+57
          1842.12040	         6.72720e+57
          1842.92670	         7.54724e+57
          1843.73300	         6.66054e+57
          1844.53930	         6.30389e+57
          1845.34560	         6.51330e+57
          1846.15190	         6.65613e+57
          1846.95820	         6.97619e+57
          1847.76450	         7.07564e+57
          1848.57080	         6.33963e+57
          1849.37710	         6.99859e+57
          1850.18340	         6.96911e+57
          1850.98970	         7.82708e+57
          1851.79600	         9.07681e+57
          1852.60230	         7.00274e+57
          1853.40860	         5.78804e+57
          1854.21490	         5.63448e+57
          1855.02120	         5.34272e+57
          1855.82750	         4.61476e+57
          1856.63380	         6.78104e+57
          1857.44010	         7.70622e+57
          1858.24640	         7.62149e+57
          1859.05270	         7.62124e+57
          1859.85900	         6.18077e+57
          1860.66530	         5.68633e+57
          1861.47160	         7.61159e+57
          1862.27790	         7.59152e+57
          1863.08420	         7.37886e+57
          1863.89050	         8.13581e+57
          1864.69680	         7.05808e+57
          1865.50310	         7.43718e+57
          1866.30940	         7.15762e+57
          1867.11570	         6.42423e+57
          1867.92200	         7.65741e+57
          1868.72830	         7.40878e+57
          1869.53460	         6.35973e+57
          1870.34090	         7.17008e+57
          1871.14720	         8.40140e+57
          1871.95350	         7.33804e+57
          1872.75980	         6.92725e+57
          1873.56610	         7.51439e+57
          1874.37240	         6.75895e+57
          1875.17870	         6.66686e+57
          1875.98500	         6.98759e+57
          1876.79130	         7.59657e+57
          1877.59760	         6.19781e+57
          1878.40390	         5.85276e+57
          1879.21020	         5.97477e+57
          1880.01650	         7.75974e+57
          1880.82280	         8.64333e+57
          1881.62910	         9.53002e+57
          1882.43540	         1.00761e+58
          1883.24170	         7.99582e+57
          1884.04800	         5.24193e+57
          1884.85430	         6.41558e+57
          1885.66060	         8.24991e+57
          1886.46690	         8.63525e+57
          1887.27320	         7.50553e+57
          1888.07950	         6.11006e+57
          1888.88580	         6.49817e+57
          1889.69210	         7.83732e+57
          1890.49840	         7.34438e+57
          1891.30470	         7.11752e+57
          1892.11100	         8.81082e+57
          1892.91730	         7.71536e+57
          1893.72360	         6.85142e+57
          1894.52990	         7.63683e+57
          1895.33620	         7.40266e+57
          1896.14250	         7.06126e+57
          1896.94880	         6.81987e+57
          1897.75510	         5.26908e+57
          1898.56140	         4.62580e+57
          1899.36770	         6.94994e+57
          1900.17400	         7.37594e+57
          1900.98030	         6.49267e+57
          1901.78660	         6.01376e+57
          1902.59290	         7.35660e+57
          1903.39920	         8.95501e+57
          1904.20550	         9.42858e+57
          1905.01180	         9.19405e+57
          1905.81810	         1.01923e+58
          1906.62440	         1.28304e+58
          1907.43070	         1.50906e+58
          1908.23700	         1.61548e+58
          1909.04330	         1.24545e+58
          1909.84960	         1.13534e+58
          1910.65590	         1.07335e+58
          1911.46220	         9.38692e+57
          1912.26850	         7.81876e+57
          1913.07480	         6.24175e+57
          1913.88110	         5.40708e+57
          1914.68740	         5.74564e+57
          1915.49370	         5.62332e+57
          1916.30000	         5.45924e+57
          1917.10630	         6.41586e+57
          1917.91260	         6.20934e+57
          1918.71890	         6.88435e+57
          1919.52520	         7.44543e+57
          1920.33150	         6.40601e+57
          1921.13780	         6.27940e+57
          1921.94410	         7.60539e+57
          1922.75040	         8.06288e+57
          1923.55670	         7.58962e+57
          1924.36300	         6.87799e+57
          1925.16930	         5.20377e+57
          1925.97560	         5.10996e+57
          1926.78190	         4.95081e+57
          1927.58820	         6.05287e+57
          1928.39450	         5.98267e+57
          1929.20080	         5.30188e+57
          1930.00710	         7.46118e+57
          1930.81340	         8.91135e+57
          1931.61970	         7.29798e+57
          1932.42600	         5.79229e+57
          1933.23230	         7.10370e+57
          1934.03860	         6.05574e+57
          1934.84490	         6.22881e+57
          1935.65120	         6.32208e+57
          1936.45750	         8.40665e+57
          1937.26380	         7.34934e+57
          1938.07010	         7.49341e+57
          1938.87640	         7.85085e+57
          1939.68270	         7.44334e+57
          1940.48900	         8.41145e+57
          1941.29530	         8.38382e+57
          1942.10160	         7.77836e+57
          1942.90790	         6.08452e+57
          1943.71420	         5.68199e+57
          1944.52050	         6.87451e+57
          1945.32680	         5.74492e+57
          1946.13310	         7.17301e+57
          1946.93940	         8.43705e+57
          1947.74570	         7.00426e+57
          1948.55200	         6.96262e+57
          1949.35830	         6.19555e+57
          1950.16460	         5.66852e+57
          1950.97090	         5.36569e+57
          1951.77720	         6.45452e+57
          1952.58350	         7.20565e+57
          1953.38980	         5.81669e+57
          1954.19610	         4.33108e+57
          1955.00240	         4.85779e+57
          1955.80870	         6.06742e+57
          1956.61500	         5.98166e+57
          1957.42130	         6.38674e+57
          1958.22760	         6.36781e+57
          1959.03390	         7.10586e+57
          1959.84020	         7.32930e+57
          1960.64650	         6.28056e+57
          1961.45280	         5.23471e+57
          1962.25910	         6.28931e+57
          1963.06540	         6.92233e+57
          1963.87170	         6.33242e+57
          1964.67800	         7.30496e+57
          1965.48430	         7.21522e+57
          1966.29060	         7.01862e+57
          1967.09690	         7.29792e+57
          1967.90320	         7.11395e+57
          1968.70950	         6.43236e+57
          1969.51580	         5.84598e+57
          1970.32210	         8.11506e+57
          1971.12840	         6.76662e+57
          1971.93470	         4.09121e+57
          1972.74100	         4.46505e+57
          1973.54730	         7.18974e+57
          1974.35360	         7.79645e+57
          1975.15990	         8.76573e+57
          1975.96620	         7.91766e+57
          1976.77250	         7.80361e+57
          1977.57880	         6.95003e+57
          1978.38510	         5.83445e+57
          1979.19140	         6.03099e+57
          1979.99770	         7.35588e+57
          1980.80400	         7.43263e+57
          1981.61030	         6.88057e+57
          1982.41660	         4.98761e+57
          1983.22290	         6.07643e+57
          1984.02920	         5.51024e+57
          1984.83550	         5.87704e+57
          1985.64180	         5.50941e+57
          1986.44810	         6.61419e+57
          1987.25440	         6.65284e+57
          1988.06070	         5.77170e+57
          1988.86700	         5.38301e+57
          1989.67330	         6.59699e+57
          1990.47960	         6.87224e+57
          1991.28590	         5.80174e+57
          1992.09220	         5.17000e+57
          1992.89850	         5.58999e+57
          1993.70480	         6.58221e+57
          1994.51110	         5.02460e+57
          1995.31740	         5.11679e+57
          1996.12370	         5.28285e+57
          1996.93000	         5.02590e+57
          1997.73630	         6.73197e+57
          1998.54260	         8.59995e+57
          1999.34890	         7.31889e+57
          2000.15520	         7.14648e+57
          2000.96150	         5.96510e+57
          2001.76780	         5.63715e+57
          2002.57410	         5.02316e+57
          2003.38040	         5.35498e+57
          2004.18670	         5.81392e+57
          2004.99300	         4.43266e+57
          2005.79930	         5.90319e+57
          2006.60560	         6.17862e+57
          2007.41190	         6.53299e+57
          2008.21820	         6.72478e+57
          2009.02450	         6.26254e+57
          2009.83080	         5.79661e+57
          2010.63710	         5.43832e+57
          2011.44340	         7.05230e+57
          2012.24970	         7.54947e+57
          2013.05600	         6.41623e+57
          2013.86230	         6.57246e+57
          2014.66860	         5.16055e+57
          2015.47490	         6.37508e+57
          2016.28120	         5.25375e+57
          2017.08750	         6.11398e+57
          2017.89380	         6.26266e+57
          2018.70010	         5.79176e+57
          2019.50640	         4.04799e+57
          2020.31270	         4.99326e+57
          2021.11900	         7.17251e+57
          2021.92530	         7.52290e+57
          2022.73160	         7.52873e+57
          2023.53790	         7.51796e+57
          2024.34420	         7.01487e+57
          2025.15050	         5.73462e+57
          2025.95680	         5.86907e+57
          2026.76310	         6.02949e+57
          2027.56940	         5.28745e+57
          2028.37570	         5.89813e+57
          2029.18200	         5.68159e+57
          2029.98830	         6.18545e+57
          2030.79460	         6.18600e+57
          2031.60090	         5.06057e+57
          2032.40720	         6.33902e+57
          2033.21350	         6.14949e+57
          2034.01980	         6.17807e+57
          2034.82610	         4.16806e+57
          2035.63240	         4.25164e+57
          2036.43870	         5.11912e+57
          2037.24500	         7.04111e+57
          2038.05130	         7.16413e+57
          2038.85760	         6.48348e+57
          2039.66390	         6.67805e+57
          2040.47020	         5.45717e+57
          2041.27650	         6.08864e+57
          2042.08280	         4.85612e+57
          2042.88910	         5.08013e+57
          2043.69540	         6.59066e+57
          2044.50170	         6.97007e+57
          2045.30800	         4.22158e+57
          2046.11430	         3.63424e+57
          2046.92060	         5.47108e+57
          2047.72690	         7.04528e+57
          2048.53320	         6.20447e+57
          2049.33950	         4.86967e+57
          2050.14580	         4.74720e+57
          2050.95210	         5.31150e+57
          2051.75840	         7.23671e+57
          2052.56470	         5.15327e+57
          2053.37100	         4.85524e+57
          2054.17730	         4.33307e+57
          2054.98360	         5.27989e+57
          2055.78990	         4.04378e+57
          2056.59620	         2.78658e+57
          2057.40250	         5.01334e+57
          2058.20880	         6.32902e+57
          2059.01510	         6.39620e+57
          2059.82140	         6.40794e+57
          2060.62770	         9.56086e+57
          2061.43400	         1.49228e+58
          2062.24030	         1.24007e+58
          2063.04660	         2.66487e+57
          2063.85290	         3.13123e+54
          2064.65920	        -3.86832e+57
          2065.46550	        -8.71089e+57
          2066.27180	        -8.82258e+57
          2067.07810	         2.46417e+57
          2067.88440	         3.63267e+57
          2068.69070	         5.79271e+57
          2069.49700	         5.42016e+57
          2070.30330	         4.39881e+57
          2071.10960	         4.67813e+57
          2071.91590	         6.58125e+57
          2072.72220	         4.34115e+57
          2073.52850	         3.68970e+57
          2074.33480	         3.89723e+57
          2075.14110	         5.19468e+57
          2075.94740	         5.40137e+57
          2076.75370	         6.20531e+57
          2077.56000	         5.54945e+57
          2078.36630	         5.13941e+57
          2079.17260	         4.07590e+57
          2079.97890	         4.02897e+57
          2080.78520	         6.11833e+57
          2081.59150	         4.63110e+57
          2082.39780	         5.20863e+57
          2083.20410	         3.71140e+57
          2084.01040	         2.87762e+57
          2084.81670	         3.78862e+57
          2085.62300	         3.94109e+57
          2086.42930	         3.78637e+57
          2087.23560	         4.67013e+57
          2088.04190	         5.09567e+57
          2088.84820	         3.58519e+57
          2089.65450	         2.65948e+57
          2090.46080	         1.23508e+57
          2091.26710	         1.19297e+57
          2092.07340	         1.48651e+57
          2092.87970	         2.70628e+57
          2093.68600	        -1.09745e+57
          2094.49230	        -8.35288e+56
          2095.29860	         4.97589e+57
          2096.10490	         4.45273e+57
          2096.91120	         3.23993e+57
          2097.71750	        -1.00756e+57
          2098.52380	         8.29644e+56
          2099.33010	         1.28238e+57
          2100.13640	         5.37304e+56
          2100.94270	         1.77918e+57
          2101.74900	         3.72097e+57
          2102.55530	         2.52866e+57
          2103.36160	         1.40747e+57
          2104.16790	         2.19616e+57
          2104.97420	        -2.19441e+56
          2105.78050	        -2.26513e+57
          2106.58680	        -5.59961e+56
          2107.39310	         5.07099e+56
          2108.19940	         3.74847e+57
          2109.00570	         2.23490e+57
          2109.81200	         6.27383e+55
          2110.61830	         1.14669e+57
          2111.42460	         2.46130e+56
          2112.23090	        -4.61616e+56
          2113.03720	        -2.86507e+57
          2113.84350	         4.97936e+57
          2114.64980	         2.99983e+57
          2115.45610	        -3.23390e+56
          2116.26240	        -4.04664e+57
          2117.06870	        -2.32235e+57
          2117.87500	        -9.80385e+56
          2118.68130	        -1.60158e+57
          2119.48760	         1.50707e+57
          2120.29390	         1.02456e+57
          2121.10020	        -4.43642e+57
          2121.90650	        -1.34978e+57
          2122.71280	         3.81524e+57
          2123.51910	         5.22785e+57
          2124.32540	        -1.04003e+57
          2125.13170	        -3.79512e+57
          2125.93800	        -2.33005e+57
          2126.74430	        -4.46591e+57
          2127.55060	        -5.92997e+57
          2128.35690	        -2.28524e+57
          2129.16320	        -6.91152e+57
          2129.96950	        -6.27241e+57
          2130.77580	         2.58903e+57
          2131.58210	         7.53308e+57
          2132.38840	        -1.47359e+57
          2133.19470	         1.07202e+57
          2134.00100	         6.22746e+57
          2134.80730	        -2.65529e+57
          2135.61360	         3.65959e+57
          2136.41990	        -6.31843e+57
          2137.22620	         7.47249e+57
          2138.03250	        -3.32447e+57
          2138.83880	        -5.05461e+57
          2139.64510	        -2.56266e+57
          2140.45140	        -9.62068e+56
          2141.25770	        -1.40723e+58
          2142.06400	        -4.60812e+57
          2142.87030	        -2.38328e+57
          2143.67660	         2.27672e+57
          2144.48290	         7.38487e+57
          2145.28920	         1.02413e+58
          2146.09550	         1.09387e+57
          2146.90180	        -8.08384e+57
          2147.70810	        -6.23956e+57
          2148.51440	        -4.55980e+57
          2149.32070	        -6.81656e+57
          2150.12700	        -8.12632e+57
          2150.93330	        -6.60970e+57
          2151.73960	        -4.59871e+57
          2152.54590	        -1.14707e+56
          2153.35220	         6.90874e+56
          2154.15850	        -3.14896e+57
          2154.96480	         1.88387e+57
          2155.77110	         1.55138e+57
          2156.57740	         7.52121e+57
          2157.38370	         8.89405e+57
          2158.19000	        -4.49201e+57
          2158.99630	        -9.32558e+57
          2159.80260	        -1.21289e+58
          2160.60890	         3.31074e+57
          2161.41520	         9.54651e+56
          2162.22150	        -7.59547e+57
          2163.02780	        -6.73601e+57
          2163.83410	        -1.02697e+58
          2164.64040	        -1.01316e+58
          2165.44670	        -1.36038e+58
          2166.25300	        -7.04556e+57
          2167.05930	        -1.14428e+58
          2167.86560	        -1.35862e+58
          2168.67190	        -3.23716e+57
          2169.47820	        -3.91945e+57
          2170.28450	        -9.52743e+57
          2171.09080	         3.17303e+56
          2171.89710	        -7.34078e+57
          2172.70340	        -1.79023e+57
          2173.50970	        -6.65827e+57
          2174.31600	        -3.91569e+57
          2175.12230	        -4.49823e+56
          2175.92860	        -6.00700e+57
          2176.73490	        -3.58817e+57
          2177.54120	        -6.48039e+57
          2178.34750	        -3.69093e+57
          2179.15380	                 nan
          2179.96010	                 nan
          2180.76640	                 nan
          2181.57270	                 nan
          2182.37900	                 nan
          2183.18530	                 nan
          2183.99160	                 nan
          2184.79790	                 nan
          2185.60420	                 nan
          2186.41050	                 nan
          2187.21680	                 nan
          2188.02310	                 nan
          2188.82940	                 nan
          2189.63570	                 nan
          2190.44200	                 nan
          2191.24830	                 nan
          2192.05460	                 nan
          2192.86090	                 nan
          2193.66720	                 nan
          2194.47350	                 nan
          2195.27980	                 nan
          2196.08610	                 nan
          2196.89240	                 nan
          2197.69870	                 nan
          2198.50500	                 nan
          2199.31130	                 nan
          2200.11760	                 nan
          2200.92390	                 nan
          2201.73020	                 nan
          2202.53650	                 nan
          2203.34280	                 nan
          2204.14910	                 nan
          2204.95540	                 nan
          2205.76170	                 nan
          2206.56800	                 nan
          2207.37430	                 nan
          2208.18060	                 nan
          2208.98690	                 nan
          2209.79320	                 nan
          2210.59950	                 nan
          2211.40580	                 nan
          2212.21210	                 nan
          2213.01840	                 nan
          2213.82470	                 nan
          2214.63100	                 nan
          2215.43730	         0.00000e+00
