#sample_414_stacked_spectrum_rest_UV-bands_median_H-alpha_noDC.txt
#median Lum: 1.73965e+42
#Rest-frame wavelength (A) | Luminosity (erg/s/A)
#
          1110.00000	         0.00000e+00
          1110.80630	         5.17750e+59
          1111.61260	         5.54573e+59
          1112.41890	         4.07221e+58
          1113.22520	        -1.34899e+59
          1114.03150	        -3.61121e+58
          1114.83780	         2.55953e+59
          1115.64410	         1.94563e+59
          1116.45040	         1.54788e+59
          1117.25670	        -5.22860e+58
          1118.06300	         2.47698e+58
          1118.86930	         1.45175e+59
          1119.67560	         2.24683e+59
          1120.48190	         4.83271e+57
          1121.28820	        -7.52225e+58
          1122.09450	         6.53799e+58
          1122.90080	         2.76693e+58
          1123.70710	         6.71122e+58
          1124.51340	         4.60915e+58
          1125.31970	         3.85490e+58
          1126.12600	         2.35161e+58
          1126.93230	        -4.96827e+58
          1127.73860	        -7.81764e+58
          1128.54490	        -2.85423e+57
          1129.35120	         3.69747e+57
          1130.15750	        -7.39112e+57
          1130.96380	        -8.29875e+57
          1131.77010	         2.59791e+58
          1132.57640	         3.75907e+58
          1133.38270	         3.81582e+58
          1134.18900	        -6.03694e+57
          1134.99530	        -6.98178e+57
          1135.80160	         2.74879e+58
          1136.60790	        -5.23100e+57
          1137.41420	        -1.11659e+58
          1138.22050	         4.41983e+58
          1139.02680	         4.31424e+58
          1139.83310	         2.66207e+58
          1140.63940	         1.92067e+58
          1141.44570	        -2.07595e+58
          1142.25200	        -1.37713e+58
          1143.05830	         1.28831e+58
          1143.86460	         1.76502e+58
          1144.67090	         2.19283e+58
          1145.47720	         1.21578e+58
          1146.28350	         8.81096e+57
          1147.08980	         9.76477e+57
          1147.89610	         1.20853e+58
          1148.70240	         1.62155e+58
          1149.50870	         2.58956e+58
          1150.31500	         2.24856e+58
          1151.12130	         2.13536e+58
          1151.92760	         4.29503e+57
          1152.73390	         5.33729e+57
          1153.54020	        -4.82873e+57
          1154.34650	         2.18038e+58
          1155.15280	         1.63396e+58
          1155.95910	         1.73122e+58
          1156.76540	         4.00961e+57
          1157.57170	         6.18352e+57
          1158.37800	        -2.75409e+57
          1159.18430	        -5.13896e+57
          1159.99060	         3.80365e+57
          1160.79690	         1.89052e+57
          1161.60320	         6.31331e+57
          1162.40950	         1.53622e+58
          1163.21580	         5.42740e+57
          1164.02210	         1.38708e+58
          1164.82840	         9.07921e+57
          1165.63470	         1.33721e+58
          1166.44100	         3.24296e+58
          1167.24730	         1.61872e+58
          1168.05360	         1.75376e+57
          1168.85990	         3.74726e+57
          1169.66620	         3.76893e+57
          1170.47250	         3.84211e+57
          1171.27880	         7.05718e+57
          1172.08510	         1.60254e+58
          1172.89140	         1.42733e+58
          1173.69770	         3.47728e+57
          1174.50400	         9.61159e+57
          1175.31030	         1.58166e+58
          1176.11660	         2.12571e+58
          1176.92290	         1.75940e+58
          1177.72920	         1.04554e+58
          1178.53550	         6.09708e+57
          1179.34180	         5.28408e+57
          1180.14810	         4.45097e+57
          1180.95440	         1.22048e+58
          1181.76070	         1.06148e+58
          1182.56700	         9.17369e+57
          1183.37330	         9.88186e+57
          1184.17960	         1.02308e+58
          1184.98590	         1.09223e+58
          1185.79220	         5.85921e+57
          1186.59850	         7.93292e+57
          1187.40480	         8.85118e+57
          1188.21110	         1.29158e+58
          1189.01740	         6.06437e+57
          1189.82370	         1.05030e+58
          1190.63000	         1.73219e+58
          1191.43630	         1.13183e+58
          1192.24260	         1.05758e+58
          1193.04890	         1.35279e+58
          1193.85520	         1.37075e+58
          1194.66150	         7.13638e+57
          1195.46780	         8.43703e+57
          1196.27410	         1.19927e+58
          1197.08040	         8.29168e+57
          1197.88670	         1.24403e+58
          1198.69300	         1.46210e+58
          1199.49930	         1.51343e+58
          1200.30560	         9.40794e+57
          1201.11190	         1.03014e+58
          1201.91820	         1.21471e+58
          1202.72450	         1.08274e+58
          1203.53080	         1.51071e+58
          1204.33710	         8.02060e+57
          1205.14340	         9.97404e+57
          1205.94970	         6.81195e+57
          1206.75600	         7.98387e+57
          1207.56230	         7.01716e+57
          1208.36860	         9.37234e+57
          1209.17490	         5.31998e+57
          1209.98120	         6.51138e+57
          1210.78750	         7.33425e+57
          1211.59380	         1.20170e+58
          1212.40010	         1.76185e+58
          1213.20640	         2.16666e+58
          1214.01270	         2.19570e+58
          1214.81900	         2.00488e+58
          1215.62530	         4.11947e+58
          1216.43160	         9.10477e+58
          1217.23790	         1.50267e+59
          1218.04420	         1.19898e+59
          1218.85050	         9.05771e+58
          1219.65680	         6.21573e+58
          1220.46310	         3.24835e+58
          1221.26940	         2.09019e+58
          1222.07570	         1.40877e+58
          1222.88200	         1.20210e+58
          1223.68830	         1.20496e+58
          1224.49460	         6.75313e+57
          1225.30090	         5.69573e+57
          1226.10720	         7.87454e+57
          1226.91350	         9.65670e+57
          1227.71980	         7.83530e+57
          1228.52610	         1.03705e+58
          1229.33240	         9.87236e+57
          1230.13870	         6.89083e+57
          1230.94500	         1.24564e+58
          1231.75130	         9.52301e+57
          1232.55760	         9.07913e+57
          1233.36390	         7.93829e+57
          1234.17020	         1.06776e+58
          1234.97650	         9.39621e+57
          1235.78280	         8.01379e+57
          1236.58910	         9.98096e+57
          1237.39540	         1.11867e+58
          1238.20170	         1.17737e+58
          1239.00800	         1.30036e+58
          1239.81430	         1.42759e+58
          1240.62060	         1.00142e+58
          1241.42690	         9.42343e+57
          1242.23320	         1.27057e+58
          1243.03950	         1.04050e+58
          1243.84580	         9.80275e+57
          1244.65210	         1.13306e+58
          1245.45840	         8.56231e+57
          1246.26470	         7.90146e+57
          1247.07100	         8.10251e+57
          1247.87730	         6.32024e+57
          1248.68360	         4.26713e+57
          1249.48990	         8.58436e+57
          1250.29620	         1.17173e+58
          1251.10250	         1.00416e+58
          1251.90880	         7.50883e+57
          1252.71510	         5.85474e+57
          1253.52140	         7.32267e+57
          1254.32770	         9.70294e+57
          1255.13400	         1.20805e+58
          1255.94030	         1.21635e+58
          1256.74660	         1.28362e+58
          1257.55290	         1.49513e+58
          1258.35920	         1.29018e+58
          1259.16550	         8.13040e+57
          1259.97180	         5.27706e+57
          1260.77810	         7.61408e+57
          1261.58440	         1.16700e+58
          1262.39070	         9.64301e+57
          1263.19700	         9.54665e+57
          1264.00330	         1.10532e+58
          1264.80960	         1.16246e+58
          1265.61590	         1.18554e+58
          1266.42220	         1.24065e+58
          1267.22850	         1.13053e+58
          1268.03480	         1.24754e+58
          1268.84110	         1.47908e+58
          1269.64740	         1.30511e+58
          1270.45370	         1.32277e+58
          1271.26000	         1.35834e+58
          1272.06630	         1.30166e+58
          1272.87260	         1.46171e+58
          1273.67890	         1.43775e+58
          1274.48520	         1.23957e+58
          1275.29150	         1.36488e+58
          1276.09780	         1.53118e+58
          1276.90410	         1.66001e+58
          1277.71040	         1.33416e+58
          1278.51670	         1.12860e+58
          1279.32300	         1.35507e+58
          1280.12930	         1.53704e+58
          1280.93560	         1.38729e+58
          1281.74190	         1.32642e+58
          1282.54820	         1.37353e+58
          1283.35450	         1.06944e+58
          1284.16080	         1.16548e+58
          1284.96710	         1.44987e+58
          1285.77340	         1.23341e+58
          1286.57970	         8.54823e+57
          1287.38600	         1.69738e+58
          1288.19230	         2.12698e+58
          1288.99860	         1.67030e+58
          1289.80490	         1.09859e+58
          1290.61120	         1.41465e+58
          1291.41750	         1.46192e+58
          1292.22380	         1.14471e+58
          1293.03010	         1.11757e+58
          1293.83640	         1.13181e+58
          1294.64270	         9.00237e+57
          1295.44900	         6.08635e+57
          1296.25530	         7.48380e+57
          1297.06160	         1.06201e+58
          1297.86790	         1.26380e+58
          1298.67420	         1.15522e+58
          1299.48050	         9.63910e+57
          1300.28680	         1.09374e+58
          1301.09310	         9.14618e+57
          1301.89940	         4.74836e+57
          1302.70570	         7.41092e+57
          1303.51200	         7.21065e+57
          1304.31830	         9.33063e+57
          1305.12460	         1.10334e+58
          1305.93090	         1.15736e+58
          1306.73720	         1.27175e+58
          1307.54350	         1.53624e+58
          1308.34980	         1.51851e+58
          1309.15610	         1.55401e+58
          1309.96240	         1.63783e+58
          1310.76870	         1.39628e+58
          1311.57500	         1.29362e+58
          1312.38130	         1.47415e+58
          1313.18760	         1.47985e+58
          1313.99390	         1.59730e+58
          1314.80020	         1.65195e+58
          1315.60650	         1.78600e+58
          1316.41280	         1.35499e+58
          1317.21910	         1.27934e+58
          1318.02540	         1.12399e+58
          1318.83170	         1.21777e+58
          1319.63800	         1.32526e+58
          1320.44430	         1.32255e+58
          1321.25060	         1.18021e+58
          1322.05690	         1.22289e+58
          1322.86320	         1.24943e+58
          1323.66950	         1.06738e+58
          1324.47580	         1.01666e+58
          1325.28210	         1.10095e+58
          1326.08840	         1.42795e+58
          1326.89470	         1.55401e+58
          1327.70100	         1.24969e+58
          1328.50730	         8.82435e+57
          1329.31360	         8.61088e+57
          1330.11990	         9.11963e+57
          1330.92620	         8.08396e+57
          1331.73250	         1.04660e+58
          1332.53880	         1.08396e+58
          1333.34510	         9.35446e+57
          1334.15140	         9.15049e+57
          1334.95770	         9.50374e+57
          1335.76400	         1.02324e+58
          1336.57030	         1.24269e+58
          1337.37660	         1.17236e+58
          1338.18290	         1.12422e+58
          1338.98920	         1.20968e+58
          1339.79550	         1.20423e+58
          1340.60180	         1.48275e+58
          1341.40810	         1.41757e+58
          1342.21440	         1.06612e+58
          1343.02070	         1.29930e+58
          1343.82700	         1.51845e+58
          1344.63330	         1.35450e+58
          1345.43960	         1.31709e+58
          1346.24590	         1.27188e+58
          1347.05220	         1.33334e+58
          1347.85850	         1.00032e+58
          1348.66480	         1.08577e+58
          1349.47110	         1.29061e+58
          1350.27740	         1.27535e+58
          1351.08370	         1.39894e+58
          1351.89000	         1.22530e+58
          1352.69630	         9.96725e+57
          1353.50260	         1.15525e+58
          1354.30890	         1.39427e+58
          1355.11520	         1.34728e+58
          1355.92150	         1.21178e+58
          1356.72780	         1.07238e+58
          1357.53410	         1.10897e+58
          1358.34040	         1.05399e+58
          1359.14670	         1.03772e+58
          1359.95300	         1.18953e+58
          1360.75930	         1.28969e+58
          1361.56560	         1.34177e+58
          1362.37190	         1.36959e+58
          1363.17820	         1.33692e+58
          1363.98450	         1.34635e+58
          1364.79080	         1.36842e+58
          1365.59710	         1.26763e+58
          1366.40340	         1.26032e+58
          1367.20970	         1.18877e+58
          1368.01600	         1.06551e+58
          1368.82230	         1.11427e+58
          1369.62860	         1.06118e+58
          1370.43490	         8.74906e+57
          1371.24120	         9.22508e+57
          1372.04750	         9.26252e+57
          1372.85380	         1.09846e+58
          1373.66010	         1.26745e+58
          1374.46640	         1.13244e+58
          1375.27270	         1.16116e+58
          1376.07900	         1.06223e+58
          1376.88530	         1.02899e+58
          1377.69160	         9.43579e+57
          1378.49790	         6.62912e+57
          1379.30420	         7.81612e+57
          1380.11050	         1.09969e+58
          1380.91680	         9.35549e+57
          1381.72310	         8.59337e+57
          1382.52940	         8.95162e+57
          1383.33570	         8.57515e+57
          1384.14200	         1.02194e+58
          1384.94830	         1.09315e+58
          1385.75460	         1.05208e+58
          1386.56090	         1.13351e+58
          1387.36720	         1.16544e+58
          1388.17350	         1.39638e+58
          1388.97980	         1.19660e+58
          1389.78610	         9.67669e+57
          1390.59240	         7.71053e+57
          1391.39870	         6.33651e+57
          1392.20500	         8.37444e+57
          1393.01130	         8.58024e+57
          1393.81760	         8.97955e+57
          1394.62390	         8.13971e+57
          1395.43020	         6.65625e+57
          1396.23650	         7.55376e+57
          1397.04280	         7.51292e+57
          1397.84910	         8.90912e+57
          1398.65540	         1.08377e+58
          1399.46170	         9.63195e+57
          1400.26800	         7.54417e+57
          1401.07430	         7.99776e+57
          1401.88060	         9.30340e+57
          1402.68690	         9.96208e+57
          1403.49320	         1.01180e+58
          1404.29950	         8.94738e+57
          1405.10580	         1.02720e+58
          1405.91210	         1.32930e+58
          1406.71840	         1.22318e+58
          1407.52470	         1.07218e+58
          1408.33100	         1.13951e+58
          1409.13730	         1.19952e+58
          1409.94360	         1.22457e+58
          1410.74990	         1.07636e+58
          1411.55620	         1.05006e+58
          1412.36250	         1.11906e+58
          1413.16880	         9.37617e+57
          1413.97510	         8.84507e+57
          1414.78140	         9.35023e+57
          1415.58770	         9.32845e+57
          1416.39400	         9.42496e+57
          1417.20030	         9.90483e+57
          1418.00660	         9.11744e+57
          1418.81290	         1.03674e+58
          1419.61920	         1.10373e+58
          1420.42550	         1.18214e+58
          1421.23180	         1.32184e+58
          1422.03810	         1.43929e+58
          1422.84440	         1.23473e+58
          1423.65070	         1.34194e+58
          1424.45700	         1.22323e+58
          1425.26330	         9.43025e+57
          1426.06960	         8.52939e+57
          1426.87590	         9.64736e+57
          1427.68220	         9.72645e+57
          1428.48850	         9.76742e+57
          1429.29480	         1.02406e+58
          1430.10110	         1.03944e+58
          1430.90740	         9.48189e+57
          1431.71370	         8.63829e+57
          1432.52000	         8.95940e+57
          1433.32630	         8.77992e+57
          1434.13260	         8.23146e+57
          1434.93890	         8.09665e+57
          1435.74520	         8.76105e+57
          1436.55150	         9.17537e+57
          1437.35780	         9.97066e+57
          1438.16410	         1.07850e+58
          1438.97040	         9.78596e+57
          1439.77670	         9.95310e+57
          1440.58300	         1.03119e+58
          1441.38930	         8.82362e+57
          1442.19560	         8.91229e+57
          1443.00190	         9.82970e+57
          1443.80820	         1.19069e+58
          1444.61450	         1.03972e+58
          1445.42080	         8.23273e+57
          1446.22710	         1.13570e+58
          1447.03340	         1.04388e+58
          1447.83970	         1.11527e+58
          1448.64600	         1.14477e+58
          1449.45230	         1.02975e+58
          1450.25860	         1.12369e+58
          1451.06490	         1.01412e+58
          1451.87120	         7.41837e+57
          1452.67750	         7.00919e+57
          1453.48380	         9.67039e+57
          1454.29010	         8.36201e+57
          1455.09640	         8.08748e+57
          1455.90270	         9.54630e+57
          1456.70900	         1.02746e+58
          1457.51530	         1.12334e+58
          1458.32160	         1.21634e+58
          1459.12790	         1.16821e+58
          1459.93420	         1.04882e+58
          1460.74050	         1.00189e+58
          1461.54680	         8.78795e+57
          1462.35310	         8.16844e+57
          1463.15940	         1.07680e+58
          1463.96570	         1.31838e+58
          1464.77200	         1.31426e+58
          1465.57830	         1.07186e+58
          1466.38460	         9.53230e+57
          1467.19090	         8.58403e+57
          1467.99720	         8.66498e+57
          1468.80350	         8.75711e+57
          1469.60980	         9.38820e+57
          1470.41610	         1.09260e+58
          1471.22240	         1.04476e+58
          1472.02870	         1.13684e+58
          1472.83500	         1.12066e+58
          1473.64130	         1.02588e+58
          1474.44760	         1.00967e+58
          1475.25390	         9.14378e+57
          1476.06020	         8.98471e+57
          1476.86650	         8.73767e+57
          1477.67280	         7.24032e+57
          1478.47910	         7.70691e+57
          1479.28540	         8.09824e+57
          1480.09170	         9.91513e+57
          1480.89800	         9.64042e+57
          1481.70430	         9.02777e+57
          1482.51060	         8.16634e+57
          1483.31690	         7.16106e+57
          1484.12320	         8.63210e+57
          1484.92950	         9.11694e+57
          1485.73580	         9.59990e+57
          1486.54210	         1.07735e+58
          1487.34840	         9.99397e+57
          1488.15470	         9.86336e+57
          1488.96100	         1.03797e+58
          1489.76730	         1.07715e+58
          1490.57360	         9.39012e+57
          1491.37990	         7.60850e+57
          1492.18620	         8.80464e+57
          1492.99250	         9.27190e+57
          1493.79880	         9.38391e+57
          1494.60510	         7.97239e+57
          1495.41140	         6.83342e+57
          1496.21770	         9.49018e+57
          1497.02400	         1.19869e+58
          1497.83030	         9.98906e+57
          1498.63660	         7.75219e+57
          1499.44290	         7.38651e+57
          1500.24920	         8.05744e+57
          1501.05550	         8.00908e+57
          1501.86180	         7.34898e+57
          1502.66810	         9.36347e+57
          1503.47440	         1.04894e+58
          1504.28070	         9.22581e+57
          1505.08700	         8.90762e+57
          1505.89330	         9.35446e+57
          1506.69960	         8.94738e+57
          1507.50590	         8.92648e+57
          1508.31220	         9.82244e+57
          1509.11850	         9.07599e+57
          1509.92480	         9.33960e+57
          1510.73110	         9.01773e+57
          1511.53740	         8.37059e+57
          1512.34370	         7.94371e+57
          1513.15000	         8.70830e+57
          1513.95630	         1.09912e+58
          1514.76260	         9.81527e+57
          1515.56890	         8.07954e+57
          1516.37520	         8.55750e+57
          1517.18150	         9.00007e+57
          1517.98780	         7.91916e+57
          1518.79410	         7.80804e+57
          1519.60040	         8.61947e+57
          1520.40670	         9.40052e+57
          1521.21300	         1.04982e+58
          1522.01930	         9.48299e+57
          1522.82560	         8.81843e+57
          1523.63190	         1.10829e+58
          1524.43820	         9.80659e+57
          1525.24450	         7.50570e+57
          1526.05080	         6.56171e+57
          1526.85710	         7.01308e+57
          1527.66340	         8.62597e+57
          1528.46970	         9.77654e+57
          1529.27600	         9.38599e+57
          1530.08230	         8.11204e+57
          1530.88860	         7.54724e+57
          1531.69490	         8.95756e+57
          1532.50120	         1.03531e+58
          1533.30750	         1.03847e+58
          1534.11380	         1.11878e+58
          1534.92010	         1.08237e+58
          1535.72640	         1.00476e+58
          1536.53270	         1.05548e+58
          1537.33900	         8.65901e+57
          1538.14530	         8.46231e+57
          1538.95160	         9.94932e+57
          1539.75790	         1.02009e+58
          1540.56420	         1.01108e+58
          1541.37050	         9.32721e+57
          1542.17680	         7.50827e+57
          1542.98310	         8.72281e+57
          1543.78940	         9.30382e+57
          1544.59570	         6.81877e+57
          1545.40200	         7.92512e+57
          1546.20830	         1.01238e+58
          1547.01460	         1.02240e+58
          1547.82090	         1.12280e+58
          1548.62720	         1.25064e+58
          1549.43350	         1.20579e+58
          1550.23980	         1.11949e+58
          1551.04610	         1.24189e+58
          1551.85240	         1.29404e+58
          1552.65870	         1.15096e+58
          1553.46500	         1.07032e+58
          1554.27130	         1.10919e+58
          1555.07760	         1.12841e+58
          1555.88390	         1.01755e+58
          1556.69020	         9.99983e+57
          1557.49650	         1.00779e+58
          1558.30280	         9.33986e+57
          1559.10910	         8.65296e+57
          1559.91540	         9.10176e+57
          1560.72170	         9.42712e+57
          1561.52800	         9.40358e+57
          1562.33430	         9.67805e+57
          1563.14060	         8.53102e+57
          1563.94690	         8.22221e+57
          1564.75320	         7.63531e+57
          1565.55950	         7.45759e+57
          1566.36580	         8.03499e+57
          1567.17210	         9.94749e+57
          1567.97840	         1.00995e+58
          1568.78470	         9.88544e+57
          1569.59100	         1.03731e+58
          1570.39730	         8.66167e+57
          1571.20360	         7.53288e+57
          1572.00990	         7.76227e+57
          1572.81620	         9.05018e+57
          1573.62250	         1.08051e+58
          1574.42880	         1.04705e+58
          1575.23510	         8.73285e+57
          1576.04140	         9.03993e+57
          1576.84770	         9.69408e+57
          1577.65400	         9.42697e+57
          1578.46030	         1.04148e+58
          1579.26660	         1.11515e+58
          1580.07290	         9.91288e+57
          1580.87920	         8.41529e+57
          1581.68550	         8.85230e+57
          1582.49180	         8.75480e+57
          1583.29810	         7.91056e+57
          1584.10440	         9.03043e+57
          1584.91070	         1.06238e+58
          1585.71700	         1.03765e+58
          1586.52330	         1.03490e+58
          1587.32960	         1.00657e+58
          1588.13590	         9.86394e+57
          1588.94220	         8.91989e+57
          1589.74850	         9.89854e+57
          1590.55480	         1.00416e+58
          1591.36110	         8.82089e+57
          1592.16740	         8.36681e+57
          1592.97370	         8.65315e+57
          1593.78000	         9.77977e+57
          1594.58630	         1.01841e+58
          1595.39260	         9.57390e+57
          1596.19890	         9.49772e+57
          1597.00520	         9.55207e+57
          1597.81150	         8.65344e+57
          1598.61780	         7.32536e+57
          1599.42410	         7.01314e+57
          1600.23040	         6.87120e+57
          1601.03670	         7.94354e+57
          1601.84300	         8.42244e+57
          1602.64930	         8.97561e+57
          1603.45560	         7.89862e+57
          1604.26190	         8.44940e+57
          1605.06820	         8.56567e+57
          1605.87450	         7.80078e+57
          1606.68080	         7.05248e+57
          1607.48710	         5.43285e+57
          1608.29340	         5.02884e+57
          1609.09970	         6.68857e+57
          1609.90600	         8.69155e+57
          1610.71230	         8.38080e+57
          1611.51860	         7.03763e+57
          1612.32490	         6.94317e+57
          1613.13120	         8.00347e+57
          1613.93750	         8.35972e+57
          1614.74380	         8.68441e+57
          1615.55010	         8.92016e+57
          1616.35640	         9.57102e+57
          1617.16270	         1.00490e+58
          1617.96900	         9.82747e+57
          1618.77530	         8.64544e+57
          1619.58160	         9.04586e+57
          1620.38790	         8.45151e+57
          1621.19420	         9.45954e+57
          1622.00050	         7.86932e+57
          1622.80680	         7.93360e+57
          1623.61310	         8.61762e+57
          1624.41940	         9.11275e+57
          1625.22570	         9.40741e+57
          1626.03200	         1.01815e+58
          1626.83830	         8.12598e+57
          1627.64460	         6.70493e+57
          1628.45090	         7.23343e+57
          1629.25720	         9.05996e+57
          1630.06350	         1.08364e+58
          1630.86980	         8.19825e+57
          1631.67610	         8.27853e+57
          1632.48240	         8.57938e+57
          1633.28870	         8.70479e+57
          1634.09500	         1.01436e+58
          1634.90130	         1.15105e+58
          1635.70760	         9.75682e+57
          1636.51390	         8.80021e+57
          1637.32020	         7.98632e+57
          1638.12650	         9.33442e+57
          1638.93280	         9.96823e+57
          1639.73910	         1.12528e+58
          1640.54540	         1.12357e+58
          1641.35170	         9.61780e+57
          1642.15800	         9.20445e+57
          1642.96430	         9.23614e+57
          1643.77060	         8.97094e+57
          1644.57690	         8.66800e+57
          1645.38320	         8.68663e+57
          1646.18950	         7.32969e+57
          1646.99580	         7.55933e+57
          1647.80210	         7.54936e+57
          1648.60840	         8.12559e+57
          1649.41470	         8.82462e+57
          1650.22100	         8.33459e+57
          1651.02730	         8.00746e+57
          1651.83360	         7.43025e+57
          1652.63990	         7.93825e+57
          1653.44620	         8.79937e+57
          1654.25250	         8.49475e+57
          1655.05880	         7.33573e+57
          1655.86510	         8.11169e+57
          1656.67140	         9.71532e+57
          1657.47770	         9.84703e+57
          1658.28400	         9.08843e+57
          1659.09030	         8.64975e+57
          1659.89660	         9.46636e+57
          1660.70290	         1.03930e+58
          1661.50920	         9.94755e+57
          1662.31550	         8.71453e+57
          1663.12180	         8.63979e+57
          1663.92810	         9.90792e+57
          1664.73440	         1.11396e+58
          1665.54070	         1.28051e+58
          1666.34700	         1.35720e+58
          1667.15330	         1.21033e+58
          1667.95960	         9.34610e+57
          1668.76590	         8.64864e+57
          1669.57220	         8.29817e+57
          1670.37850	         8.71836e+57
          1671.18480	         8.75765e+57
          1671.99110	         8.40476e+57
          1672.79740	         7.59118e+57
          1673.60370	         7.13060e+57
          1674.41000	         7.57906e+57
          1675.21630	         7.30163e+57
          1676.02260	         6.57076e+57
          1676.82890	         6.63743e+57
          1677.63520	         7.11410e+57
          1678.44150	         7.66890e+57
          1679.24780	         9.05388e+57
          1680.05410	         8.21203e+57
          1680.86040	         7.05664e+57
          1681.66670	         7.76257e+57
          1682.47300	         8.17463e+57
          1683.27930	         8.26370e+57
          1684.08560	         8.60167e+57
          1684.89190	         7.47083e+57
          1685.69820	         5.82668e+57
          1686.50450	         6.40811e+57
          1687.31080	         7.36626e+57
          1688.11710	         7.97610e+57
          1688.92340	         7.18073e+57
          1689.72970	         6.85159e+57
          1690.53600	         7.80723e+57
          1691.34230	         8.33216e+57
          1692.14860	         9.11373e+57
          1692.95490	         8.67133e+57
          1693.76120	         7.72527e+57
          1694.56750	         7.85222e+57
          1695.37380	         9.17391e+57
          1696.18010	         8.83368e+57
          1696.98640	         8.33844e+57
          1697.79270	         8.57882e+57
          1698.59900	         8.68703e+57
          1699.40530	         7.45519e+57
          1700.21160	         8.72253e+57
          1701.01790	         9.71881e+57
          1701.82420	         7.82769e+57
          1702.63050	         8.65524e+57
          1703.43680	         1.03810e+58
          1704.24310	         9.68109e+57
          1705.04940	         8.69146e+57
          1705.85570	         9.05657e+57
          1706.66200	         9.79557e+57
          1707.46830	         9.05332e+57
          1708.27460	         7.70338e+57
          1709.08090	         7.33288e+57
          1709.88720	         7.53599e+57
          1710.69350	         6.42970e+57
          1711.49980	         6.88797e+57
          1712.30610	         7.86890e+57
          1713.11240	         8.84876e+57
          1713.91870	         8.02884e+57
          1714.72500	         8.37510e+57
          1715.53130	         9.00530e+57
          1716.33760	         8.99419e+57
          1717.14390	         8.69782e+57
          1717.95020	         8.55737e+57
          1718.75650	         9.14768e+57
          1719.56280	         9.56607e+57
          1720.36910	         8.26069e+57
          1721.17540	         7.15117e+57
          1721.98170	         6.87334e+57
          1722.78800	         7.78241e+57
          1723.59430	         8.03771e+57
          1724.40060	         7.83273e+57
          1725.20690	         8.13140e+57
          1726.01320	         8.57206e+57
          1726.81950	         8.16967e+57
          1727.62580	         8.08692e+57
          1728.43210	         6.96204e+57
          1729.23840	         6.98035e+57
          1730.04470	         8.69931e+57
          1730.85100	         8.52012e+57
          1731.65730	         8.19682e+57
          1732.46360	         8.93669e+57
          1733.26990	         8.11297e+57
          1734.07620	         8.31149e+57
          1734.88250	         8.68432e+57
          1735.68880	         7.98848e+57
          1736.49510	         7.99355e+57
          1737.30140	         8.74814e+57
          1738.10770	         7.20719e+57
          1738.91400	         7.42293e+57
          1739.72030	         7.89512e+57
          1740.52660	         5.98563e+57
          1741.33290	         5.95911e+57
          1742.13920	         7.01149e+57
          1742.94550	         7.03946e+57
          1743.75180	         8.25350e+57
          1744.55810	         8.42514e+57
          1745.36440	         7.82003e+57
          1746.17070	         7.25759e+57
          1746.97700	         7.30637e+57
          1747.78330	         8.23887e+57
          1748.58960	         8.10725e+57
          1749.39590	         7.80527e+57
          1750.20220	         7.16313e+57
          1751.00850	         6.90793e+57
          1751.81480	         6.42916e+57
          1752.62110	         7.14040e+57
          1753.42740	         9.00517e+57
          1754.23370	         7.20127e+57
          1755.04000	         6.48770e+57
          1755.84630	         6.65205e+57
          1756.65260	         8.45193e+57
          1757.45890	         9.12119e+57
          1758.26520	         7.88508e+57
          1759.07150	         1.02433e+58
          1759.87780	         1.00722e+58
          1760.68410	         7.97596e+57
          1761.49040	         8.46441e+57
          1762.29670	         7.56350e+57
          1763.10300	         8.36443e+57
          1763.90930	         8.95355e+57
          1764.71560	         8.44531e+57
          1765.52190	         8.70872e+57
          1766.32820	         8.57665e+57
          1767.13450	         8.62264e+57
          1767.94080	         7.53421e+57
          1768.74710	         6.84008e+57
          1769.55340	         7.10806e+57
          1770.35970	         6.24154e+57
          1771.16600	         6.75325e+57
          1771.97230	         8.36629e+57
          1772.77860	         9.52831e+57
          1773.58490	         7.76232e+57
          1774.39120	         6.02764e+57
          1775.19750	         6.09394e+57
          1776.00380	         6.70014e+57
          1776.81010	         7.35513e+57
          1777.61640	         6.94615e+57
          1778.42270	         7.19593e+57
          1779.22900	         6.98538e+57
          1780.03530	         7.11227e+57
          1780.84160	         8.48526e+57
          1781.64790	         1.04928e+58
          1782.45420	         8.37256e+57
          1783.26050	         6.44586e+57
          1784.06680	         7.55850e+57
          1784.87310	         7.83537e+57
          1785.67940	         7.78213e+57
          1786.48570	         7.12734e+57
          1787.29200	         5.91720e+57
          1788.09830	         5.55158e+57
          1788.90460	         6.30095e+57
          1789.71090	         5.76885e+57
          1790.51720	         6.17848e+57
          1791.32350	         7.72248e+57
          1792.12980	         9.29005e+57
          1792.93610	         7.80399e+57
          1793.74240	         6.79520e+57
          1794.54870	         8.76356e+57
          1795.35500	         8.50697e+57
          1796.16130	         7.86292e+57
          1796.96760	         7.04629e+57
          1797.77390	         7.69222e+57
          1798.58020	         8.20430e+57
          1799.38650	         7.46987e+57
          1800.19280	         7.42141e+57
          1800.99910	         7.52115e+57
          1801.80540	         7.05501e+57
          1802.61170	         7.53452e+57
          1803.41800	         7.45154e+57
          1804.22430	         6.58808e+57
          1805.03060	         7.06529e+57
          1805.83690	         8.20114e+57
          1806.64320	         7.79978e+57
          1807.44950	         7.50661e+57
          1808.25580	         7.71947e+57
          1809.06210	         8.83078e+57
          1809.86840	         8.40741e+57
          1810.67470	         8.27457e+57
          1811.48100	         8.77423e+57
          1812.28730	         8.79869e+57
          1813.09360	         8.44281e+57
          1813.89990	         8.74622e+57
          1814.70620	         7.89012e+57
          1815.51250	         9.33684e+57
          1816.31880	         9.08819e+57
          1817.12510	         7.61842e+57
          1817.93140	         6.69573e+57
          1818.73770	         7.59921e+57
          1819.54400	         8.37275e+57
          1820.35030	         8.21908e+57
          1821.15660	         6.69546e+57
          1821.96290	         6.72248e+57
          1822.76920	         7.30965e+57
          1823.57550	         7.42009e+57
          1824.38180	         8.26401e+57
          1825.18810	         8.24722e+57
          1825.99440	         8.36515e+57
          1826.80070	         8.49529e+57
          1827.60700	         7.16076e+57
          1828.41330	         6.51085e+57
          1829.21960	         6.67360e+57
          1830.02590	         7.06407e+57
          1830.83220	         8.09603e+57
          1831.63850	         7.74154e+57
          1832.44480	         7.91855e+57
          1833.25110	         8.86562e+57
          1834.05740	         8.83620e+57
          1834.86370	         6.91279e+57
          1835.67000	         5.17671e+57
          1836.47630	         7.61204e+57
          1837.28260	         9.48423e+57
          1838.08890	         9.13456e+57
          1838.89520	         8.89845e+57
          1839.70150	         9.06694e+57
          1840.50780	         8.49799e+57
          1841.31410	         7.93087e+57
          1842.12040	         7.04254e+57
          1842.92670	         6.54561e+57
          1843.73300	         7.20116e+57
          1844.53930	         8.17662e+57
          1845.34560	         7.61231e+57
          1846.15190	         7.87439e+57
          1846.95820	         8.84766e+57
          1847.76450	         6.80042e+57
          1848.57080	         5.39360e+57
          1849.37710	         7.24064e+57
          1850.18340	         8.32665e+57
          1850.98970	         8.33644e+57
          1851.79600	         8.75356e+57
          1852.60230	         8.66790e+57
          1853.40860	         7.33487e+57
          1854.21490	         6.56572e+57
          1855.02120	         6.74615e+57
          1855.82750	         6.06714e+57
          1856.63380	         6.96163e+57
          1857.44010	         7.67796e+57
          1858.24640	         6.82419e+57
          1859.05270	         8.69505e+57
          1859.85900	         6.13156e+57
          1860.66530	         6.02792e+57
          1861.47160	         7.24791e+57
          1862.27790	         7.60992e+57
          1863.08420	         8.44394e+57
          1863.89050	         8.34657e+57
          1864.69680	         8.65215e+57
          1865.50310	         8.26698e+57
          1866.30940	         6.29400e+57
          1867.11570	         6.97464e+57
          1867.92200	         8.62989e+57
          1868.72830	         8.23055e+57
          1869.53460	         7.35687e+57
          1870.34090	         7.19263e+57
          1871.14720	         7.89728e+57
          1871.95350	         7.90142e+57
          1872.75980	         8.18823e+57
          1873.56610	         7.15746e+57
          1874.37240	         6.38993e+57
          1875.17870	         6.92436e+57
          1875.98500	         7.41784e+57
          1876.79130	         7.77386e+57
          1877.59760	         7.37378e+57
          1878.40390	         6.32307e+57
          1879.21020	         6.66455e+57
          1880.01650	         7.49177e+57
          1880.82280	         7.96121e+57
          1881.62910	         8.94392e+57
          1882.43540	         9.91494e+57
          1883.24170	         8.97136e+57
          1884.04800	         7.39995e+57
          1884.85430	         7.28219e+57
          1885.66060	         8.99893e+57
          1886.46690	         9.75054e+57
          1887.27320	         8.66904e+57
          1888.07950	         6.40358e+57
          1888.88580	         6.32089e+57
          1889.69210	         8.45562e+57
          1890.49840	         9.39548e+57
          1891.30470	         7.98473e+57
          1892.11100	         8.83463e+57
          1892.91730	         8.45669e+57
          1893.72360	         8.98522e+57
          1894.52990	         8.44911e+57
          1895.33620	         8.31638e+57
          1896.14250	         6.69621e+57
          1896.94880	         6.95588e+57
          1897.75510	         5.86130e+57
          1898.56140	         6.16616e+57
          1899.36770	         8.43696e+57
          1900.17400	         7.28656e+57
          1900.98030	         5.95173e+57
          1901.78660	         7.54864e+57
          1902.59290	         7.12200e+57
          1903.39920	         8.01091e+57
          1904.20550	         8.70779e+57
          1905.01180	         8.87397e+57
          1905.81810	         9.34752e+57
          1906.62440	         1.17475e+58
          1907.43070	         1.42740e+58
          1908.23700	         1.57643e+58
          1909.04330	         1.35673e+58
          1909.84960	         1.20704e+58
          1910.65590	         9.65489e+57
          1911.46220	         1.00366e+58
          1912.26850	         9.19759e+57
          1913.07480	         6.62331e+57
          1913.88110	         6.37880e+57
          1914.68740	         6.17573e+57
          1915.49370	         5.34540e+57
          1916.30000	         6.08643e+57
          1917.10630	         6.89498e+57
          1917.91260	         6.52746e+57
          1918.71890	         6.70665e+57
          1919.52520	         7.14337e+57
          1920.33150	         6.10175e+57
          1921.13780	         7.19227e+57
          1921.94410	         8.25726e+57
          1922.75040	         7.95105e+57
          1923.55670	         7.70035e+57
          1924.36300	         7.24187e+57
          1925.16930	         5.86526e+57
          1925.97560	         5.94872e+57
          1926.78190	         4.91126e+57
          1927.58820	         5.46705e+57
          1928.39450	         6.62972e+57
          1929.20080	         6.10728e+57
          1930.00710	         7.63782e+57
          1930.81340	         8.36776e+57
          1931.61970	         6.21968e+57
          1932.42600	         7.89427e+57
          1933.23230	         9.67139e+57
          1934.03860	         9.07694e+57
          1934.84490	         6.76624e+57
          1935.65120	         7.94511e+57
          1936.45750	         9.13869e+57
          1937.26380	         7.28432e+57
          1938.07010	         7.54493e+57
          1938.87640	         7.81396e+57
          1939.68270	         8.55737e+57
          1940.48900	         9.41324e+57
          1941.29530	         8.99450e+57
          1942.10160	         7.56733e+57
          1942.90790	         7.75437e+57
          1943.71420	         6.62499e+57
          1944.52050	         6.56927e+57
          1945.32680	         6.69712e+57
          1946.13310	         7.85143e+57
          1946.93940	         8.58998e+57
          1947.74570	         7.39980e+57
          1948.55200	         6.41855e+57
          1949.35830	         5.89334e+57
          1950.16460	         5.25186e+57
          1950.97090	         6.72401e+57
          1951.77720	         8.46307e+57
          1952.58350	         8.60251e+57
          1953.38980	         7.49797e+57
          1954.19610	         4.21948e+57
          1955.00240	         4.65877e+57
          1955.80870	         6.14348e+57
          1956.61500	         6.07139e+57
          1957.42130	         6.07077e+57
          1958.22760	         7.31159e+57
          1959.03390	         6.93961e+57
          1959.84020	         7.61150e+57
          1960.64650	         7.85815e+57
          1961.45280	         7.67041e+57
          1962.25910	         6.73781e+57
          1963.06540	         7.67413e+57
          1963.87170	         6.62367e+57
          1964.67800	         7.86632e+57
          1965.48430	         7.58584e+57
          1966.29060	         6.06204e+57
          1967.09690	         7.18971e+57
          1967.90320	         6.91408e+57
          1968.70950	         6.82751e+57
          1969.51580	         6.51024e+57
          1970.32210	         7.01075e+57
          1971.12840	         7.12920e+57
          1971.93470	         4.88962e+57
          1972.74100	         4.87620e+57
          1973.54730	         7.10760e+57
          1974.35360	         6.73543e+57
          1975.15990	         7.34845e+57
          1975.96620	         6.80267e+57
          1976.77250	         7.77528e+57
          1977.57880	         7.42232e+57
          1978.38510	         5.13929e+57
          1979.19140	         7.18190e+57
          1979.99770	         9.14126e+57
          1980.80400	         8.03706e+57
          1981.61030	         6.70456e+57
          1982.41660	         5.92722e+57
          1983.22290	         5.44021e+57
          1984.02920	         6.41157e+57
          1984.83550	         6.11164e+57
          1985.64180	         6.15065e+57
          1986.44810	         7.23496e+57
          1987.25440	         6.22422e+57
          1988.06070	         6.18388e+57
          1988.86700	         7.70548e+57
          1989.67330	         7.51845e+57
          1990.47960	         7.32342e+57
          1991.28590	         7.00595e+57
          1992.09220	         6.64307e+57
          1992.89850	         6.51353e+57
          1993.70480	         7.13185e+57
          1994.51110	         5.39651e+57
          1995.31740	         3.56198e+57
          1996.12370	         4.10368e+57
          1996.93000	         5.65262e+57
          1997.73630	         7.71729e+57
          1998.54260	         7.45159e+57
          1999.34890	         6.50284e+57
          2000.15520	         6.49152e+57
          2000.96150	         6.65706e+57
          2001.76780	         6.48734e+57
          2002.57410	         4.59825e+57
          2003.38040	         5.99770e+57
          2004.18670	         6.48374e+57
          2004.99300	         5.91752e+57
          2005.79930	         7.60060e+57
          2006.60560	         7.61523e+57
          2007.41190	         6.34310e+57
          2008.21820	         6.97661e+57
          2009.02450	         6.30924e+57
          2009.83080	         6.25343e+57
          2010.63710	         6.55717e+57
          2011.44340	         6.88832e+57
          2012.24970	         8.01444e+57
          2013.05600	         8.23765e+57
          2013.86230	         7.41838e+57
          2014.66860	         5.93648e+57
          2015.47490	         6.74204e+57
          2016.28120	         5.41269e+57
          2017.08750	         6.16599e+57
          2017.89380	         6.56288e+57
          2018.70010	         7.07336e+57
          2019.50640	         6.03709e+57
          2020.31270	         6.94782e+57
          2021.11900	         7.72704e+57
          2021.92530	         6.61097e+57
          2022.73160	         7.46364e+57
          2023.53790	         7.56591e+57
          2024.34420	         6.76650e+57
          2025.15050	         4.72961e+57
          2025.95680	         5.39489e+57
          2026.76310	         6.75226e+57
          2027.56940	         6.63950e+57
          2028.37570	         6.47265e+57
          2029.18200	         7.01126e+57
          2029.98830	         6.24059e+57
          2030.79460	         5.97056e+57
          2031.60090	         7.02309e+57
          2032.40720	         6.46105e+57
          2033.21350	         6.54282e+57
          2034.01980	         5.72195e+57
          2034.82610	         4.04774e+57
          2035.63240	         5.21703e+57
          2036.43870	         5.59762e+57
          2037.24500	         6.02390e+57
          2038.05130	         7.83545e+57
          2038.85760	         7.06044e+57
          2039.66390	         6.50830e+57
          2040.47020	         5.95838e+57
          2041.27650	         6.51649e+57
          2042.08280	         5.76884e+57
          2042.88910	         6.14754e+57
          2043.69540	         6.76761e+57
          2044.50170	         4.95465e+57
          2045.30800	         5.53334e+57
          2046.11430	         6.11459e+57
          2046.92060	         5.36461e+57
          2047.72690	         6.83091e+57
          2048.53320	         6.73255e+57
          2049.33950	         4.95008e+57
          2050.14580	         6.51112e+57
          2050.95210	         8.56950e+57
          2051.75840	         6.98315e+57
          2052.56470	         5.87092e+57
          2053.37100	         4.90664e+57
          2054.17730	         4.52781e+57
          2054.98360	         5.85273e+57
          2055.78990	         4.24617e+57
          2056.59620	         3.82907e+57
          2057.40250	         4.39770e+57
          2058.20880	         6.17091e+57
          2059.01510	         6.98886e+57
          2059.82140	         6.45116e+57
          2060.62770	         1.05921e+58
          2061.43400	         1.82408e+58
          2062.24030	         1.56794e+58
          2063.04660	         4.10658e+57
          2063.85290	         7.94528e+56
          2064.65920	        -1.79048e+57
          2065.46550	        -7.04645e+57
          2066.27180	        -7.81233e+57
          2067.07810	         1.32684e+57
          2067.88440	         3.88595e+57
          2068.69070	         6.40413e+57
          2069.49700	         6.01329e+57
          2070.30330	         3.32738e+57
          2071.10960	         6.03652e+57
          2071.91590	         7.49047e+57
          2072.72220	         4.37188e+57
          2073.52850	         4.94800e+57
          2074.33480	         5.34264e+57
          2075.14110	         5.90418e+57
          2075.94740	         5.34274e+57
          2076.75370	         4.89248e+57
          2077.56000	         4.33190e+57
          2078.36630	         5.53017e+57
          2079.17260	         4.27601e+57
          2079.97890	         4.81135e+57
          2080.78520	         6.15042e+57
          2081.59150	         5.91675e+57
          2082.39780	         5.75593e+57
          2083.20410	         3.65973e+57
          2084.01040	         3.68820e+57
          2084.81670	         2.88697e+57
          2085.62300	         3.18660e+57
          2086.42930	         2.99585e+57
          2087.23560	         3.72712e+57
          2088.04190	         3.22056e+57
          2088.84820	         4.20050e+57
          2089.65450	         3.12054e+57
          2090.46080	         1.76653e+57
          2091.26710	         2.26310e+57
          2092.07340	         2.29694e+57
          2092.87970	         2.42040e+57
          2093.68600	        -9.31507e+56
          2094.49230	         2.56221e+55
          2095.29860	         2.74222e+57
          2096.10490	         3.74668e+57
          2096.91120	         1.40762e+57
          2097.71750	        -7.00537e+56
          2098.52380	         1.80489e+57
          2099.33010	         2.15803e+57
          2100.13640	         2.85894e+57
          2100.94270	         2.33777e+57
          2101.74900	         2.12699e+57
          2102.55530	         3.16696e+57
          2103.36160	         1.09604e+57
          2104.16790	         1.76826e+56
          2104.97420	         1.49507e+57
          2105.78050	         1.94196e+57
          2106.58680	         1.44401e+57
          2107.39310	         7.65112e+55
          2108.19940	         1.39927e+57
          2109.00570	         9.37129e+56
          2109.81200	        -8.94003e+56
          2110.61830	        -1.04958e+57
          2111.42460	         1.70714e+56
          2112.23090	         2.11645e+57
          2113.03720	         1.27603e+57
          2113.84350	         1.11315e+57
          2114.64980	         1.31410e+57
          2115.45610	        -1.85150e+57
          2116.26240	        -8.06067e+57
          2117.06870	        -2.40056e+57
          2117.87500	        -3.24897e+57
          2118.68130	         2.32000e+57
          2119.48760	         1.14740e+57
          2120.29390	         5.76291e+56
          2121.10020	        -3.14464e+57
          2121.90650	         3.09144e+57
          2122.71280	         4.68954e+57
          2123.51910	         2.87786e+57
          2124.32540	         5.13261e+57
          2125.13170	         2.75228e+56
          2125.93800	         1.21614e+57
          2126.74430	         1.80670e+57
          2127.55060	        -5.45807e+57
          2128.35690	        -4.45894e+56
          2129.16320	        -4.39106e+57
          2129.96950	        -6.58368e+57
          2130.77580	        -3.48309e+57
          2131.58210	         3.08386e+57
          2132.38840	        -7.65810e+56
          2133.19470	         3.39823e+57
          2134.00100	         8.80217e+56
          2134.80730	        -2.19681e+57
          2135.61360	         6.37993e+57
          2136.41990	         1.95716e+57
          2137.22620	         1.73321e+57
          2138.03250	         6.59546e+56
          2138.83880	         1.17396e+57
          2139.64510	        -3.69463e+57
          2140.45140	        -5.29554e+57
          2141.25770	        -1.35074e+58
          2142.06400	         4.86255e+56
          2142.87030	         5.81058e+56
          2143.67660	         4.03321e+57
          2144.48290	         6.29930e+57
          2145.28920	         1.15704e+58
          2146.09550	         1.03246e+57
          2146.90180	        -2.87372e+57
          2147.70810	        -7.57905e+57
          2148.51440	        -5.01499e+57
          2149.32070	        -6.68951e+57
          2150.12700	        -8.83264e+57
          2150.93330	        -4.44874e+57
          2151.73960	        -5.60787e+56
          2152.54590	        -3.70267e+57
          2153.35220	         7.69659e+57
          2154.15850	         2.69974e+57
          2154.96480	         4.93856e+57
          2155.77110	        -1.44132e+58
          2156.57740	        -9.74221e+57
          2157.38370	        -5.42400e+57
          2158.19000	        -7.19519e+57
          2158.99630	         8.90093e+57
          2159.80260	        -1.24128e+58
          2160.60890	        -1.39851e+58
          2161.41520	        -1.06037e+57
          2162.22150	         8.85008e+56
          2163.02780	        -8.90225e+57
          2163.83410	        -8.83563e+57
          2164.64040	        -8.59338e+57
          2165.44670	        -1.54589e+58
          2166.25300	        -1.39779e+58
          2167.05930	         7.14867e+56
          2167.86560	        -5.36148e+57
          2168.67190	        -4.39296e+57
          2169.47820	         3.09944e+57
          2170.28450	         8.10017e+56
          2171.09080	         6.71819e+56
          2171.89710	        -1.25928e+57
          2172.70340	         3.65162e+57
          2173.50970	        -4.26954e+57
          2174.31600	        -2.82028e+57
          2175.12230	         1.65202e+57
          2175.92860	        -8.99451e+57
          2176.73490	        -1.25852e+58
          2177.54120	        -1.03124e+57
          2178.34750	        -7.02551e+56
          2179.15380	                 nan
          2179.96010	                 nan
          2180.76640	                 nan
          2181.57270	                 nan
          2182.37900	                 nan
          2183.18530	                 nan
          2183.99160	                 nan
          2184.79790	                 nan
          2185.60420	                 nan
          2186.41050	                 nan
          2187.21680	                 nan
          2188.02310	                 nan
          2188.82940	                 nan
          2189.63570	                 nan
          2190.44200	                 nan
          2191.24830	                 nan
          2192.05460	                 nan
          2192.86090	                 nan
          2193.66720	                 nan
          2194.47350	                 nan
          2195.27980	                 nan
          2196.08610	                 nan
          2196.89240	                 nan
          2197.69870	                 nan
          2198.50500	                 nan
          2199.31130	                 nan
          2200.11760	                 nan
          2200.92390	                 nan
          2201.73020	                 nan
          2202.53650	                 nan
          2203.34280	                 nan
          2204.14910	                 nan
          2204.95540	                 nan
          2205.76170	                 nan
          2206.56800	                 nan
          2207.37430	                 nan
          2208.18060	                 nan
          2208.98690	                 nan
          2209.79320	                 nan
          2210.59950	                 nan
          2211.40580	                 nan
          2212.21210	                 nan
          2213.01840	                 nan
          2213.82470	                 nan
          2214.63100	                 nan
          2215.43730	         0.00000e+00
