#sample_463_stacked_spectrum_rest_UV-bands_median_H-alpha_noDC.txt
#median Lum: 1.68788e+42
#Rest-frame wavelength (A) | Luminosity (erg/s/A)
#
          1110.00000	         0.00000e+00
          1110.80630	         3.42708e+59
          1111.61260	         6.79662e+59
          1112.41890	         1.95541e+59
          1113.22520	         7.82679e+58
          1114.03150	        -1.04361e+58
          1114.83780	         6.33034e+58
          1115.64410	         1.25083e+59
          1116.45040	         5.48571e+58
          1117.25670	        -3.84125e+58
          1118.06300	         6.29659e+58
          1118.86930	        -1.42149e+59
          1119.67560	         7.65123e+58
          1120.48190	         4.04480e+58
          1121.28820	        -6.72445e+58
          1122.09450	        -4.23909e+57
          1122.90080	        -4.49525e+56
          1123.70710	         6.65160e+58
          1124.51340	         9.86990e+58
          1125.31970	        -1.92105e+58
          1126.12600	        -2.19250e+58
          1126.93230	        -5.55194e+58
          1127.73860	        -2.87106e+58
          1128.54490	        -1.22171e+58
          1129.35120	        -1.03044e+58
          1130.15750	        -1.76579e+58
          1130.96380	         1.09094e+58
          1131.77010	         5.86042e+58
          1132.57640	         6.25255e+58
          1133.38270	         3.28863e+58
          1134.18900	         1.79339e+58
          1134.99530	         2.21207e+58
          1135.80160	         5.45304e+57
          1136.60790	         4.32033e+57
          1137.41420	         7.86002e+57
          1138.22050	         3.56783e+58
          1139.02680	         3.48714e+58
          1139.83310	         2.03596e+58
          1140.63940	         4.14781e+57
          1141.44570	        -1.36189e+58
          1142.25200	         1.61969e+58
          1143.05830	         3.37271e+58
          1143.86460	         1.37516e+58
          1144.67090	         2.26339e+58
          1145.47720	         1.81012e+58
          1146.28350	         2.13782e+58
          1147.08980	         8.60567e+57
          1147.89610	         1.40011e+58
          1148.70240	         2.79553e+58
          1149.50870	         2.84359e+58
          1150.31500	         1.45732e+58
          1151.12130	         1.67751e+58
          1151.92760	         7.48365e+57
          1152.73390	         5.44658e+57
          1153.54020	         6.12381e+55
          1154.34650	         1.84502e+58
          1155.15280	         1.51372e+58
          1155.95910	         1.29074e+58
          1156.76540	         4.34975e+57
          1157.57170	        -2.58247e+56
          1158.37800	        -4.91849e+57
          1159.18430	         6.94674e+56
          1159.99060	         1.25623e+57
          1160.79690	         1.89597e+57
          1161.60320	         1.03949e+58
          1162.40950	         1.82894e+58
          1163.21580	         1.41255e+58
          1164.02210	         1.51957e+58
          1164.82840	        -1.14940e+57
          1165.63470	         9.87734e+57
          1166.44100	         2.62177e+58
          1167.24730	         2.24195e+58
          1168.05360	         8.88973e+57
          1168.85990	         6.87424e+57
          1169.66620	         4.79085e+57
          1170.47250	         5.72149e+57
          1171.27880	         7.37229e+57
          1172.08510	         1.32475e+58
          1172.89140	         1.73673e+58
          1173.69770	         1.23495e+58
          1174.50400	         9.88887e+57
          1175.31030	         1.34117e+58
          1176.11660	         2.13543e+58
          1176.92290	         1.88661e+58
          1177.72920	         1.18544e+58
          1178.53550	         7.67845e+57
          1179.34180	        -2.07337e+57
          1180.14810	        -4.20621e+56
          1180.95440	         6.69435e+57
          1181.76070	         3.79421e+57
          1182.56700	         7.16331e+57
          1183.37330	         8.88567e+57
          1184.17960	         1.23292e+58
          1184.98590	         1.16084e+58
          1185.79220	         6.15677e+57
          1186.59850	         6.70157e+57
          1187.40480	         6.73028e+57
          1188.21110	         1.50589e+58
          1189.01740	         8.62505e+57
          1189.82370	         9.26062e+57
          1190.63000	         1.18507e+58
          1191.43630	         1.33981e+58
          1192.24260	         8.07345e+57
          1193.04890	         1.33679e+58
          1193.85520	         1.49406e+58
          1194.66150	         3.77867e+57
          1195.46780	         9.95229e+57
          1196.27410	         1.74252e+58
          1197.08040	         1.61051e+58
          1197.88670	         1.40078e+58
          1198.69300	         1.34912e+58
          1199.49930	         1.40930e+58
          1200.30560	         1.09927e+58
          1201.11190	         9.49796e+57
          1201.91820	         7.25916e+57
          1202.72450	         1.34035e+58
          1203.53080	         1.62820e+58
          1204.33710	         1.07896e+58
          1205.14340	         5.11377e+57
          1205.94970	         4.84313e+57
          1206.75600	         7.15707e+57
          1207.56230	         8.51964e+57
          1208.36860	         8.88180e+57
          1209.17490	         2.74164e+57
          1209.98120	         5.36394e+57
          1210.78750	         1.08041e+58
          1211.59380	         1.32051e+58
          1212.40010	         1.58047e+58
          1213.20640	         2.11782e+58
          1214.01270	         1.93876e+58
          1214.81900	         2.80834e+58
          1215.62530	         4.65286e+58
          1216.43160	         8.93540e+58
          1217.23790	         1.52229e+59
          1218.04420	         1.13607e+59
          1218.85050	         8.58067e+58
          1219.65680	         5.45987e+58
          1220.46310	         3.09818e+58
          1221.26940	         2.14373e+58
          1222.07570	         1.37768e+58
          1222.88200	         1.26184e+58
          1223.68830	         9.52717e+57
          1224.49460	         8.29790e+57
          1225.30090	         6.49556e+57
          1226.10720	         4.59825e+57
          1226.91350	         5.18661e+57
          1227.71980	         7.51843e+57
          1228.52610	         1.13479e+58
          1229.33240	         8.21437e+57
          1230.13870	         7.45213e+57
          1230.94500	         1.04996e+58
          1231.75130	         6.36219e+57
          1232.55760	         9.60099e+57
          1233.36390	         6.82638e+57
          1234.17020	         5.93676e+57
          1234.97650	         6.08314e+57
          1235.78280	         8.74716e+57
          1236.58910	         8.01040e+57
          1237.39540	         8.84727e+57
          1238.20170	         7.67887e+57
          1239.00800	         8.23669e+57
          1239.81430	         1.23947e+58
          1240.62060	         1.21494e+58
          1241.42690	         9.66535e+57
          1242.23320	         9.31753e+57
          1243.03950	         6.20926e+57
          1243.84580	         6.96906e+57
          1244.65210	         8.23114e+57
          1245.45840	         6.92554e+57
          1246.26470	         8.67616e+57
          1247.07100	         1.01410e+58
          1247.87730	         8.25265e+57
          1248.68360	         2.55056e+57
          1249.48990	         1.01241e+58
          1250.29620	         1.20210e+58
          1251.10250	         6.66919e+57
          1251.90880	         4.35004e+57
          1252.71510	         7.28302e+57
          1253.52140	         8.82243e+57
          1254.32770	         9.54809e+57
          1255.13400	         1.24765e+58
          1255.94030	         1.11322e+58
          1256.74660	         9.89731e+57
          1257.55290	         1.07708e+58
          1258.35920	         9.32641e+57
          1259.16550	         6.17439e+57
          1259.97180	         5.84702e+57
          1260.77810	         7.78555e+57
          1261.58440	         1.19634e+58
          1262.39070	         7.80749e+57
          1263.19700	         7.00149e+57
          1264.00330	         8.81253e+57
          1264.80960	         1.04731e+58
          1265.61590	         1.22549e+58
          1266.42220	         1.10815e+58
          1267.22850	         9.26740e+57
          1268.03480	         1.21573e+58
          1268.84110	         1.46168e+58
          1269.64740	         1.24753e+58
          1270.45370	         1.25807e+58
          1271.26000	         1.00925e+58
          1272.06630	         8.42177e+57
          1272.87260	         9.65487e+57
          1273.67890	         1.05527e+58
          1274.48520	         1.07482e+58
          1275.29150	         1.16649e+58
          1276.09780	         1.17173e+58
          1276.90410	         1.60831e+58
          1277.71040	         1.45996e+58
          1278.51670	         1.25183e+58
          1279.32300	         1.54106e+58
          1280.12930	         1.50543e+58
          1280.93560	         1.22678e+58
          1281.74190	         1.07362e+58
          1282.54820	         1.13438e+58
          1283.35450	         9.22361e+57
          1284.16080	         1.11286e+58
          1284.96710	         1.42230e+58
          1285.77340	         1.29904e+58
          1286.57970	         1.02187e+58
          1287.38600	         1.29241e+58
          1288.19230	         1.60198e+58
          1288.99860	         1.37712e+58
          1289.80490	         1.15572e+58
          1290.61120	         1.48810e+58
          1291.41750	         1.61373e+58
          1292.22380	         1.42503e+58
          1293.03010	         1.22466e+58
          1293.83640	         1.19611e+58
          1294.64270	         9.15804e+57
          1295.44900	         7.68823e+57
          1296.25530	         6.89627e+57
          1297.06160	         8.01500e+57
          1297.86790	         9.56454e+57
          1298.67420	         9.93832e+57
          1299.48050	         1.19559e+58
          1300.28680	         1.00694e+58
          1301.09310	         8.34108e+57
          1301.89940	         6.71318e+57
          1302.70570	         6.17393e+57
          1303.51200	         8.10592e+57
          1304.31830	         1.10615e+58
          1305.12460	         1.14647e+58
          1305.93090	         1.19430e+58
          1306.73720	         1.14960e+58
          1307.54350	         1.22328e+58
          1308.34980	         1.33674e+58
          1309.15610	         1.54096e+58
          1309.96240	         1.48416e+58
          1310.76870	         1.33266e+58
          1311.57500	         1.30990e+58
          1312.38130	         1.41054e+58
          1313.18760	         1.35882e+58
          1313.99390	         1.56003e+58
          1314.80020	         1.65103e+58
          1315.60650	         1.53817e+58
          1316.41280	         1.29833e+58
          1317.21910	         1.15881e+58
          1318.02540	         1.21533e+58
          1318.83170	         1.16830e+58
          1319.63800	         1.11415e+58
          1320.44430	         1.13722e+58
          1321.25060	         1.15589e+58
          1322.05690	         1.17534e+58
          1322.86320	         1.05287e+58
          1323.66950	         1.08328e+58
          1324.47580	         9.97101e+57
          1325.28210	         8.86724e+57
          1326.08840	         1.05825e+58
          1326.89470	         1.24473e+58
          1327.70100	         1.15474e+58
          1328.50730	         9.45617e+57
          1329.31360	         9.50520e+57
          1330.11990	         8.95093e+57
          1330.92620	         8.99977e+57
          1331.73250	         1.14352e+58
          1332.53880	         1.05755e+58
          1333.34510	         7.40002e+57
          1334.15140	         7.77611e+57
          1334.95770	         7.90081e+57
          1335.76400	         9.81524e+57
          1336.57030	         1.17812e+58
          1337.37660	         1.12090e+58
          1338.18290	         9.95576e+57
          1338.98920	         1.08425e+58
          1339.79550	         1.19797e+58
          1340.60180	         1.18619e+58
          1341.40810	         1.23567e+58
          1342.21440	         1.01148e+58
          1343.02070	         1.21364e+58
          1343.82700	         1.36478e+58
          1344.63330	         1.17493e+58
          1345.43960	         1.14258e+58
          1346.24590	         1.02260e+58
          1347.05220	         1.20328e+58
          1347.85850	         1.16907e+58
          1348.66480	         1.25072e+58
          1349.47110	         1.31215e+58
          1350.27740	         1.17806e+58
          1351.08370	         1.25536e+58
          1351.89000	         1.24213e+58
          1352.69630	         1.16979e+58
          1353.50260	         1.16708e+58
          1354.30890	         1.22269e+58
          1355.11520	         1.28608e+58
          1355.92150	         1.12794e+58
          1356.72780	         9.67413e+57
          1357.53410	         9.70805e+57
          1358.34040	         9.96839e+57
          1359.14670	         9.93570e+57
          1359.95300	         1.13827e+58
          1360.75930	         1.14820e+58
          1361.56560	         1.05809e+58
          1362.37190	         1.00331e+58
          1363.17820	         9.13540e+57
          1363.98450	         1.03881e+58
          1364.79080	         1.07387e+58
          1365.59710	         1.07545e+58
          1366.40340	         1.06999e+58
          1367.20970	         1.03050e+58
          1368.01600	         8.62282e+57
          1368.82230	         7.74078e+57
          1369.62860	         9.73773e+57
          1370.43490	         9.14778e+57
          1371.24120	         1.01636e+58
          1372.04750	         8.77852e+57
          1372.85380	         8.87499e+57
          1373.66010	         1.04970e+58
          1374.46640	         1.13639e+58
          1375.27270	         1.18906e+58
          1376.07900	         9.23759e+57
          1376.88530	         9.03616e+57
          1377.69160	         9.10346e+57
          1378.49790	         7.47972e+57
          1379.30420	         6.65398e+57
          1380.11050	         8.98701e+57
          1380.91680	         8.44826e+57
          1381.72310	         7.68469e+57
          1382.52940	         8.92631e+57
          1383.33570	         8.22290e+57
          1384.14200	         9.07317e+57
          1384.94830	         1.04284e+58
          1385.75460	         9.55483e+57
          1386.56090	         1.11107e+58
          1387.36720	         9.65145e+57
          1388.17350	         1.12492e+58
          1388.97980	         1.13785e+58
          1389.78610	         9.61115e+57
          1390.59240	         8.38118e+57
          1391.39870	         7.74683e+57
          1392.20500	         8.16373e+57
          1393.01130	         8.19825e+57
          1393.81760	         7.60185e+57
          1394.62390	         7.30144e+57
          1395.43020	         7.27685e+57
          1396.23650	         6.82213e+57
          1397.04280	         7.60594e+57
          1397.84910	         9.07764e+57
          1398.65540	         9.38630e+57
          1399.46170	         1.08383e+58
          1400.26800	         1.04888e+58
          1401.07430	         8.03443e+57
          1401.88060	         8.04061e+57
          1402.68690	         1.01038e+58
          1403.49320	         9.61912e+57
          1404.29950	         9.03522e+57
          1405.10580	         1.02486e+58
          1405.91210	         1.04282e+58
          1406.71840	         9.72089e+57
          1407.52470	         1.04131e+58
          1408.33100	         9.83644e+57
          1409.13730	         1.18507e+58
          1409.94360	         1.19523e+58
          1410.74990	         1.01902e+58
          1411.55620	         9.51974e+57
          1412.36250	         9.20978e+57
          1413.16880	         7.72855e+57
          1413.97510	         7.21010e+57
          1414.78140	         8.97516e+57
          1415.58770	         1.14242e+58
          1416.39400	         1.12170e+58
          1417.20030	         1.06715e+58
          1418.00660	         9.20023e+57
          1418.81290	         9.45102e+57
          1419.61920	         9.93200e+57
          1420.42550	         1.20065e+58
          1421.23180	         1.32736e+58
          1422.03810	         1.18378e+58
          1422.84440	         1.04627e+58
          1423.65070	         1.21248e+58
          1424.45700	         1.22567e+58
          1425.26330	         9.64466e+57
          1426.06960	         8.19829e+57
          1426.87590	         9.93237e+57
          1427.68220	         9.73601e+57
          1428.48850	         1.03463e+58
          1429.29480	         9.62253e+57
          1430.10110	         1.02037e+58
          1430.90740	         9.59204e+57
          1431.71370	         9.04541e+57
          1432.52000	         7.95398e+57
          1433.32630	         7.63333e+57
          1434.13260	         7.96305e+57
          1434.93890	         8.45241e+57
          1435.74520	         9.52257e+57
          1436.55150	         9.06256e+57
          1437.35780	         8.22752e+57
          1438.16410	         9.40973e+57
          1438.97040	         9.96715e+57
          1439.77670	         9.25788e+57
          1440.58300	         8.96614e+57
          1441.38930	         9.58090e+57
          1442.19560	         9.17754e+57
          1443.00190	         9.58091e+57
          1443.80820	         1.16159e+58
          1444.61450	         1.04862e+58
          1445.42080	         8.95903e+57
          1446.22710	         1.12268e+58
          1447.03340	         1.02084e+58
          1447.83970	         1.08230e+58
          1448.64600	         1.02774e+58
          1449.45230	         9.25734e+57
          1450.25860	         1.00266e+58
          1451.06490	         8.44867e+57
          1451.87120	         7.23175e+57
          1452.67750	         7.03823e+57
          1453.48380	         7.63409e+57
          1454.29010	         8.18839e+57
          1455.09640	         7.47629e+57
          1455.90270	         7.86934e+57
          1456.70900	         9.39219e+57
          1457.51530	         9.85522e+57
          1458.32160	         1.26284e+58
          1459.12790	         1.21454e+58
          1459.93420	         9.56417e+57
          1460.74050	         8.11153e+57
          1461.54680	         8.51062e+57
          1462.35310	         7.77780e+57
          1463.15940	         9.58423e+57
          1463.96570	         1.07873e+58
          1464.77200	         1.12083e+58
          1465.57830	         1.02453e+58
          1466.38460	         8.07088e+57
          1467.19090	         7.01287e+57
          1467.99720	         8.49880e+57
          1468.80350	         8.10992e+57
          1469.60980	         9.10105e+57
          1470.41610	         9.98915e+57
          1471.22240	         9.07469e+57
          1472.02870	         9.66040e+57
          1472.83500	         8.75372e+57
          1473.64130	         8.52842e+57
          1474.44760	         8.12180e+57
          1475.25390	         8.07469e+57
          1476.06020	         8.27143e+57
          1476.86650	         8.59515e+57
          1477.67280	         8.38251e+57
          1478.47910	         7.66071e+57
          1479.28540	         7.43534e+57
          1480.09170	         8.54842e+57
          1480.89800	         8.44138e+57
          1481.70430	         8.42203e+57
          1482.51060	         8.73185e+57
          1483.31690	         6.88063e+57
          1484.12320	         6.44234e+57
          1484.92950	         6.93051e+57
          1485.73580	         8.14377e+57
          1486.54210	         8.59772e+57
          1487.34840	         9.07272e+57
          1488.15470	         8.82972e+57
          1488.96100	         7.88783e+57
          1489.76730	         8.71993e+57
          1490.57360	         8.63229e+57
          1491.37990	         7.67506e+57
          1492.18620	         8.31115e+57
          1492.99250	         7.79076e+57
          1493.79880	         8.56096e+57
          1494.60510	         9.20897e+57
          1495.41140	         8.21942e+57
          1496.21770	         8.36819e+57
          1497.02400	         9.44602e+57
          1497.83030	         7.58157e+57
          1498.63660	         7.55576e+57
          1499.44290	         8.34126e+57
          1500.24920	         7.46883e+57
          1501.05550	         7.17733e+57
          1501.86180	         7.78694e+57
          1502.66810	         9.17155e+57
          1503.47440	         8.89390e+57
          1504.28070	         7.67748e+57
          1505.08700	         8.12449e+57
          1505.89330	         8.62343e+57
          1506.69960	         8.23242e+57
          1507.50590	         9.20525e+57
          1508.31220	         8.74577e+57
          1509.11850	         9.10760e+57
          1509.92480	         9.44067e+57
          1510.73110	         9.24601e+57
          1511.53740	         7.72920e+57
          1512.34370	         7.13866e+57
          1513.15000	         9.27508e+57
          1513.95630	         9.60989e+57
          1514.76260	         8.64975e+57
          1515.56890	         8.33158e+57
          1516.37520	         8.28505e+57
          1517.18150	         8.43403e+57
          1517.98780	         8.04642e+57
          1518.79410	         7.11613e+57
          1519.60040	         7.22555e+57
          1520.40670	         9.15136e+57
          1521.21300	         9.75754e+57
          1522.01930	         8.41117e+57
          1522.82560	         9.01242e+57
          1523.63190	         1.08027e+58
          1524.43820	         8.58521e+57
          1525.24450	         5.89965e+57
          1526.05080	         6.65266e+57
          1526.85710	         6.17074e+57
          1527.66340	         6.11823e+57
          1528.46970	         7.30414e+57
          1529.27600	         7.09937e+57
          1530.08230	         7.05552e+57
          1530.88860	         7.50286e+57
          1531.69490	         8.52666e+57
          1532.50120	         9.25768e+57
          1533.30750	         9.72747e+57
          1534.11380	         9.26257e+57
          1534.92010	         9.13888e+57
          1535.72640	         9.53834e+57
          1536.53270	         8.80149e+57
          1537.33900	         7.95349e+57
          1538.14530	         8.28268e+57
          1538.95160	         8.94084e+57
          1539.75790	         8.71386e+57
          1540.56420	         8.87260e+57
          1541.37050	         7.86373e+57
          1542.17680	         7.47508e+57
          1542.98310	         8.44194e+57
          1543.78940	         8.33136e+57
          1544.59570	         6.72270e+57
          1545.40200	         7.25459e+57
          1546.20830	         8.50255e+57
          1547.01460	         1.00183e+58
          1547.82090	         1.09651e+58
          1548.62720	         1.21383e+58
          1549.43350	         1.20839e+58
          1550.23980	         1.09202e+58
          1551.04610	         1.24075e+58
          1551.85240	         1.12949e+58
          1552.65870	         1.10427e+58
          1553.46500	         1.01673e+58
          1554.27130	         9.83964e+57
          1555.07760	         8.91190e+57
          1555.88390	         8.01854e+57
          1556.69020	         9.12174e+57
          1557.49650	         9.72182e+57
          1558.30280	         8.20429e+57
          1559.10910	         8.08090e+57
          1559.91540	         8.76946e+57
          1560.72170	         8.78649e+57
          1561.52800	         7.79084e+57
          1562.33430	         7.81599e+57
          1563.14060	         7.78128e+57
          1563.94690	         7.33802e+57
          1564.75320	         7.71450e+57
          1565.55950	         7.06384e+57
          1566.36580	         7.12459e+57
          1567.17210	         8.99466e+57
          1567.97840	         9.10164e+57
          1568.78470	         8.25263e+57
          1569.59100	         8.52160e+57
          1570.39730	         7.80825e+57
          1571.20360	         7.15986e+57
          1572.00990	         8.13957e+57
          1572.81620	         9.05716e+57
          1573.62250	         9.84349e+57
          1574.42880	         9.28423e+57
          1575.23510	         8.06525e+57
          1576.04140	         8.45188e+57
          1576.84770	         9.44843e+57
          1577.65400	         8.91105e+57
          1578.46030	         9.64074e+57
          1579.26660	         1.07816e+58
          1580.07290	         9.67803e+57
          1580.87920	         6.54220e+57
          1581.68550	         5.64295e+57
          1582.49180	         7.66183e+57
          1583.29810	         8.12705e+57
          1584.10440	         8.09792e+57
          1584.91070	         8.43725e+57
          1585.71700	         8.63448e+57
          1586.52330	         8.60155e+57
          1587.32960	         8.50431e+57
          1588.13590	         8.12164e+57
          1588.94220	         7.77707e+57
          1589.74850	         9.09343e+57
          1590.55480	         9.73337e+57
          1591.36110	         8.95074e+57
          1592.16740	         8.78971e+57
          1592.97370	         8.45665e+57
          1593.78000	         9.07168e+57
          1594.58630	         9.56359e+57
          1595.39260	         8.51932e+57
          1596.19890	         9.13166e+57
          1597.00520	         9.47770e+57
          1597.81150	         8.87284e+57
          1598.61780	         7.97004e+57
          1599.42410	         6.30484e+57
          1600.23040	         5.90056e+57
          1601.03670	         7.50523e+57
          1601.84300	         6.85602e+57
          1602.64930	         7.49285e+57
          1603.45560	         8.08047e+57
          1604.26190	         7.54844e+57
          1605.06820	         7.82935e+57
          1605.87450	         7.63185e+57
          1606.68080	         6.61117e+57
          1607.48710	         6.69000e+57
          1608.29340	         6.85913e+57
          1609.09970	         6.77992e+57
          1609.90600	         7.03534e+57
          1610.71230	         6.59994e+57
          1611.51860	         7.06262e+57
          1612.32490	         7.54614e+57
          1613.13120	         8.49490e+57
          1613.93750	         8.50909e+57
          1614.74380	         8.26911e+57
          1615.55010	         8.03864e+57
          1616.35640	         8.06190e+57
          1617.16270	         9.13975e+57
          1617.96900	         1.04758e+58
          1618.77530	         9.39973e+57
          1619.58160	         7.81551e+57
          1620.38790	         7.89348e+57
          1621.19420	         8.99787e+57
          1622.00050	         8.15030e+57
          1622.80680	         8.64002e+57
          1623.61310	         8.83271e+57
          1624.41940	         7.79996e+57
          1625.22570	         9.16246e+57
          1626.03200	         9.72740e+57
          1626.83830	         7.68651e+57
          1627.64460	         7.49119e+57
          1628.45090	         6.95654e+57
          1629.25720	         8.15868e+57
          1630.06350	         9.32023e+57
          1630.86980	         6.75216e+57
          1631.67610	         6.57610e+57
          1632.48240	         8.21054e+57
          1633.28870	         8.28999e+57
          1634.09500	         9.26817e+57
          1634.90130	         1.02932e+58
          1635.70760	         9.43932e+57
          1636.51390	         7.82894e+57
          1637.32020	         6.95370e+57
          1638.12650	         8.29995e+57
          1638.93280	         8.35838e+57
          1639.73910	         9.64264e+57
          1640.54540	         9.73183e+57
          1641.35170	         8.33200e+57
          1642.15800	         8.43472e+57
          1642.96430	         8.19132e+57
          1643.77060	         7.74751e+57
          1644.57690	         8.37416e+57
          1645.38320	         8.82071e+57
          1646.18950	         7.24912e+57
          1646.99580	         8.76968e+57
          1647.80210	         8.40675e+57
          1648.60840	         7.28336e+57
          1649.41470	         7.84590e+57
          1650.22100	         7.62503e+57
          1651.02730	         7.04796e+57
          1651.83360	         6.66137e+57
          1652.63990	         7.71167e+57
          1653.44620	         8.07470e+57
          1654.25250	         7.08722e+57
          1655.05880	         7.08659e+57
          1655.86510	         8.56529e+57
          1656.67140	         7.73194e+57
          1657.47770	         7.24218e+57
          1658.28400	         8.31256e+57
          1659.09030	         8.49661e+57
          1659.89660	         8.83655e+57
          1660.70290	         9.28855e+57
          1661.50920	         9.16656e+57
          1662.31550	         7.73906e+57
          1663.12180	         7.77582e+57
          1663.92810	         9.42918e+57
          1664.73440	         1.06512e+58
          1665.54070	         1.13412e+58
          1666.34700	         1.16109e+58
          1667.15330	         1.15351e+58
          1667.95960	         8.38788e+57
          1668.76590	         6.31020e+57
          1669.57220	         6.59561e+57
          1670.37850	         7.30766e+57
          1671.18480	         8.21152e+57
          1671.99110	         8.07757e+57
          1672.79740	         7.09536e+57
          1673.60370	         6.75557e+57
          1674.41000	         6.90599e+57
          1675.21630	         7.56165e+57
          1676.02260	         7.20149e+57
          1676.82890	         7.15722e+57
          1677.63520	         6.99480e+57
          1678.44150	         7.57712e+57
          1679.24780	         8.35064e+57
          1680.05410	         8.01230e+57
          1680.86040	         6.53016e+57
          1681.66670	         7.27683e+57
          1682.47300	         9.00358e+57
          1683.27930	         8.13009e+57
          1684.08560	         8.40660e+57
          1684.89190	         8.32560e+57
          1685.69820	         6.07178e+57
          1686.50450	         4.26325e+57
          1687.31080	         5.53469e+57
          1688.11710	         7.53898e+57
          1688.92340	         7.12212e+57
          1689.72970	         6.82875e+57
          1690.53600	         5.93569e+57
          1691.34230	         6.81763e+57
          1692.14860	         7.65518e+57
          1692.95490	         8.37288e+57
          1693.76120	         6.19572e+57
          1694.56750	         6.31423e+57
          1695.37380	         8.03213e+57
          1696.18010	         8.52515e+57
          1696.98640	         9.55383e+57
          1697.79270	         9.34982e+57
          1698.59900	         8.67677e+57
          1699.40530	         8.17772e+57
          1700.21160	         7.26934e+57
          1701.01790	         8.23127e+57
          1701.82420	         7.71193e+57
          1702.63050	         6.87026e+57
          1703.43680	         7.95642e+57
          1704.24310	         8.88625e+57
          1705.04940	         7.22539e+57
          1705.85570	         7.00126e+57
          1706.66200	         8.23024e+57
          1707.46830	         8.51905e+57
          1708.27460	         7.19857e+57
          1709.08090	         6.33506e+57
          1709.88720	         6.14123e+57
          1710.69350	         5.31303e+57
          1711.49980	         5.82889e+57
          1712.30610	         6.80685e+57
          1713.11240	         8.11196e+57
          1713.91870	         7.13671e+57
          1714.72500	         7.37588e+57
          1715.53130	         8.44731e+57
          1716.33760	         6.89371e+57
          1717.14390	         5.68041e+57
          1717.95020	         7.47722e+57
          1718.75650	         8.35000e+57
          1719.56280	         9.14019e+57
          1720.36910	         8.33156e+57
          1721.17540	         7.83534e+57
          1721.98170	         7.23687e+57
          1722.78800	         6.64812e+57
          1723.59430	         6.77946e+57
          1724.40060	         7.47954e+57
          1725.20690	         7.85370e+57
          1726.01320	         8.20752e+57
          1726.81950	         6.80280e+57
          1727.62580	         6.15509e+57
          1728.43210	         6.45513e+57
          1729.23840	         7.48544e+57
          1730.04470	         8.58657e+57
          1730.85100	         8.92175e+57
          1731.65730	         8.35352e+57
          1732.46360	         7.71677e+57
          1733.26990	         7.68562e+57
          1734.07620	         7.37312e+57
          1734.88250	         7.16912e+57
          1735.68880	         7.65305e+57
          1736.49510	         8.38940e+57
          1737.30140	         7.96761e+57
          1738.10770	         6.64009e+57
          1738.91400	         6.99653e+57
          1739.72030	         7.29811e+57
          1740.52660	         5.75034e+57
          1741.33290	         5.25834e+57
          1742.13920	         6.15112e+57
          1742.94550	         6.75239e+57
          1743.75180	         7.65852e+57
          1744.55810	         7.52541e+57
          1745.36440	         7.58356e+57
          1746.17070	         6.13269e+57
          1746.97700	         4.94242e+57
          1747.78330	         6.35008e+57
          1748.58960	         6.47084e+57
          1749.39590	         6.81787e+57
          1750.20220	         5.85723e+57
          1751.00850	         4.93594e+57
          1751.81480	         4.84751e+57
          1752.62110	         6.56917e+57
          1753.42740	         8.31007e+57
          1754.23370	         6.61124e+57
          1755.04000	         6.54841e+57
          1755.84630	         7.33386e+57
          1756.65260	         8.06727e+57
          1757.45890	         8.52605e+57
          1758.26520	         7.27014e+57
          1759.07150	         7.72693e+57
          1759.87780	         8.64359e+57
          1760.68410	         7.99258e+57
          1761.49040	         8.14572e+57
          1762.29670	         6.55866e+57
          1763.10300	         7.52073e+57
          1763.90930	         7.87610e+57
          1764.71560	         7.82995e+57
          1765.52190	         7.52516e+57
          1766.32820	         6.83038e+57
          1767.13450	         7.16310e+57
          1767.94080	         6.89973e+57
          1768.74710	         7.22210e+57
          1769.55340	         7.26385e+57
          1770.35970	         7.01037e+57
          1771.16600	         6.85523e+57
          1771.97230	         7.59675e+57
          1772.77860	         8.54864e+57
          1773.58490	         7.62941e+57
          1774.39120	         6.19365e+57
          1775.19750	         5.87994e+57
          1776.00380	         5.97001e+57
          1776.81010	         6.27471e+57
          1777.61640	         6.29106e+57
          1778.42270	         7.07218e+57
          1779.22900	         6.67550e+57
          1780.03530	         6.21695e+57
          1780.84160	         7.12020e+57
          1781.64790	         8.22490e+57
          1782.45420	         6.19411e+57
          1783.26050	         6.30991e+57
          1784.06680	         7.72101e+57
          1784.87310	         7.69872e+57
          1785.67940	         7.55764e+57
          1786.48570	         7.11384e+57
          1787.29200	         6.73987e+57
          1788.09830	         6.46446e+57
          1788.90460	         5.65537e+57
          1789.71090	         5.71577e+57
          1790.51720	         5.05610e+57
          1791.32350	         6.96514e+57
          1792.12980	         8.56549e+57
          1792.93610	         7.85518e+57
          1793.74240	         6.88638e+57
          1794.54870	         8.46018e+57
          1795.35500	         9.10126e+57
          1796.16130	         8.32807e+57
          1796.96760	         6.26782e+57
          1797.77390	         5.75132e+57
          1798.58020	         6.81100e+57
          1799.38650	         6.46775e+57
          1800.19280	         6.79621e+57
          1800.99910	         7.39521e+57
          1801.80540	         6.88928e+57
          1802.61170	         7.42946e+57
          1803.41800	         8.10145e+57
          1804.22430	         7.18529e+57
          1805.03060	         7.25188e+57
          1805.83690	         7.50373e+57
          1806.64320	         8.32761e+57
          1807.44950	         8.20599e+57
          1808.25580	         6.72216e+57
          1809.06210	         7.56693e+57
          1809.86840	         7.15250e+57
          1810.67470	         7.67329e+57
          1811.48100	         8.25088e+57
          1812.28730	         7.38926e+57
          1813.09360	         7.44705e+57
          1813.89990	         8.90205e+57
          1814.70620	         7.79278e+57
          1815.51250	         8.65038e+57
          1816.31880	         8.78335e+57
          1817.12510	         7.57698e+57
          1817.93140	         6.84933e+57
          1818.73770	         7.07522e+57
          1819.54400	         8.43019e+57
          1820.35030	         8.96988e+57
          1821.15660	         7.32663e+57
          1821.96290	         6.56816e+57
          1822.76920	         7.15589e+57
          1823.57550	         7.44715e+57
          1824.38180	         6.81120e+57
          1825.18810	         7.26607e+57
          1825.99440	         8.74314e+57
          1826.80070	         7.62394e+57
          1827.60700	         6.98714e+57
          1828.41330	         5.66555e+57
          1829.21960	         6.07378e+57
          1830.02590	         6.75544e+57
          1830.83220	         7.78312e+57
          1831.63850	         7.55504e+57
          1832.44480	         7.28530e+57
          1833.25110	         7.79320e+57
          1834.05740	         8.56434e+57
          1834.86370	         6.58339e+57
          1835.67000	         5.82476e+57
          1836.47630	         7.24249e+57
          1837.28260	         8.43038e+57
          1838.08890	         8.74417e+57
          1838.89520	         8.63633e+57
          1839.70150	         7.55788e+57
          1840.50780	         7.26827e+57
          1841.31410	         6.60324e+57
          1842.12040	         6.15251e+57
          1842.92670	         7.13362e+57
          1843.73300	         6.95304e+57
          1844.53930	         6.51100e+57
          1845.34560	         7.78256e+57
          1846.15190	         7.91156e+57
          1846.95820	         7.60671e+57
          1847.76450	         6.71877e+57
          1848.57080	         4.90029e+57
          1849.37710	         6.76087e+57
          1850.18340	         8.08438e+57
          1850.98970	         8.07686e+57
          1851.79600	         8.18261e+57
          1852.60230	         7.15650e+57
          1853.40860	         6.88763e+57
          1854.21490	         6.50576e+57
          1855.02120	         5.68908e+57
          1855.82750	         4.59347e+57
          1856.63380	         6.77153e+57
          1857.44010	         8.34413e+57
          1858.24640	         7.55091e+57
          1859.05270	         6.67335e+57
          1859.85900	         5.75580e+57
          1860.66530	         4.95771e+57
          1861.47160	         6.08956e+57
          1862.27790	         6.87527e+57
          1863.08420	         7.50345e+57
          1863.89050	         8.16435e+57
          1864.69680	         7.57422e+57
          1865.50310	         7.23367e+57
          1866.30940	         5.72737e+57
          1867.11570	         4.75942e+57
          1867.92200	         6.52544e+57
          1868.72830	         7.41897e+57
          1869.53460	         8.28891e+57
          1870.34090	         8.59808e+57
          1871.14720	         7.50863e+57
          1871.95350	         7.01639e+57
          1872.75980	         7.51160e+57
          1873.56610	         7.38582e+57
          1874.37240	         5.90894e+57
          1875.17870	         5.21956e+57
          1875.98500	         6.73294e+57
          1876.79130	         7.28970e+57
          1877.59760	         6.55944e+57
          1878.40390	         6.75272e+57
          1879.21020	         6.85039e+57
          1880.01650	         7.34447e+57
          1880.82280	         7.94073e+57
          1881.62910	         8.98095e+57
          1882.43540	         1.00124e+58
          1883.24170	         8.62300e+57
          1884.04800	         6.26661e+57
          1884.85430	         6.67803e+57
          1885.66060	         7.43948e+57
          1886.46690	         8.04983e+57
          1887.27320	         7.48385e+57
          1888.07950	         6.19299e+57
          1888.88580	         5.93722e+57
          1889.69210	         8.53904e+57
          1890.49840	         8.37864e+57
          1891.30470	         7.44561e+57
          1892.11100	         7.47576e+57
          1892.91730	         8.12988e+57
          1893.72360	         7.47352e+57
          1894.52990	         7.69730e+57
          1895.33620	         7.82081e+57
          1896.14250	         6.05098e+57
          1896.94880	         6.24734e+57
          1897.75510	         5.56793e+57
          1898.56140	         6.76756e+57
          1899.36770	         7.95095e+57
          1900.17400	         7.61329e+57
          1900.98030	         6.71112e+57
          1901.78660	         7.17238e+57
          1902.59290	         6.83175e+57
          1903.39920	         8.07172e+57
          1904.20550	         8.81181e+57
          1905.01180	         9.05989e+57
          1905.81810	         9.09088e+57
          1906.62440	         1.21435e+58
          1907.43070	         1.58712e+58
          1908.23700	         1.48342e+58
          1909.04330	         1.29646e+58
          1909.84960	         1.08139e+58
          1910.65590	         9.64911e+57
          1911.46220	         1.00524e+58
          1912.26850	         8.21675e+57
          1913.07480	         5.92365e+57
          1913.88110	         5.73612e+57
          1914.68740	         5.67267e+57
          1915.49370	         5.77358e+57
          1916.30000	         6.63255e+57
          1917.10630	         7.12622e+57
          1917.91260	         6.91841e+57
          1918.71890	         5.11718e+57
          1919.52520	         6.16145e+57
          1920.33150	         6.68336e+57
          1921.13780	         7.38766e+57
          1921.94410	         8.40363e+57
          1922.75040	         8.59962e+57
          1923.55670	         7.60302e+57
          1924.36300	         8.19077e+57
          1925.16930	         7.43843e+57
          1925.97560	         6.08659e+57
          1926.78190	         5.35061e+57
          1927.58820	         6.06061e+57
          1928.39450	         6.03713e+57
          1929.20080	         5.48758e+57
          1930.00710	         6.74388e+57
          1930.81340	         8.67857e+57
          1931.61970	         8.04652e+57
          1932.42600	         7.40320e+57
          1933.23230	         8.73976e+57
          1934.03860	         8.04482e+57
          1934.84490	         5.90618e+57
          1935.65120	         7.95878e+57
          1936.45750	         8.86385e+57
          1937.26380	         8.03092e+57
          1938.07010	         7.95076e+57
          1938.87640	         7.73491e+57
          1939.68270	         8.06541e+57
          1940.48900	         8.14330e+57
          1941.29530	         9.23734e+57
          1942.10160	         9.17997e+57
          1942.90790	         7.60307e+57
          1943.71420	         6.37060e+57
          1944.52050	         5.73924e+57
          1945.32680	         5.45843e+57
          1946.13310	         7.10540e+57
          1946.93940	         9.07834e+57
          1947.74570	         7.86886e+57
          1948.55200	         6.58376e+57
          1949.35830	         6.76750e+57
          1950.16460	         5.39631e+57
          1950.97090	         6.31348e+57
          1951.77720	         7.73761e+57
          1952.58350	         7.32699e+57
          1953.38980	         6.19425e+57
          1954.19610	         4.43627e+57
          1955.00240	         4.90789e+57
          1955.80870	         6.11252e+57
          1956.61500	         5.76411e+57
          1957.42130	         6.02073e+57
          1958.22760	         5.88577e+57
          1959.03390	         7.17636e+57
          1959.84020	         7.00125e+57
          1960.64650	         6.12157e+57
          1961.45280	         5.55314e+57
          1962.25910	         6.71770e+57
          1963.06540	         6.20262e+57
          1963.87170	         6.08049e+57
          1964.67800	         7.70980e+57
          1965.48430	         6.34961e+57
          1966.29060	         6.84691e+57
          1967.09690	         7.76361e+57
          1967.90320	         7.62973e+57
          1968.70950	         6.51004e+57
          1969.51580	         5.94109e+57
          1970.32210	         7.23852e+57
          1971.12840	         7.14119e+57
          1971.93470	         4.84876e+57
          1972.74100	         6.15523e+57
          1973.54730	         7.18736e+57
          1974.35360	         6.97201e+57
          1975.15990	         7.21084e+57
          1975.96620	         6.57831e+57
          1976.77250	         6.61554e+57
          1977.57880	         6.97509e+57
          1978.38510	         5.94776e+57
          1979.19140	         6.71709e+57
          1979.99770	         8.07234e+57
          1980.80400	         7.81426e+57
          1981.61030	         6.23862e+57
          1982.41660	         6.48827e+57
          1983.22290	         6.47404e+57
          1984.02920	         5.51342e+57
          1984.83550	         5.64558e+57
          1985.64180	         7.18087e+57
          1986.44810	         6.08809e+57
          1987.25440	         5.62139e+57
          1988.06070	         5.54523e+57
          1988.86700	         6.66389e+57
          1989.67330	         7.50555e+57
          1990.47960	         7.02385e+57
          1991.28590	         6.03553e+57
          1992.09220	         4.86472e+57
          1992.89850	         5.80685e+57
          1993.70480	         5.78857e+57
          1994.51110	         4.64820e+57
          1995.31740	         4.57139e+57
          1996.12370	         4.07054e+57
          1996.93000	         4.87502e+57
          1997.73630	         7.26424e+57
          1998.54260	         7.64240e+57
          1999.34890	         7.57779e+57
          2000.15520	         6.62281e+57
          2000.96150	         7.04613e+57
          2001.76780	         5.29257e+57
          2002.57410	         4.35118e+57
          2003.38040	         6.70301e+57
          2004.18670	         7.25845e+57
          2004.99300	         6.56519e+57
          2005.79930	         8.09720e+57
          2006.60560	         7.98828e+57
          2007.41190	         7.03345e+57
          2008.21820	         7.13963e+57
          2009.02450	         7.06979e+57
          2009.83080	         5.47464e+57
          2010.63710	         6.42891e+57
          2011.44340	         7.09866e+57
          2012.24970	         7.54218e+57
          2013.05600	         7.49882e+57
          2013.86230	         6.78950e+57
          2014.66860	         5.86428e+57
          2015.47490	         6.41400e+57
          2016.28120	         6.60565e+57
          2017.08750	         6.93026e+57
          2017.89380	         6.47460e+57
          2018.70010	         5.15703e+57
          2019.50640	         4.78796e+57
          2020.31270	         6.19922e+57
          2021.11900	         7.49793e+57
          2021.92530	         7.84898e+57
          2022.73160	         8.05373e+57
          2023.53790	         7.73623e+57
          2024.34420	         5.68079e+57
          2025.15050	         5.35859e+57
          2025.95680	         6.22026e+57
          2026.76310	         6.79705e+57
          2027.56940	         6.21511e+57
          2028.37570	         6.52115e+57
          2029.18200	         6.43290e+57
          2029.98830	         5.98054e+57
          2030.79460	         5.87785e+57
          2031.60090	         5.77905e+57
          2032.40720	         5.60572e+57
          2033.21350	         6.20748e+57
          2034.01980	         5.15224e+57
          2034.82610	         5.70830e+57
          2035.63240	         5.27252e+57
          2036.43870	         5.77829e+57
          2037.24500	         5.97384e+57
          2038.05130	         6.23446e+57
          2038.85760	         6.01535e+57
          2039.66390	         6.27083e+57
          2040.47020	         6.17579e+57
          2041.27650	         6.11782e+57
          2042.08280	         5.44803e+57
          2042.88910	         5.83934e+57
          2043.69540	         6.14672e+57
          2044.50170	         4.80572e+57
          2045.30800	         3.35421e+57
          2046.11430	         3.66352e+57
          2046.92060	         5.91571e+57
          2047.72690	         7.25292e+57
          2048.53320	         7.00391e+57
          2049.33950	         5.10866e+57
          2050.14580	         5.66315e+57
          2050.95210	         5.21869e+57
          2051.75840	         6.42970e+57
          2052.56470	         4.47057e+57
          2053.37100	         3.24746e+57
          2054.17730	         3.68058e+57
          2054.98360	         4.17270e+57
          2055.78990	         2.72616e+57
          2056.59620	         2.19465e+57
          2057.40250	         4.63803e+57
          2058.20880	         6.93951e+57
          2059.01510	         6.63612e+57
          2059.82140	         6.91180e+57
          2060.62770	         9.75512e+57
          2061.43400	         1.65161e+58
          2062.24030	         1.19245e+58
          2063.04660	         4.21143e+57
          2063.85290	         3.64393e+57
          2064.65920	        -8.79724e+55
          2065.46550	        -1.07872e+58
          2066.27180	        -1.10114e+58
          2067.07810	         3.10604e+57
          2067.88440	         3.07001e+57
          2068.69070	         5.56439e+57
          2069.49700	         6.01916e+57
          2070.30330	         3.78399e+57
          2071.10960	         6.36602e+57
          2071.91590	         6.87273e+57
          2072.72220	         4.90223e+57
          2073.52850	         4.73366e+57
          2074.33480	         4.67900e+57
          2075.14110	         5.40198e+57
          2075.94740	         5.10473e+57
          2076.75370	         4.68124e+57
          2077.56000	         3.71870e+57
          2078.36630	         4.46890e+57
          2079.17260	         5.64948e+57
          2079.97890	         5.17357e+57
          2080.78520	         6.08616e+57
          2081.59150	         5.85926e+57
          2082.39780	         4.99295e+57
          2083.20410	         3.95084e+57
          2084.01040	         2.65025e+57
          2084.81670	         3.78254e+57
          2085.62300	         4.45430e+57
          2086.42930	         2.96170e+57
          2087.23560	         1.81712e+57
          2088.04190	         2.35426e+57
          2088.84820	         3.34731e+57
          2089.65450	         3.18246e+57
          2090.46080	         1.57178e+57
          2091.26710	         2.11560e+57
          2092.07340	         3.38371e+57
          2092.87970	         2.79154e+57
          2093.68600	         4.00210e+56
          2094.49230	         3.40321e+57
          2095.29860	         7.40477e+57
          2096.10490	         2.76914e+57
          2096.91120	         7.90410e+55
          2097.71750	         8.42860e+56
          2098.52380	         1.01310e+57
          2099.33010	         1.43049e+57
          2100.13640	         3.25512e+57
          2100.94270	         3.13262e+57
          2101.74900	         2.77552e+57
          2102.55530	         2.79340e+57
          2103.36160	         2.24572e+57
          2104.16790	         2.77343e+57
          2104.97420	         1.74264e+57
          2105.78050	         2.17640e+57
          2106.58680	        -1.23907e+57
          2107.39310	        -4.66497e+57
          2108.19940	        -2.68467e+57
          2109.00570	        -2.14571e+57
          2109.81200	         1.15603e+57
          2110.61830	         2.28815e+57
          2111.42460	         1.72901e+56
          2112.23090	         2.91205e+57
          2113.03720	        -2.57219e+57
          2113.84350	        -2.34361e+57
          2114.64980	         6.08711e+57
          2115.45610	        -1.20175e+57
          2116.26240	        -5.27452e+57
          2117.06870	        -1.67439e+57
          2117.87500	        -7.13446e+56
          2118.68130	        -2.48286e+57
          2119.48760	         3.93018e+57
          2120.29390	         5.15890e+55
          2121.10020	        -5.69963e+57
          2121.90650	        -4.73227e+57
          2122.71280	        -2.04379e+57
          2123.51910	         3.31072e+57
          2124.32540	        -2.98846e+56
          2125.13170	        -2.98836e+57
          2125.93800	         8.94260e+56
          2126.74430	        -5.75551e+55
          2127.55060	        -5.25506e+57
          2128.35690	        -5.31295e+57
          2129.16320	        -2.41142e+57
          2129.96950	        -1.05411e+57
          2130.77580	         5.21791e+57
          2131.58210	         3.65802e+57
          2132.38840	         1.99261e+57
          2133.19470	         1.21766e+57
          2134.00100	        -1.18865e+57
          2134.80730	        -9.78116e+57
          2135.61360	        -4.75066e+57
          2136.41990	         5.28590e+57
          2137.22620	         5.52934e+57
          2138.03250	         3.37073e+57
          2138.83880	        -4.94242e+57
          2139.64510	        -3.04952e+57
          2140.45140	        -6.21688e+57
          2141.25770	        -7.60548e+57
          2142.06400	        -1.30378e+58
          2142.87030	         4.59188e+57
          2143.67660	         1.12017e+58
          2144.48290	         6.74372e+57
          2145.28920	         7.32960e+57
          2146.09550	        -1.57036e+58
          2146.90180	        -1.42640e+58
          2147.70810	        -9.27076e+57
          2148.51440	         3.92696e+57
          2149.32070	        -8.71452e+57
          2150.12700	        -1.23165e+58
          2150.93330	        -1.60681e+57
          2151.73960	        -2.06230e+57
          2152.54590	        -1.39970e+58
          2153.35220	        -2.32999e+57
          2154.15850	        -6.09213e+57
          2154.96480	        -1.30593e+57
          2155.77110	         2.99273e+56
          2156.57740	         1.75226e+57
          2157.38370	        -1.47988e+58
          2158.19000	         6.80926e+57
          2158.99630	        -2.52137e+56
          2159.80260	        -1.71205e+58
          2160.60890	        -1.25165e+58
          2161.41520	        -1.07657e+58
          2162.22150	         1.61957e+56
          2163.02780	        -4.53351e+57
          2163.83410	        -4.90024e+57
          2164.64040	        -1.01790e+58
          2165.44670	        -9.24615e+57
          2166.25300	        -1.40208e+58
          2167.05930	        -1.48684e+58
          2167.86560	        -1.54294e+58
          2168.67190	        -3.87966e+56
          2169.47820	         2.48789e+57
          2170.28450	        -7.81153e+57
          2171.09080	         2.49379e+56
          2171.89710	         9.43924e+56
          2172.70340	         5.00808e+57
          2173.50970	        -2.86484e+57
          2174.31600	        -4.87764e+57
          2175.12230	        -2.35983e+57
          2175.92860	        -4.99036e+57
          2176.73490	        -8.83960e+57
          2177.54120	        -7.94819e+57
          2178.34750	        -5.77217e+57
          2179.15380	                 nan
          2179.96010	                 nan
          2180.76640	                 nan
          2181.57270	                 nan
          2182.37900	                 nan
          2183.18530	                 nan
          2183.99160	                 nan
          2184.79790	                 nan
          2185.60420	                 nan
          2186.41050	                 nan
          2187.21680	                 nan
          2188.02310	                 nan
          2188.82940	                 nan
          2189.63570	                 nan
          2190.44200	                 nan
          2191.24830	                 nan
          2192.05460	                 nan
          2192.86090	                 nan
          2193.66720	                 nan
          2194.47350	                 nan
          2195.27980	                 nan
          2196.08610	                 nan
          2196.89240	                 nan
          2197.69870	                 nan
          2198.50500	                 nan
          2199.31130	                 nan
          2200.11760	                 nan
          2200.92390	                 nan
          2201.73020	                 nan
          2202.53650	                 nan
          2203.34280	                 nan
          2204.14910	                 nan
          2204.95540	                 nan
          2205.76170	                 nan
          2206.56800	                 nan
          2207.37430	                 nan
          2208.18060	                 nan
          2208.98690	                 nan
          2209.79320	                 nan
          2210.59950	                 nan
          2211.40580	                 nan
          2212.21210	                 nan
          2213.01840	                 nan
          2213.82470	                 nan
          2214.63100	                 nan
          2215.43730	         0.00000e+00
