#sample_370_stacked_spectrum_rest_UV-bands_median_H-alpha_noDC.txt
#median Lum: 1.70986e+42
#Rest-frame wavelength (A) | Luminosity (erg/s/A)
#
          1110.00000	         0.00000e+00
          1110.80630	         1.69847e+59
          1111.61260	         1.75583e+59
          1112.41890	         1.68687e+59
          1113.22520	        -2.32732e+59
          1114.03150	        -2.26722e+59
          1114.83780	         9.98378e+58
          1115.64410	        -4.06148e+58
          1116.45040	        -2.53793e+58
          1117.25670	        -9.62610e+57
          1118.06300	         9.80961e+58
          1118.86930	         2.29553e+57
          1119.67560	         1.53564e+59
          1120.48190	        -1.60623e+58
          1121.28820	        -1.31684e+59
          1122.09450	         3.09421e+58
          1122.90080	         8.84622e+57
          1123.70710	         7.68013e+58
          1124.51340	         5.65201e+58
          1125.31970	        -8.42038e+57
          1126.12600	         5.33418e+58
          1126.93230	        -6.08628e+57
          1127.73860	        -1.20911e+58
          1128.54490	         3.93972e+58
          1129.35120	         4.80538e+58
          1130.15750	        -1.17279e+58
          1130.96380	        -9.61529e+57
          1131.77010	         3.23169e+58
          1132.57640	         1.62532e+58
          1133.38270	         1.89319e+58
          1134.18900	         9.69968e+57
          1134.99530	         1.77859e+58
          1135.80160	         2.47473e+58
          1136.60790	         9.06379e+57
          1137.41420	         2.32715e+57
          1138.22050	         2.13134e+58
          1139.02680	         2.80352e+58
          1139.83310	         3.42911e+58
          1140.63940	         3.58599e+58
          1141.44570	        -5.10561e+57
          1142.25200	        -1.34668e+58
          1143.05830	         1.38655e+58
          1143.86460	         3.03331e+58
          1144.67090	         3.17849e+58
          1145.47720	         1.33480e+58
          1146.28350	         2.36766e+58
          1147.08980	         1.25886e+58
          1147.89610	         1.84682e+58
          1148.70240	         2.23849e+58
          1149.50870	         2.13508e+58
          1150.31500	         4.99389e+57
          1151.12130	        -3.01844e+57
          1151.92760	         5.88312e+57
          1152.73390	         9.35108e+57
          1153.54020	         5.60953e+57
          1154.34650	         2.68192e+58
          1155.15280	         3.37096e+58
          1155.95910	         1.34882e+58
          1156.76540	         1.27345e+58
          1157.57170	         6.68281e+57
          1158.37800	         1.64752e+57
          1159.18430	         6.13571e+57
          1159.99060	         5.11605e+57
          1160.79690	         2.83277e+57
          1161.60320	         1.69131e+58
          1162.40950	         8.62244e+57
          1163.21580	         2.22504e+58
          1164.02210	         7.78420e+57
          1164.82840	         8.64440e+57
          1165.63470	         1.20925e+58
          1166.44100	         2.54959e+58
          1167.24730	         2.85892e+58
          1168.05360	         1.40785e+58
          1168.85990	         1.19831e+58
          1169.66620	         3.22042e+57
          1170.47250	         2.43297e+57
          1171.27880	         5.44382e+57
          1172.08510	         1.11133e+58
          1172.89140	         8.50051e+57
          1173.69770	         4.66019e+57
          1174.50400	         9.17729e+57
          1175.31030	         1.62089e+58
          1176.11660	         2.04388e+58
          1176.92290	         2.12556e+58
          1177.72920	         1.73553e+58
          1178.53550	         7.31594e+57
          1179.34180	         4.39400e+57
          1180.14810	         6.51112e+57
          1180.95440	         3.53080e+57
          1181.76070	         3.50246e+57
          1182.56700	         8.19476e+57
          1183.37330	         6.78556e+57
          1184.17960	         1.22116e+58
          1184.98590	         1.22949e+58
          1185.79220	         7.90529e+57
          1186.59850	         7.30395e+57
          1187.40480	         1.14151e+58
          1188.21110	         1.56550e+58
          1189.01740	         3.00397e+57
          1189.82370	         8.30192e+57
          1190.63000	         9.68222e+57
          1191.43630	         1.25307e+58
          1192.24260	         8.80395e+57
          1193.04890	         1.01737e+58
          1193.85520	         9.92555e+57
          1194.66150	         5.11494e+57
          1195.46780	         1.02214e+58
          1196.27410	         7.75624e+57
          1197.08040	         5.53212e+57
          1197.88670	         1.29010e+58
          1198.69300	         1.50639e+58
          1199.49930	         1.56901e+58
          1200.30560	         1.12697e+58
          1201.11190	         7.61693e+57
          1201.91820	         8.24858e+57
          1202.72450	         7.83632e+57
          1203.53080	         1.77682e+58
          1204.33710	         1.19158e+58
          1205.14340	         8.27760e+57
          1205.94970	         4.67188e+57
          1206.75600	         9.66401e+57
          1207.56230	         7.84241e+57
          1208.36860	         1.00528e+58
          1209.17490	         4.60594e+57
          1209.98120	         5.94505e+57
          1210.78750	         4.58012e+57
          1211.59380	         7.75823e+57
          1212.40010	         1.83943e+58
          1213.20640	         1.94548e+58
          1214.01270	         2.05155e+58
          1214.81900	         2.70565e+58
          1215.62530	         4.47228e+58
          1216.43160	         8.90163e+58
          1217.23790	         1.51094e+59
          1218.04420	         1.14059e+59
          1218.85050	         8.84683e+58
          1219.65680	         5.91140e+58
          1220.46310	         3.48705e+58
          1221.26940	         2.76246e+58
          1222.07570	         1.70527e+58
          1222.88200	         1.24481e+58
          1223.68830	         1.20051e+58
          1224.49460	         7.93358e+57
          1225.30090	         8.07586e+57
          1226.10720	         6.33579e+57
          1226.91350	         3.65842e+57
          1227.71980	         7.73892e+57
          1228.52610	         1.45777e+58
          1229.33240	         8.13073e+57
          1230.13870	         7.89342e+57
          1230.94500	         1.15106e+58
          1231.75130	         3.41358e+57
          1232.55760	         7.82408e+57
          1233.36390	         1.13302e+58
          1234.17020	         7.94047e+57
          1234.97650	         6.80451e+57
          1235.78280	         9.47700e+57
          1236.58910	         1.20975e+58
          1237.39540	         1.23616e+58
          1238.20170	         1.02895e+58
          1239.00800	         1.20456e+58
          1239.81430	         1.49920e+58
          1240.62060	         1.06518e+58
          1241.42690	         9.69769e+57
          1242.23320	         1.05190e+58
          1243.03950	         6.55716e+57
          1243.84580	         6.98169e+57
          1244.65210	         9.77582e+57
          1245.45840	         1.09574e+58
          1246.26470	         9.92208e+57
          1247.07100	         9.83054e+57
          1247.87730	         6.37427e+57
          1248.68360	         3.46438e+57
          1249.48990	         8.48637e+57
          1250.29620	         1.04319e+58
          1251.10250	         6.86646e+57
          1251.90880	         4.88444e+57
          1252.71510	         5.02258e+57
          1253.52140	         6.04266e+57
          1254.32770	         1.00205e+58
          1255.13400	         1.25725e+58
          1255.94030	         1.08740e+58
          1256.74660	         1.01000e+58
          1257.55290	         1.07631e+58
          1258.35920	         8.73607e+57
          1259.16550	         7.15940e+57
          1259.97180	         4.92865e+57
          1260.77810	         7.45271e+57
          1261.58440	         8.72942e+57
          1262.39070	         6.51129e+57
          1263.19700	         1.03496e+58
          1264.00330	         1.26358e+58
          1264.80960	         1.14962e+58
          1265.61590	         1.27681e+58
          1266.42220	         1.13879e+58
          1267.22850	         1.02839e+58
          1268.03480	         1.38377e+58
          1268.84110	         1.49920e+58
          1269.64740	         1.43815e+58
          1270.45370	         1.33201e+58
          1271.26000	         1.18787e+58
          1272.06630	         1.19130e+58
          1272.87260	         1.20542e+58
          1273.67890	         1.34345e+58
          1274.48520	         1.36516e+58
          1275.29150	         1.38297e+58
          1276.09780	         1.23703e+58
          1276.90410	         1.18778e+58
          1277.71040	         1.05065e+58
          1278.51670	         1.15858e+58
          1279.32300	         1.21767e+58
          1280.12930	         1.34788e+58
          1280.93560	         1.27349e+58
          1281.74190	         1.33321e+58
          1282.54820	         1.54124e+58
          1283.35450	         1.12990e+58
          1284.16080	         8.70745e+57
          1284.96710	         1.20952e+58
          1285.77340	         1.26838e+58
          1286.57970	         1.03564e+58
          1287.38600	         1.53293e+58
          1288.19230	         1.77272e+58
          1288.99860	         1.51820e+58
          1289.80490	         1.24382e+58
          1290.61120	         1.50132e+58
          1291.41750	         1.51709e+58
          1292.22380	         1.28673e+58
          1293.03010	         1.15134e+58
          1293.83640	         9.49717e+57
          1294.64270	         7.78018e+57
          1295.44900	         6.45938e+57
          1296.25530	         8.19963e+57
          1297.06160	         1.00286e+58
          1297.86790	         9.08286e+57
          1298.67420	         8.72265e+57
          1299.48050	         9.81897e+57
          1300.28680	         1.02186e+58
          1301.09310	         8.56314e+57
          1301.89940	         4.00150e+57
          1302.70570	         5.47226e+57
          1303.51200	         8.04410e+57
          1304.31830	         9.72785e+57
          1305.12460	         1.12518e+58
          1305.93090	         1.14946e+58
          1306.73720	         1.30214e+58
          1307.54350	         1.37777e+58
          1308.34980	         1.37776e+58
          1309.15610	         1.45095e+58
          1309.96240	         1.34734e+58
          1310.76870	         1.31824e+58
          1311.57500	         1.39352e+58
          1312.38130	         1.34596e+58
          1313.18760	         1.43073e+58
          1313.99390	         1.58365e+58
          1314.80020	         1.55233e+58
          1315.60650	         1.45921e+58
          1316.41280	         1.41892e+58
          1317.21910	         1.20689e+58
          1318.02540	         1.09539e+58
          1318.83170	         1.30572e+58
          1319.63800	         1.38945e+58
          1320.44430	         1.25755e+58
          1321.25060	         1.34236e+58
          1322.05690	         1.25610e+58
          1322.86320	         1.37326e+58
          1323.66950	         1.22491e+58
          1324.47580	         8.84508e+57
          1325.28210	         9.26378e+57
          1326.08840	         1.13615e+58
          1326.89470	         1.23730e+58
          1327.70100	         1.05151e+58
          1328.50730	         6.94254e+57
          1329.31360	         8.14297e+57
          1330.11990	         1.01096e+58
          1330.92620	         1.10687e+58
          1331.73250	         1.13533e+58
          1332.53880	         9.98766e+57
          1333.34510	         8.32090e+57
          1334.15140	         8.21512e+57
          1334.95770	         9.26987e+57
          1335.76400	         1.06487e+58
          1336.57030	         1.17256e+58
          1337.37660	         1.06612e+58
          1338.18290	         1.04227e+58
          1338.98920	         1.23573e+58
          1339.79550	         1.28970e+58
          1340.60180	         1.22860e+58
          1341.40810	         1.35498e+58
          1342.21440	         1.24744e+58
          1343.02070	         1.25105e+58
          1343.82700	         1.35745e+58
          1344.63330	         1.25422e+58
          1345.43960	         1.44269e+58
          1346.24590	         1.25964e+58
          1347.05220	         1.31043e+58
          1347.85850	         1.32307e+58
          1348.66480	         1.30980e+58
          1349.47110	         1.39340e+58
          1350.27740	         1.29043e+58
          1351.08370	         1.18956e+58
          1351.89000	         1.14291e+58
          1352.69630	         1.18727e+58
          1353.50260	         1.19487e+58
          1354.30890	         1.22640e+58
          1355.11520	         1.21240e+58
          1355.92150	         1.08563e+58
          1356.72780	         1.10653e+58
          1357.53410	         1.06465e+58
          1358.34040	         1.09479e+58
          1359.14670	         1.10488e+58
          1359.95300	         1.20466e+58
          1360.75930	         1.24444e+58
          1361.56560	         1.12433e+58
          1362.37190	         1.21438e+58
          1363.17820	         1.15609e+58
          1363.98450	         1.25362e+58
          1364.79080	         1.34311e+58
          1365.59710	         1.33985e+58
          1366.40340	         1.24381e+58
          1367.20970	         1.09279e+58
          1368.01600	         9.89630e+57
          1368.82230	         8.50734e+57
          1369.62860	         7.83539e+57
          1370.43490	         9.24781e+57
          1371.24120	         9.41715e+57
          1372.04750	         7.49558e+57
          1372.85380	         1.05358e+58
          1373.66010	         1.23390e+58
          1374.46640	         1.11255e+58
          1375.27270	         1.14696e+58
          1376.07900	         9.47539e+57
          1376.88530	         7.56198e+57
          1377.69160	         8.94914e+57
          1378.49790	         8.68314e+57
          1379.30420	         7.49919e+57
          1380.11050	         9.15078e+57
          1380.91680	         9.58485e+57
          1381.72310	         8.73013e+57
          1382.52940	         7.72774e+57
          1383.33570	         7.89823e+57
          1384.14200	         9.33111e+57
          1384.94830	         1.17934e+58
          1385.75460	         1.12440e+58
          1386.56090	         1.22903e+58
          1387.36720	         1.35317e+58
          1388.17350	         1.30757e+58
          1388.97980	         1.18425e+58
          1389.78610	         1.10409e+58
          1390.59240	         8.81232e+57
          1391.39870	         7.43939e+57
          1392.20500	         9.86759e+57
          1393.01130	         8.87496e+57
          1393.81760	         7.72348e+57
          1394.62390	         7.10026e+57
          1395.43020	         6.58450e+57
          1396.23650	         7.61874e+57
          1397.04280	         8.64075e+57
          1397.84910	         9.62107e+57
          1398.65540	         9.34363e+57
          1399.46170	         1.02779e+58
          1400.26800	         8.90983e+57
          1401.07430	         6.67833e+57
          1401.88060	         6.88237e+57
          1402.68690	         9.00575e+57
          1403.49320	         9.77381e+57
          1404.29950	         9.67734e+57
          1405.10580	         1.02425e+58
          1405.91210	         1.06355e+58
          1406.71840	         1.13033e+58
          1407.52470	         1.12395e+58
          1408.33100	         9.99295e+57
          1409.13730	         1.11619e+58
          1409.94360	         1.29606e+58
          1410.74990	         1.30441e+58
          1411.55620	         1.14366e+58
          1412.36250	         1.00025e+58
          1413.16880	         1.03965e+58
          1413.97510	         9.63090e+57
          1414.78140	         9.68910e+57
          1415.58770	         1.13922e+58
          1416.39400	         1.17215e+58
          1417.20030	         1.22508e+58
          1418.00660	         1.00548e+58
          1418.81290	         8.94129e+57
          1419.61920	         8.27152e+57
          1420.42550	         1.03548e+58
          1421.23180	         1.39965e+58
          1422.03810	         1.30455e+58
          1422.84440	         1.05158e+58
          1423.65070	         1.21743e+58
          1424.45700	         1.11991e+58
          1425.26330	         8.49901e+57
          1426.06960	         8.21440e+57
          1426.87590	         9.45422e+57
          1427.68220	         1.08267e+58
          1428.48850	         1.17247e+58
          1429.29480	         1.14969e+58
          1430.10110	         9.69832e+57
          1430.90740	         8.51911e+57
          1431.71370	         8.58525e+57
          1432.52000	         8.36198e+57
          1433.32630	         7.62963e+57
          1434.13260	         8.25722e+57
          1434.93890	         8.85203e+57
          1435.74520	         8.29790e+57
          1436.55150	         8.57480e+57
          1437.35780	         8.85768e+57
          1438.16410	         9.68331e+57
          1438.97040	         9.60982e+57
          1439.77670	         9.14463e+57
          1440.58300	         9.90082e+57
          1441.38930	         1.06162e+58
          1442.19560	         1.01576e+58
          1443.00190	         1.05911e+58
          1443.80820	         1.20990e+58
          1444.61450	         1.11045e+58
          1445.42080	         9.37704e+57
          1446.22710	         1.05771e+58
          1447.03340	         1.07906e+58
          1447.83970	         1.19024e+58
          1448.64600	         1.11708e+58
          1449.45230	         1.00105e+58
          1450.25860	         1.05714e+58
          1451.06490	         9.43471e+57
          1451.87120	         7.50750e+57
          1452.67750	         6.91941e+57
          1453.48380	         7.92350e+57
          1454.29010	         7.96210e+57
          1455.09640	         7.26647e+57
          1455.90270	         8.94005e+57
          1456.70900	         9.17525e+57
          1457.51530	         1.01786e+58
          1458.32160	         1.35524e+58
          1459.12790	         1.29379e+58
          1459.93420	         9.93887e+57
          1460.74050	         6.23333e+57
          1461.54680	         6.92884e+57
          1462.35310	         8.34276e+57
          1463.15940	         9.82511e+57
          1463.96570	         1.14589e+58
          1464.77200	         1.18559e+58
          1465.57830	         1.06385e+58
          1466.38460	         9.92375e+57
          1467.19090	         8.21846e+57
          1467.99720	         8.51830e+57
          1468.80350	         9.65644e+57
          1469.60980	         9.88068e+57
          1470.41610	         1.07569e+58
          1471.22240	         9.62501e+57
          1472.02870	         1.01386e+58
          1472.83500	         1.00643e+58
          1473.64130	         1.00042e+58
          1474.44760	         1.05221e+58
          1475.25390	         1.00089e+58
          1476.06020	         1.08144e+58
          1476.86650	         9.56040e+57
          1477.67280	         8.04323e+57
          1478.47910	         7.27013e+57
          1479.28540	         7.46037e+57
          1480.09170	         8.55718e+57
          1480.89800	         7.86851e+57
          1481.70430	         9.19940e+57
          1482.51060	         1.02085e+58
          1483.31690	         8.20393e+57
          1484.12320	         8.12433e+57
          1484.92950	         8.33648e+57
          1485.73580	         8.02550e+57
          1486.54210	         9.14476e+57
          1487.34840	         9.37311e+57
          1488.15470	         7.58413e+57
          1488.96100	         8.26424e+57
          1489.76730	         9.42021e+57
          1490.57360	         8.87964e+57
          1491.37990	         7.74852e+57
          1492.18620	         8.85718e+57
          1492.99250	         9.52372e+57
          1493.79880	         8.99525e+57
          1494.60510	         9.37452e+57
          1495.41140	         7.82550e+57
          1496.21770	         8.13390e+57
          1497.02400	         1.04551e+58
          1497.83030	         8.97193e+57
          1498.63660	         6.91556e+57
          1499.44290	         6.76959e+57
          1500.24920	         8.26429e+57
          1501.05550	         8.86996e+57
          1501.86180	         8.61161e+57
          1502.66810	         9.60519e+57
          1503.47440	         9.01166e+57
          1504.28070	         9.18917e+57
          1505.08700	         1.02309e+58
          1505.89330	         9.99728e+57
          1506.69960	         8.70254e+57
          1507.50590	         8.78338e+57
          1508.31220	         9.92533e+57
          1509.11850	         9.67721e+57
          1509.92480	         9.85289e+57
          1510.73110	         9.73072e+57
          1511.53740	         8.01935e+57
          1512.34370	         7.42569e+57
          1513.15000	         8.88174e+57
          1513.95630	         9.68060e+57
          1514.76260	         9.62662e+57
          1515.56890	         8.59586e+57
          1516.37520	         8.35548e+57
          1517.18150	         8.73714e+57
          1517.98780	         7.72413e+57
          1518.79410	         7.16606e+57
          1519.60040	         7.47229e+57
          1520.40670	         8.29163e+57
          1521.21300	         9.42070e+57
          1522.01930	         9.03780e+57
          1522.82560	         9.14120e+57
          1523.63190	         1.06136e+58
          1524.43820	         1.00397e+58
          1525.24450	         7.11442e+57
          1526.05080	         5.45932e+57
          1526.85710	         6.00146e+57
          1527.66340	         7.32263e+57
          1528.46970	         7.72721e+57
          1529.27600	         8.16533e+57
          1530.08230	         8.07251e+57
          1530.88860	         7.63837e+57
          1531.69490	         8.38326e+57
          1532.50120	         9.04614e+57
          1533.30750	         1.01784e+58
          1534.11380	         1.00558e+58
          1534.92010	         1.01128e+58
          1535.72640	         1.02660e+58
          1536.53270	         1.00216e+58
          1537.33900	         9.22013e+57
          1538.14530	         8.78669e+57
          1538.95160	         8.63965e+57
          1539.75790	         8.67968e+57
          1540.56420	         8.99523e+57
          1541.37050	         8.41160e+57
          1542.17680	         7.80231e+57
          1542.98310	         7.35806e+57
          1543.78940	         6.95034e+57
          1544.59570	         7.31416e+57
          1545.40200	         8.41112e+57
          1546.20830	         9.49555e+57
          1547.01460	         1.21007e+58
          1547.82090	         1.09387e+58
          1548.62720	         1.19410e+58
          1549.43350	         1.17640e+58
          1550.23980	         1.05701e+58
          1551.04610	         1.16733e+58
          1551.85240	         1.33518e+58
          1552.65870	         1.22351e+58
          1553.46500	         1.09891e+58
          1554.27130	         1.06733e+58
          1555.07760	         1.08089e+58
          1555.88390	         9.99886e+57
          1556.69020	         9.46017e+57
          1557.49650	         9.40380e+57
          1558.30280	         8.22417e+57
          1559.10910	         7.85320e+57
          1559.91540	         8.90377e+57
          1560.72170	         9.41894e+57
          1561.52800	         8.94615e+57
          1562.33430	         8.69071e+57
          1563.14060	         8.40270e+57
          1563.94690	         8.15131e+57
          1564.75320	         9.08766e+57
          1565.55950	         7.54403e+57
          1566.36580	         7.56272e+57
          1567.17210	         9.77921e+57
          1567.97840	         9.00172e+57
          1568.78470	         8.33959e+57
          1569.59100	         9.01456e+57
          1570.39730	         8.29662e+57
          1571.20360	         6.59929e+57
          1572.00990	         6.63350e+57
          1572.81620	         8.56245e+57
          1573.62250	         1.09177e+58
          1574.42880	         9.27622e+57
          1575.23510	         7.41765e+57
          1576.04140	         8.28592e+57
          1576.84770	         8.83046e+57
          1577.65400	         8.93307e+57
          1578.46030	         1.00410e+58
          1579.26660	         1.00341e+58
          1580.07290	         8.69823e+57
          1580.87920	         8.01656e+57
          1581.68550	         8.96273e+57
          1582.49180	         9.14243e+57
          1583.29810	         8.29169e+57
          1584.10440	         8.67733e+57
          1584.91070	         8.51724e+57
          1585.71700	         8.62503e+57
          1586.52330	         8.29022e+57
          1587.32960	         8.56257e+57
          1588.13590	         9.30949e+57
          1588.94220	         8.48643e+57
          1589.74850	         9.38990e+57
          1590.55480	         9.43695e+57
          1591.36110	         8.90288e+57
          1592.16740	         8.55470e+57
          1592.97370	         8.80593e+57
          1593.78000	         9.08426e+57
          1594.58630	         9.42691e+57
          1595.39260	         8.46857e+57
          1596.19890	         9.01278e+57
          1597.00520	         9.28427e+57
          1597.81150	         7.76507e+57
          1598.61780	         7.26856e+57
          1599.42410	         7.44767e+57
          1600.23040	         6.65488e+57
          1601.03670	         7.79171e+57
          1601.84300	         8.46565e+57
          1602.64930	         8.35475e+57
          1603.45560	         8.86413e+57
          1604.26190	         8.72059e+57
          1605.06820	         8.43463e+57
          1605.87450	         7.58822e+57
          1606.68080	         7.77601e+57
          1607.48710	         6.72460e+57
          1608.29340	         6.14600e+57
          1609.09970	         6.79164e+57
          1609.90600	         7.12192e+57
          1610.71230	         6.91287e+57
          1611.51860	         7.29850e+57
          1612.32490	         6.85137e+57
          1613.13120	         7.38209e+57
          1613.93750	         7.68063e+57
          1614.74380	         8.87259e+57
          1615.55010	         9.40105e+57
          1616.35640	         8.60958e+57
          1617.16270	         9.91520e+57
          1617.96900	         9.42719e+57
          1618.77530	         8.12036e+57
          1619.58160	         8.84059e+57
          1620.38790	         8.77371e+57
          1621.19420	         8.61579e+57
          1622.00050	         7.93080e+57
          1622.80680	         7.89755e+57
          1623.61310	         9.19270e+57
          1624.41940	         9.37430e+57
          1625.22570	         9.49423e+57
          1626.03200	         8.88841e+57
          1626.83830	         8.20709e+57
          1627.64460	         7.30142e+57
          1628.45090	         7.02638e+57
          1629.25720	         9.32604e+57
          1630.06350	         8.91406e+57
          1630.86980	         6.30535e+57
          1631.67610	         7.80358e+57
          1632.48240	         7.94680e+57
          1633.28870	         7.41878e+57
          1634.09500	         8.73052e+57
          1634.90130	         1.08928e+58
          1635.70760	         9.27715e+57
          1636.51390	         6.72249e+57
          1637.32020	         7.63526e+57
          1638.12650	         9.52795e+57
          1638.93280	         9.89273e+57
          1639.73910	         1.09481e+58
          1640.54540	         1.12134e+58
          1641.35170	         9.86889e+57
          1642.15800	         9.28416e+57
          1642.96430	         9.33854e+57
          1643.77060	         8.72904e+57
          1644.57690	         8.05884e+57
          1645.38320	         8.47501e+57
          1646.18950	         7.52932e+57
          1646.99580	         8.81708e+57
          1647.80210	         8.11561e+57
          1648.60840	         6.86995e+57
          1649.41470	         8.10317e+57
          1650.22100	         8.09357e+57
          1651.02730	         7.98872e+57
          1651.83360	         8.25197e+57
          1652.63990	         8.08780e+57
          1653.44620	         9.52792e+57
          1654.25250	         8.38870e+57
          1655.05880	         7.51859e+57
          1655.86510	         8.05673e+57
          1656.67140	         8.70539e+57
          1657.47770	         8.80839e+57
          1658.28400	         9.21047e+57
          1659.09030	         8.93760e+57
          1659.89660	         8.75194e+57
          1660.70290	         9.24787e+57
          1661.50920	         9.73294e+57
          1662.31550	         8.66098e+57
          1663.12180	         8.83335e+57
          1663.92810	         1.01116e+58
          1664.73440	         1.21246e+58
          1665.54070	         1.42142e+58
          1666.34700	         1.28222e+58
          1667.15330	         1.07302e+58
          1667.95960	         9.09005e+57
          1668.76590	         7.96871e+57
          1669.57220	         7.28079e+57
          1670.37850	         7.20342e+57
          1671.18480	         7.91794e+57
          1671.99110	         7.98895e+57
          1672.79740	         7.47234e+57
          1673.60370	         6.07081e+57
          1674.41000	         6.98119e+57
          1675.21630	         7.28319e+57
          1676.02260	         6.74105e+57
          1676.82890	         7.13048e+57
          1677.63520	         7.68882e+57
          1678.44150	         7.20009e+57
          1679.24780	         8.28656e+57
          1680.05410	         7.70984e+57
          1680.86040	         6.85036e+57
          1681.66670	         7.52215e+57
          1682.47300	         8.55746e+57
          1683.27930	         8.82308e+57
          1684.08560	         9.31488e+57
          1684.89190	         8.74047e+57
          1685.69820	         6.29121e+57
          1686.50450	         5.63330e+57
          1687.31080	         6.28305e+57
          1688.11710	         7.73731e+57
          1688.92340	         7.16681e+57
          1689.72970	         6.28044e+57
          1690.53600	         6.54943e+57
          1691.34230	         7.67530e+57
          1692.14860	         8.55715e+57
          1692.95490	         8.59492e+57
          1693.76120	         7.15302e+57
          1694.56750	         6.55786e+57
          1695.37380	         8.66195e+57
          1696.18010	         9.67327e+57
          1696.98640	         9.98113e+57
          1697.79270	         8.71009e+57
          1698.59900	         7.91601e+57
          1699.40530	         6.44429e+57
          1700.21160	         7.47502e+57
          1701.01790	         9.51734e+57
          1701.82420	         7.85244e+57
          1702.63050	         7.76358e+57
          1703.43680	         9.56627e+57
          1704.24310	         9.37537e+57
          1705.04940	         8.47338e+57
          1705.85570	         6.86439e+57
          1706.66200	         8.00090e+57
          1707.46830	         8.61158e+57
          1708.27460	         7.08030e+57
          1709.08090	         5.80206e+57
          1709.88720	         6.57319e+57
          1710.69350	         6.67081e+57
          1711.49980	         6.82924e+57
          1712.30610	         7.55726e+57
          1713.11240	         8.70617e+57
          1713.91870	         7.15232e+57
          1714.72500	         7.89532e+57
          1715.53130	         9.48524e+57
          1716.33760	         8.12131e+57
          1717.14390	         7.10845e+57
          1717.95020	         8.30652e+57
          1718.75650	         8.73458e+57
          1719.56280	         8.83128e+57
          1720.36910	         7.43293e+57
          1721.17540	         7.50301e+57
          1721.98170	         6.72783e+57
          1722.78800	         6.32450e+57
          1723.59430	         7.89537e+57
          1724.40060	         9.35816e+57
          1725.20690	         8.84354e+57
          1726.01320	         7.75158e+57
          1726.81950	         7.18086e+57
          1727.62580	         7.39895e+57
          1728.43210	         6.72535e+57
          1729.23840	         7.58815e+57
          1730.04470	         8.61436e+57
          1730.85100	         8.72933e+57
          1731.65730	         7.46674e+57
          1732.46360	         7.33208e+57
          1733.26990	         7.30816e+57
          1734.07620	         6.67944e+57
          1734.88250	         7.71670e+57
          1735.68880	         8.72627e+57
          1736.49510	         8.65521e+57
          1737.30140	         8.10140e+57
          1738.10770	         7.46272e+57
          1738.91400	         8.20036e+57
          1739.72030	         8.05530e+57
          1740.52660	         6.11006e+57
          1741.33290	         5.94168e+57
          1742.13920	         6.08510e+57
          1742.94550	         6.68202e+57
          1743.75180	         7.90246e+57
          1744.55810	         7.67994e+57
          1745.36440	         7.26970e+57
          1746.17070	         5.99304e+57
          1746.97700	         5.63492e+57
          1747.78330	         7.16261e+57
          1748.58960	         6.61839e+57
          1749.39590	         5.99248e+57
          1750.20220	         5.50756e+57
          1751.00850	         5.31043e+57
          1751.81480	         6.32919e+57
          1752.62110	         7.45921e+57
          1753.42740	         8.84131e+57
          1754.23370	         7.52088e+57
          1755.04000	         7.47562e+57
          1755.84630	         8.01958e+57
          1756.65260	         8.28276e+57
          1757.45890	         7.91640e+57
          1758.26520	         8.07476e+57
          1759.07150	         8.68051e+57
          1759.87780	         8.47770e+57
          1760.68410	         6.87131e+57
          1761.49040	         8.15640e+57
          1762.29670	         7.65681e+57
          1763.10300	         7.57674e+57
          1763.90930	         7.91554e+57
          1764.71560	         7.73660e+57
          1765.52190	         7.89992e+57
          1766.32820	         8.67766e+57
          1767.13450	         8.33082e+57
          1767.94080	         7.69417e+57
          1768.74710	         7.54336e+57
          1769.55340	         7.25535e+57
          1770.35970	         6.77699e+57
          1771.16600	         7.90951e+57
          1771.97230	         9.35637e+57
          1772.77860	         8.73949e+57
          1773.58490	         7.90315e+57
          1774.39120	         7.27523e+57
          1775.19750	         6.69073e+57
          1776.00380	         6.84655e+57
          1776.81010	         6.85110e+57
          1777.61640	         7.36416e+57
          1778.42270	         6.82233e+57
          1779.22900	         6.48489e+57
          1780.03530	         6.46428e+57
          1780.84160	         7.16977e+57
          1781.64790	         9.46691e+57
          1782.45420	         8.05054e+57
          1783.26050	         6.53145e+57
          1784.06680	         7.54010e+57
          1784.87310	         8.53188e+57
          1785.67940	         7.90486e+57
          1786.48570	         7.56433e+57
          1787.29200	         6.22693e+57
          1788.09830	         5.96083e+57
          1788.90460	         5.73253e+57
          1789.71090	         5.76589e+57
          1790.51720	         6.56138e+57
          1791.32350	         7.24530e+57
          1792.12980	         8.40634e+57
          1792.93610	         8.05073e+57
          1793.74240	         7.37894e+57
          1794.54870	         8.87120e+57
          1795.35500	         9.08032e+57
          1796.16130	         7.62586e+57
          1796.96760	         6.48753e+57
          1797.77390	         7.33447e+57
          1798.58020	         7.56547e+57
          1799.38650	         6.66476e+57
          1800.19280	         6.42335e+57
          1800.99910	         7.32254e+57
          1801.80540	         8.10845e+57
          1802.61170	         8.13241e+57
          1803.41800	         7.15286e+57
          1804.22430	         6.99038e+57
          1805.03060	         6.94985e+57
          1805.83690	         7.71349e+57
          1806.64320	         7.67477e+57
          1807.44950	         7.24632e+57
          1808.25580	         7.42489e+57
          1809.06210	         8.87247e+57
          1809.86840	         7.98780e+57
          1810.67470	         7.13600e+57
          1811.48100	         7.00431e+57
          1812.28730	         7.09672e+57
          1813.09360	         6.93787e+57
          1813.89990	         7.86999e+57
          1814.70620	         7.28950e+57
          1815.51250	         8.51422e+57
          1816.31880	         7.88638e+57
          1817.12510	         7.36437e+57
          1817.93140	         7.11633e+57
          1818.73770	         7.13206e+57
          1819.54400	         8.11995e+57
          1820.35030	         7.96605e+57
          1821.15660	         5.96165e+57
          1821.96290	         6.56922e+57
          1822.76920	         8.28678e+57
          1823.57550	         7.30297e+57
          1824.38180	         7.18309e+57
          1825.18810	         8.12440e+57
          1825.99440	         8.14287e+57
          1826.80070	         7.97849e+57
          1827.60700	         6.89123e+57
          1828.41330	         5.76508e+57
          1829.21960	         6.84690e+57
          1830.02590	         7.84946e+57
          1830.83220	         8.06620e+57
          1831.63850	         7.56819e+57
          1832.44480	         7.18120e+57
          1833.25110	         8.18697e+57
          1834.05740	         8.31553e+57
          1834.86370	         7.53040e+57
          1835.67000	         5.60697e+57
          1836.47630	         7.71276e+57
          1837.28260	         9.17186e+57
          1838.08890	         8.09594e+57
          1838.89520	         8.51946e+57
          1839.70150	         8.31651e+57
          1840.50780	         7.64025e+57
          1841.31410	         7.35582e+57
          1842.12040	         7.56568e+57
          1842.92670	         6.78755e+57
          1843.73300	         6.33563e+57
          1844.53930	         7.32958e+57
          1845.34560	         7.96009e+57
          1846.15190	         7.57946e+57
          1846.95820	         7.42628e+57
          1847.76450	         6.16814e+57
          1848.57080	         5.67760e+57
          1849.37710	         6.54081e+57
          1850.18340	         7.95501e+57
          1850.98970	         7.93332e+57
          1851.79600	         8.67897e+57
          1852.60230	         7.57193e+57
          1853.40860	         6.42073e+57
          1854.21490	         6.55961e+57
          1855.02120	         6.14792e+57
          1855.82750	         5.21381e+57
          1856.63380	         7.26267e+57
          1857.44010	         7.41099e+57
          1858.24640	         6.98180e+57
          1859.05270	         6.37986e+57
          1859.85900	         4.65236e+57
          1860.66530	         5.50087e+57
          1861.47160	         6.68130e+57
          1862.27790	         7.19222e+57
          1863.08420	         8.30773e+57
          1863.89050	         7.95846e+57
          1864.69680	         7.15838e+57
          1865.50310	         7.92955e+57
          1866.30940	         6.92989e+57
          1867.11570	         6.03984e+57
          1867.92200	         7.40390e+57
          1868.72830	         8.40006e+57
          1869.53460	         7.35046e+57
          1870.34090	         7.30925e+57
          1871.14720	         7.80277e+57
          1871.95350	         6.50319e+57
          1872.75980	         6.76108e+57
          1873.56610	         7.18809e+57
          1874.37240	         6.75341e+57
          1875.17870	         6.95318e+57
          1875.98500	         7.83591e+57
          1876.79130	         7.12656e+57
          1877.59760	         6.48899e+57
          1878.40390	         5.99245e+57
          1879.21020	         6.07492e+57
          1880.01650	         6.88798e+57
          1880.82280	         8.32696e+57
          1881.62910	         8.74374e+57
          1882.43540	         9.90678e+57
          1883.24170	         8.24629e+57
          1884.04800	         7.33793e+57
          1884.85430	         8.11657e+57
          1885.66060	         8.79258e+57
          1886.46690	         8.78271e+57
          1887.27320	         8.64853e+57
          1888.07950	         8.57671e+57
          1888.88580	         7.25089e+57
          1889.69210	         8.75123e+57
          1890.49840	         8.62736e+57
          1891.30470	         7.72236e+57
          1892.11100	         8.41986e+57
          1892.91730	         7.60043e+57
          1893.72360	         7.98581e+57
          1894.52990	         7.18919e+57
          1895.33620	         7.29376e+57
          1896.14250	         6.89394e+57
          1896.94880	         6.54395e+57
          1897.75510	         4.74126e+57
          1898.56140	         5.89871e+57
          1899.36770	         8.47385e+57
          1900.17400	         8.11656e+57
          1900.98030	         7.60929e+57
          1901.78660	         7.16174e+57
          1902.59290	         6.82069e+57
          1903.39920	         7.80049e+57
          1904.20550	         8.29943e+57
          1905.01180	         7.96261e+57
          1905.81810	         9.60033e+57
          1906.62440	         1.24675e+58
          1907.43070	         1.48299e+58
          1908.23700	         1.61614e+58
          1909.04330	         1.37464e+58
          1909.84960	         1.11386e+58
          1910.65590	         9.60118e+57
          1911.46220	         9.37679e+57
          1912.26850	         8.51711e+57
          1913.07480	         6.79326e+57
          1913.88110	         5.95703e+57
          1914.68740	         5.84192e+57
          1915.49370	         5.52235e+57
          1916.30000	         7.04535e+57
          1917.10630	         8.36339e+57
          1917.91260	         7.62539e+57
          1918.71890	         6.83972e+57
          1919.52520	         6.95119e+57
          1920.33150	         5.55875e+57
          1921.13780	         6.64072e+57
          1921.94410	         8.08778e+57
          1922.75040	         7.53586e+57
          1923.55670	         7.24467e+57
          1924.36300	         7.16012e+57
          1925.16930	         6.05805e+57
          1925.97560	         5.20168e+57
          1926.78190	         4.25693e+57
          1927.58820	         5.81994e+57
          1928.39450	         7.10690e+57
          1929.20080	         6.15886e+57
          1930.00710	         6.45964e+57
          1930.81340	         8.10602e+57
          1931.61970	         8.76651e+57
          1932.42600	         8.44208e+57
          1933.23230	         8.28569e+57
          1934.03860	         6.87448e+57
          1934.84490	         5.36266e+57
          1935.65120	         7.80239e+57
          1936.45750	         9.38963e+57
          1937.26380	         7.73433e+57
          1938.07010	         7.31917e+57
          1938.87640	         6.56299e+57
          1939.68270	         7.85750e+57
          1940.48900	         8.77182e+57
          1941.29530	         8.86958e+57
          1942.10160	         7.99448e+57
          1942.90790	         5.97234e+57
          1943.71420	         5.68987e+57
          1944.52050	         6.58854e+57
          1945.32680	         6.10443e+57
          1946.13310	         7.76030e+57
          1946.93940	         8.40415e+57
          1947.74570	         7.03576e+57
          1948.55200	         6.91867e+57
          1949.35830	         7.08006e+57
          1950.16460	         5.81580e+57
          1950.97090	         4.84051e+57
          1951.77720	         7.08678e+57
          1952.58350	         6.91969e+57
          1953.38980	         5.98825e+57
          1954.19610	         5.52979e+57
          1955.00240	         5.89938e+57
          1955.80870	         6.15598e+57
          1956.61500	         6.35107e+57
          1957.42130	         5.35784e+57
          1958.22760	         6.35750e+57
          1959.03390	         8.00239e+57
          1959.84020	         8.06767e+57
          1960.64650	         6.57284e+57
          1961.45280	         6.32644e+57
          1962.25910	         6.26625e+57
          1963.06540	         6.62177e+57
          1963.87170	         7.19469e+57
          1964.67800	         6.76624e+57
          1965.48430	         5.77232e+57
          1966.29060	         6.02761e+57
          1967.09690	         8.27236e+57
          1967.90320	         7.48592e+57
          1968.70950	         7.05477e+57
          1969.51580	         7.27972e+57
          1970.32210	         7.93090e+57
          1971.12840	         7.12442e+57
          1971.93470	         5.77413e+57
          1972.74100	         6.14628e+57
          1973.54730	         7.41706e+57
          1974.35360	         7.59957e+57
          1975.15990	         7.91840e+57
          1975.96620	         7.58938e+57
          1976.77250	         7.80276e+57
          1977.57880	         7.57695e+57
          1978.38510	         6.90261e+57
          1979.19140	         7.61812e+57
          1979.99770	         7.86833e+57
          1980.80400	         7.39476e+57
          1981.61030	         7.24021e+57
          1982.41660	         5.55858e+57
          1983.22290	         5.10611e+57
          1984.02920	         5.24063e+57
          1984.83550	         6.44223e+57
          1985.64180	         6.56315e+57
          1986.44810	         6.96549e+57
          1987.25440	         5.72805e+57
          1988.06070	         4.85279e+57
          1988.86700	         5.94929e+57
          1989.67330	         6.89543e+57
          1990.47960	         7.27165e+57
          1991.28590	         6.53088e+57
          1992.09220	         6.45734e+57
          1992.89850	         6.03902e+57
          1993.70480	         6.23979e+57
          1994.51110	         5.57428e+57
          1995.31740	         5.23935e+57
          1996.12370	         5.03557e+57
          1996.93000	         5.90196e+57
          1997.73630	         6.74647e+57
          1998.54260	         7.89976e+57
          1999.34890	         7.64552e+57
          2000.15520	         7.09395e+57
          2000.96150	         7.31443e+57
          2001.76780	         7.07185e+57
          2002.57410	         5.05056e+57
          2003.38040	         5.70719e+57
          2004.18670	         5.63474e+57
          2004.99300	         6.77741e+57
          2005.79930	         6.70058e+57
          2006.60560	         7.07906e+57
          2007.41190	         6.58090e+57
          2008.21820	         6.68608e+57
          2009.02450	         6.49612e+57
          2009.83080	         6.05418e+57
          2010.63710	         6.47647e+57
          2011.44340	         6.98905e+57
          2012.24970	         7.23501e+57
          2013.05600	         7.56872e+57
          2013.86230	         6.12829e+57
          2014.66860	         5.49219e+57
          2015.47490	         6.65908e+57
          2016.28120	         6.73365e+57
          2017.08750	         6.15300e+57
          2017.89380	         6.10818e+57
          2018.70010	         7.24338e+57
          2019.50640	         6.49569e+57
          2020.31270	         5.69596e+57
          2021.11900	         7.73487e+57
          2021.92530	         7.21870e+57
          2022.73160	         7.77590e+57
          2023.53790	         7.85732e+57
          2024.34420	         6.64297e+57
          2025.15050	         5.34789e+57
          2025.95680	         5.94159e+57
          2026.76310	         6.40288e+57
          2027.56940	         5.46940e+57
          2028.37570	         5.66812e+57
          2029.18200	         6.55994e+57
          2029.98830	         5.72271e+57
          2030.79460	         6.87797e+57
          2031.60090	         7.37263e+57
          2032.40720	         5.77896e+57
          2033.21350	         5.67592e+57
          2034.01980	         6.84394e+57
          2034.82610	         5.15887e+57
          2035.63240	         4.49174e+57
          2036.43870	         5.23302e+57
          2037.24500	         5.64911e+57
          2038.05130	         6.73093e+57
          2038.85760	         6.33144e+57
          2039.66390	         5.59194e+57
          2040.47020	         6.09726e+57
          2041.27650	         7.15757e+57
          2042.08280	         6.32832e+57
          2042.88910	         6.15147e+57
          2043.69540	         6.49791e+57
          2044.50170	         7.19303e+57
          2045.30800	         4.71043e+57
          2046.11430	         2.96078e+57
          2046.92060	         5.26787e+57
          2047.72690	         7.03390e+57
          2048.53320	         5.44054e+57
          2049.33950	         4.79358e+57
          2050.14580	         5.61247e+57
          2050.95210	         6.66799e+57
          2051.75840	         7.20780e+57
          2052.56470	         6.97725e+57
          2053.37100	         4.70063e+57
          2054.17730	         5.04720e+57
          2054.98360	         5.24608e+57
          2055.78990	         4.00407e+57
          2056.59620	         4.18392e+57
          2057.40250	         5.88729e+57
          2058.20880	         7.07714e+57
          2059.01510	         5.72556e+57
          2059.82140	         6.73958e+57
          2060.62770	         9.21175e+57
          2061.43400	         1.63078e+58
          2062.24030	         1.54547e+58
          2063.04660	         3.89789e+57
          2063.85290	         2.50584e+57
          2064.65920	        -2.60594e+57
          2065.46550	        -8.81570e+57
          2066.27180	        -8.80001e+57
          2067.07810	         3.04097e+57
          2067.88440	         5.71465e+57
          2068.69070	         5.98739e+57
          2069.49700	         5.01930e+57
          2070.30330	         6.39098e+57
          2071.10960	         6.01231e+57
          2071.91590	         6.31021e+57
          2072.72220	         4.04382e+57
          2073.52850	         5.16334e+57
          2074.33480	         4.14435e+57
          2075.14110	         4.28407e+57
          2075.94740	         5.51503e+57
          2076.75370	         4.84218e+57
          2077.56000	         5.44652e+57
          2078.36630	         4.94531e+57
          2079.17260	         5.84143e+57
          2079.97890	         6.31848e+57
          2080.78520	         4.13047e+57
          2081.59150	         6.10414e+57
          2082.39780	         4.05450e+57
          2083.20410	         3.13443e+57
          2084.01040	         3.45370e+57
          2084.81670	         3.98062e+57
          2085.62300	         4.50476e+57
          2086.42930	         3.56711e+57
          2087.23560	         2.65869e+57
          2088.04190	         3.44067e+57
          2088.84820	         4.02276e+57
          2089.65450	         1.76394e+57
          2090.46080	         1.31329e+57
          2091.26710	         1.26440e+57
          2092.07340	         2.17174e+57
          2092.87970	         1.34111e+57
          2093.68600	        -6.17030e+55
          2094.49230	         1.16303e+57
          2095.29860	         5.48884e+57
          2096.10490	         4.37670e+57
          2096.91120	         6.09986e+55
          2097.71750	        -6.47774e+56
          2098.52380	        -1.70051e+56
          2099.33010	         1.87886e+57
          2100.13640	         1.36680e+57
          2100.94270	         1.78893e+57
          2101.74900	         2.80428e+57
          2102.55530	         1.40605e+57
          2103.36160	         2.50163e+57
          2104.16790	         3.59189e+57
          2104.97420	         1.45844e+57
          2105.78050	        -3.40326e+55
          2106.58680	        -4.05631e+56
          2107.39310	         1.77562e+56
          2108.19940	         1.46704e+57
          2109.00570	        -8.30644e+56
          2109.81200	        -6.00568e+56
          2110.61830	         8.25916e+56
          2111.42460	        -2.31497e+56
          2112.23090	        -2.13309e+57
          2113.03720	        -2.43864e+57
          2113.84350	        -9.71354e+56
          2114.64980	         2.68022e+57
          2115.45610	        -5.30444e+56
          2116.26240	        -4.91411e+57
          2117.06870	        -4.48164e+57
          2117.87500	        -2.98986e+57
          2118.68130	        -9.63410e+56
          2119.48760	         1.84880e+57
          2120.29390	         3.00497e+57
          2121.10020	         2.38930e+55
          2121.90650	         1.92198e+57
          2122.71280	         4.21338e+57
          2123.51910	         6.10055e+57
          2124.32540	         1.15183e+57
          2125.13170	        -9.42737e+55
          2125.93800	         2.34710e+57
          2126.74430	        -6.05255e+57
          2127.55060	        -7.93067e+57
          2128.35690	        -9.53598e+56
          2129.16320	        -5.94373e+56
          2129.96950	        -5.33800e+57
          2130.77580	        -3.72560e+57
          2131.58210	        -2.76626e+57
          2132.38840	        -1.73925e+57
          2133.19470	        -2.70545e+56
          2134.00100	        -1.15051e+57
          2134.80730	         1.19556e+57
          2135.61360	         1.09969e+58
          2136.41990	         2.85875e+57
          2137.22620	         6.35796e+57
          2138.03250	         6.01329e+57
          2138.83880	        -1.60132e+57
          2139.64510	        -5.34066e+57
          2140.45140	        -9.78265e+56
          2141.25770	        -4.22449e+57
          2142.06400	        -5.58300e+57
          2142.87030	         2.29040e+57
          2143.67660	         2.44799e+57
          2144.48290	        -1.03724e+58
          2145.28920	         2.80276e+57
          2146.09550	        -1.15668e+57
          2146.90180	        -8.22137e+57
          2147.70810	        -1.98828e+56
          2148.51440	        -3.75701e+57
          2149.32070	        -1.47208e+58
          2150.12700	        -1.42603e+58
          2150.93330	         1.23036e+57
          2151.73960	         3.38907e+56
          2152.54590	        -8.88518e+57
          2153.35220	        -8.69491e+57
          2154.15850	        -4.76041e+57
          2154.96480	        -5.67031e+55
          2155.77110	        -1.31469e+58
          2156.57740	        -1.03603e+58
          2157.38370	         1.43836e+57
          2158.19000	        -1.68000e+56
          2158.99630	        -9.60988e+57
          2159.80260	        -1.22051e+58
          2160.60890	        -8.59247e+57
          2161.41520	        -1.70022e+57
          2162.22150	        -7.09478e+57
          2163.02780	        -1.75663e+57
          2163.83410	        -3.21319e+57
          2164.64040	        -1.56685e+58
          2165.44670	        -1.35840e+58
          2166.25300	        -1.06116e+58
          2167.05930	        -3.08948e+57
          2167.86560	        -7.92765e+57
          2168.67190	        -1.01392e+58
          2169.47820	        -5.03361e+57
          2170.28450	        -8.72634e+57
          2171.09080	        -3.67836e+57
          2171.89710	         1.01646e+58
          2172.70340	         7.01700e+57
          2173.50970	        -4.34298e+57
          2174.31600	        -3.23595e+57
          2175.12230	         9.45980e+56
          2175.92860	        -2.28342e+57
          2176.73490	        -4.41752e+57
          2177.54120	        -5.43713e+57
          2178.34750	        -4.10613e+57
          2179.15380	                 nan
          2179.96010	                 nan
          2180.76640	                 nan
          2181.57270	                 nan
          2182.37900	                 nan
          2183.18530	                 nan
          2183.99160	                 nan
          2184.79790	                 nan
          2185.60420	                 nan
          2186.41050	                 nan
          2187.21680	                 nan
          2188.02310	                 nan
          2188.82940	                 nan
          2189.63570	                 nan
          2190.44200	                 nan
          2191.24830	                 nan
          2192.05460	                 nan
          2192.86090	                 nan
          2193.66720	                 nan
          2194.47350	                 nan
          2195.27980	                 nan
          2196.08610	                 nan
          2196.89240	                 nan
          2197.69870	                 nan
          2198.50500	                 nan
          2199.31130	                 nan
          2200.11760	                 nan
          2200.92390	                 nan
          2201.73020	                 nan
          2202.53650	                 nan
          2203.34280	                 nan
          2204.14910	                 nan
          2204.95540	                 nan
          2205.76170	                 nan
          2206.56800	                 nan
          2207.37430	                 nan
          2208.18060	                 nan
          2208.98690	                 nan
          2209.79320	                 nan
          2210.59950	                 nan
          2211.40580	                 nan
          2212.21210	                 nan
          2213.01840	                 nan
          2213.82470	                 nan
          2214.63100	                 nan
          2215.43730	         0.00000e+00
