#sample_356_stacked_spectrum_rest_UV-bands_median_H-alpha_noDC.txt
#median Lum: 1.70165e+42
#Rest-frame wavelength (A) | Luminosity (erg/s/A)
#
          1110.00000	         0.00000e+00
          1110.80630	         5.38939e+58
          1111.61260	         1.48195e+59
          1112.41890	         1.11846e+59
          1113.22520	        -7.63304e+57
          1114.03150	        -2.19126e+59
          1114.83780	         2.33434e+59
          1115.64410	         1.65247e+59
          1116.45040	        -8.93740e+58
          1117.25670	         4.83226e+58
          1118.06300	         1.22732e+59
          1118.86930	        -8.01879e+58
          1119.67560	        -3.11724e+58
          1120.48190	        -5.28118e+58
          1121.28820	        -7.85449e+58
          1122.09450	         4.71811e+58
          1122.90080	         3.59282e+58
          1123.70710	         6.60137e+58
          1124.51340	         9.04054e+58
          1125.31970	         2.45050e+58
          1126.12600	        -9.38372e+57
          1126.93230	         9.42740e+57
          1127.73860	        -6.68888e+58
          1128.54490	        -1.65096e+58
          1129.35120	         3.31070e+58
          1130.15750	         1.45213e+58
          1130.96380	         1.81633e+58
          1131.77010	         5.94177e+58
          1132.57640	         3.43401e+58
          1133.38270	         1.74908e+58
          1134.18900	         1.58155e+58
          1134.99530	         2.32985e+58
          1135.80160	         1.08320e+58
          1136.60790	         1.98224e+58
          1137.41420	         2.65191e+58
          1138.22050	         5.31591e+58
          1139.02680	         5.14550e+58
          1139.83310	         3.31322e+58
          1140.63940	         3.15148e+58
          1141.44570	        -2.87631e+58
          1142.25200	        -2.74245e+58
          1143.05830	         1.20194e+58
          1143.86460	         3.01073e+58
          1144.67090	         9.21242e+57
          1145.47720	         2.68905e+57
          1146.28350	         1.35329e+58
          1147.08980	         1.23388e+58
          1147.89610	         1.62106e+58
          1148.70240	         2.27803e+58
          1149.50870	         2.56250e+58
          1150.31500	         8.46847e+57
          1151.12130	         4.73817e+57
          1151.92760	         5.02029e+57
          1152.73390	         7.33794e+57
          1153.54020	         5.58773e+57
          1154.34650	         1.90406e+58
          1155.15280	         1.76752e+58
          1155.95910	         5.96777e+57
          1156.76540	         6.53265e+57
          1157.57170	        -6.48045e+57
          1158.37800	         6.78392e+57
          1159.18430	         2.78809e+57
          1159.99060	         9.81711e+57
          1160.79690	         1.28541e+58
          1161.60320	         1.94959e+58
          1162.40950	         1.59482e+58
          1163.21580	         1.85861e+58
          1164.02210	         1.18995e+58
          1164.82840	         1.08111e+58
          1165.63470	         2.40577e+58
          1166.44100	         3.12669e+58
          1167.24730	         2.12561e+58
          1168.05360	         1.70816e+58
          1168.85990	         1.15913e+58
          1169.66620	         1.12207e+58
          1170.47250	         9.23081e+57
          1171.27880	         3.66224e+57
          1172.08510	         6.91022e+57
          1172.89140	         5.26627e+57
          1173.69770	         6.40637e+57
          1174.50400	         7.64467e+57
          1175.31030	         1.53685e+58
          1176.11660	         1.71544e+58
          1176.92290	         1.12487e+58
          1177.72920	         1.26632e+58
          1178.53550	         6.51625e+57
          1179.34180	         4.19921e+57
          1180.14810	         5.19751e+57
          1180.95440	         6.74718e+57
          1181.76070	         6.13067e+57
          1182.56700	         4.19002e+57
          1183.37330	         8.20013e+57
          1184.17960	         1.89665e+58
          1184.98590	         1.11736e+58
          1185.79220	         5.87263e+57
          1186.59850	         9.27548e+57
          1187.40480	         7.88023e+57
          1188.21110	         1.25198e+58
          1189.01740	         7.86606e+57
          1189.82370	         8.53316e+57
          1190.63000	         1.24500e+58
          1191.43630	         1.77726e+58
          1192.24260	         1.04939e+58
          1193.04890	         9.47856e+57
          1193.85520	         1.27175e+58
          1194.66150	         4.20025e+57
          1195.46780	         9.18430e+57
          1196.27410	         1.32075e+58
          1197.08040	         5.92466e+57
          1197.88670	         1.26586e+58
          1198.69300	         1.90254e+58
          1199.49930	         1.98091e+58
          1200.30560	         1.13351e+58
          1201.11190	         1.00496e+58
          1201.91820	         7.70354e+57
          1202.72450	         1.18074e+58
          1203.53080	         1.99968e+58
          1204.33710	         1.18766e+58
          1205.14340	         1.10601e+58
          1205.94970	         8.99528e+57
          1206.75600	         4.62575e+57
          1207.56230	         4.15764e+57
          1208.36860	         6.54866e+57
          1209.17490	         4.66563e+57
          1209.98120	         6.45254e+57
          1210.78750	         5.99021e+57
          1211.59380	         9.75776e+57
          1212.40010	         1.88556e+58
          1213.20640	         2.04363e+58
          1214.01270	         2.16083e+58
          1214.81900	         2.40407e+58
          1215.62530	         4.30064e+58
          1216.43160	         8.76779e+58
          1217.23790	         1.53576e+59
          1218.04420	         1.19543e+59
          1218.85050	         8.72951e+58
          1219.65680	         6.10959e+58
          1220.46310	         3.66990e+58
          1221.26940	         2.25135e+58
          1222.07570	         1.40192e+58
          1222.88200	         1.10488e+58
          1223.68830	         9.36456e+57
          1224.49460	         5.96384e+57
          1225.30090	         4.72281e+57
          1226.10720	         4.64516e+57
          1226.91350	         4.87167e+57
          1227.71980	         7.25345e+57
          1228.52610	         1.35522e+58
          1229.33240	         8.37021e+57
          1230.13870	         7.82317e+57
          1230.94500	         8.15214e+57
          1231.75130	         5.36733e+57
          1232.55760	         8.15867e+57
          1233.36390	         8.73522e+57
          1234.17020	         1.05266e+58
          1234.97650	         7.36314e+57
          1235.78280	         8.49182e+57
          1236.58910	         9.15659e+57
          1237.39540	         7.52896e+57
          1238.20170	         8.61033e+57
          1239.00800	         1.19578e+58
          1239.81430	         1.62727e+58
          1240.62060	         1.32596e+58
          1241.42690	         1.02256e+58
          1242.23320	         1.30808e+58
          1243.03950	         8.80047e+57
          1243.84580	         8.01841e+57
          1244.65210	         1.02391e+58
          1245.45840	         9.54855e+57
          1246.26470	         7.71082e+57
          1247.07100	         6.36140e+57
          1247.87730	         8.17099e+57
          1248.68360	         6.19857e+57
          1249.48990	         7.76268e+57
          1250.29620	         9.43468e+57
          1251.10250	         7.97426e+57
          1251.90880	         6.17825e+57
          1252.71510	         7.05123e+57
          1253.52140	         7.16420e+57
          1254.32770	         8.80456e+57
          1255.13400	         1.04911e+58
          1255.94030	         1.03794e+58
          1256.74660	         1.11357e+58
          1257.55290	         1.24798e+58
          1258.35920	         1.11537e+58
          1259.16550	         6.70812e+57
          1259.97180	         5.46318e+57
          1260.77810	         8.91656e+57
          1261.58440	         1.25155e+58
          1262.39070	         9.41583e+57
          1263.19700	         7.61372e+57
          1264.00330	         9.07613e+57
          1264.80960	         1.18398e+58
          1265.61590	         1.36182e+58
          1266.42220	         1.15109e+58
          1267.22850	         1.13279e+58
          1268.03480	         1.47756e+58
          1268.84110	         1.49571e+58
          1269.64740	         1.34705e+58
          1270.45370	         1.53338e+58
          1271.26000	         1.38338e+58
          1272.06630	         1.28536e+58
          1272.87260	         1.23639e+58
          1273.67890	         1.25720e+58
          1274.48520	         1.25272e+58
          1275.29150	         1.03800e+58
          1276.09780	         1.03482e+58
          1276.90410	         1.33141e+58
          1277.71040	         1.25623e+58
          1278.51670	         1.06136e+58
          1279.32300	         1.19370e+58
          1280.12930	         1.10134e+58
          1280.93560	         1.06777e+58
          1281.74190	         1.25156e+58
          1282.54820	         1.26485e+58
          1283.35450	         1.05521e+58
          1284.16080	         1.06801e+58
          1284.96710	         1.32358e+58
          1285.77340	         1.18974e+58
          1286.57970	         1.03265e+58
          1287.38600	         1.40746e+58
          1288.19230	         1.94625e+58
          1288.99860	         1.79134e+58
          1289.80490	         1.23957e+58
          1290.61120	         1.33139e+58
          1291.41750	         1.52807e+58
          1292.22380	         1.36541e+58
          1293.03010	         1.07047e+58
          1293.83640	         1.15816e+58
          1294.64270	         1.00554e+58
          1295.44900	         5.74970e+57
          1296.25530	         8.27241e+57
          1297.06160	         9.08219e+57
          1297.86790	         8.63362e+57
          1298.67420	         8.90130e+57
          1299.48050	         9.95128e+57
          1300.28680	         1.08959e+58
          1301.09310	         8.93037e+57
          1301.89940	         5.07638e+57
          1302.70570	         6.21556e+57
          1303.51200	         7.60475e+57
          1304.31830	         8.63189e+57
          1305.12460	         9.77717e+57
          1305.93090	         1.15128e+58
          1306.73720	         1.17474e+58
          1307.54350	         1.34402e+58
          1308.34980	         1.51555e+58
          1309.15610	         1.65996e+58
          1309.96240	         1.59475e+58
          1310.76870	         1.39508e+58
          1311.57500	         1.11006e+58
          1312.38130	         1.06855e+58
          1313.18760	         1.26789e+58
          1313.99390	         1.23181e+58
          1314.80020	         1.33378e+58
          1315.60650	         1.51648e+58
          1316.41280	         1.37397e+58
          1317.21910	         1.07866e+58
          1318.02540	         1.10743e+58
          1318.83170	         1.28989e+58
          1319.63800	         1.24362e+58
          1320.44430	         1.18712e+58
          1321.25060	         1.32810e+58
          1322.05690	         1.30590e+58
          1322.86320	         1.27651e+58
          1323.66950	         1.14946e+58
          1324.47580	         8.13809e+57
          1325.28210	         9.62935e+57
          1326.08840	         1.26469e+58
          1326.89470	         1.24704e+58
          1327.70100	         1.08771e+58
          1328.50730	         8.18954e+57
          1329.31360	         8.63285e+57
          1330.11990	         1.03533e+58
          1330.92620	         9.52172e+57
          1331.73250	         1.02664e+58
          1332.53880	         9.70547e+57
          1333.34510	         8.16009e+57
          1334.15140	         8.26948e+57
          1334.95770	         9.01254e+57
          1335.76400	         1.06388e+58
          1336.57030	         1.11004e+58
          1337.37660	         1.07881e+58
          1338.18290	         1.08705e+58
          1338.98920	         1.15488e+58
          1339.79550	         1.20448e+58
          1340.60180	         1.46676e+58
          1341.40810	         1.51038e+58
          1342.21440	         1.28514e+58
          1343.02070	         1.29019e+58
          1343.82700	         1.23484e+58
          1344.63330	         1.25879e+58
          1345.43960	         1.47755e+58
          1346.24590	         1.07499e+58
          1347.05220	         1.09873e+58
          1347.85850	         1.07062e+58
          1348.66480	         1.14588e+58
          1349.47110	         1.23472e+58
          1350.27740	         1.11194e+58
          1351.08370	         1.01689e+58
          1351.89000	         1.07093e+58
          1352.69630	         1.19435e+58
          1353.50260	         1.14299e+58
          1354.30890	         1.21287e+58
          1355.11520	         1.25785e+58
          1355.92150	         1.17638e+58
          1356.72780	         1.06076e+58
          1357.53410	         1.05768e+58
          1358.34040	         1.02896e+58
          1359.14670	         1.07386e+58
          1359.95300	         1.15657e+58
          1360.75930	         1.04852e+58
          1361.56560	         8.83137e+57
          1362.37190	         9.08914e+57
          1363.17820	         8.71785e+57
          1363.98450	         1.11981e+58
          1364.79080	         1.34246e+58
          1365.59710	         1.44663e+58
          1366.40340	         1.23108e+58
          1367.20970	         9.02246e+57
          1368.01600	         9.79175e+57
          1368.82230	         1.10897e+58
          1369.62860	         1.28146e+58
          1370.43490	         1.13716e+58
          1371.24120	         9.39209e+57
          1372.04750	         8.35299e+57
          1372.85380	         1.04421e+58
          1373.66010	         1.09861e+58
          1374.46640	         9.63623e+57
          1375.27270	         9.08227e+57
          1376.07900	         8.40674e+57
          1376.88530	         8.31708e+57
          1377.69160	         8.92583e+57
          1378.49790	         7.36673e+57
          1379.30420	         6.29217e+57
          1380.11050	         9.67976e+57
          1380.91680	         1.02062e+58
          1381.72310	         8.02899e+57
          1382.52940	         8.53570e+57
          1383.33570	         7.67577e+57
          1384.14200	         7.59093e+57
          1384.94830	         9.07475e+57
          1385.75460	         1.08597e+58
          1386.56090	         1.19485e+58
          1387.36720	         1.02609e+58
          1388.17350	         1.10187e+58
          1388.97980	         1.12463e+58
          1389.78610	         9.01421e+57
          1390.59240	         7.42616e+57
          1391.39870	         7.47934e+57
          1392.20500	         8.47700e+57
          1393.01130	         7.68567e+57
          1393.81760	         5.69722e+57
          1394.62390	         5.37126e+57
          1395.43020	         6.18043e+57
          1396.23650	         6.03140e+57
          1397.04280	         6.74984e+57
          1397.84910	         8.88147e+57
          1398.65540	         9.31146e+57
          1399.46170	         1.07573e+58
          1400.26800	         8.50886e+57
          1401.07430	         6.17065e+57
          1401.88060	         7.45621e+57
          1402.68690	         8.97851e+57
          1403.49320	         8.59613e+57
          1404.29950	         8.60149e+57
          1405.10580	         1.03155e+58
          1405.91210	         1.07750e+58
          1406.71840	         1.12345e+58
          1407.52470	         1.18566e+58
          1408.33100	         1.05124e+58
          1409.13730	         1.17793e+58
          1409.94360	         1.31844e+58
          1410.74990	         1.30562e+58
          1411.55620	         1.05162e+58
          1412.36250	         9.51999e+57
          1413.16880	         9.88497e+57
          1413.97510	         9.52233e+57
          1414.78140	         9.59999e+57
          1415.58770	         1.07577e+58
          1416.39400	         1.01006e+58
          1417.20030	         1.02289e+58
          1418.00660	         9.03929e+57
          1418.81290	         1.03452e+58
          1419.61920	         1.09308e+58
          1420.42550	         1.20882e+58
          1421.23180	         1.42459e+58
          1422.03810	         1.26348e+58
          1422.84440	         1.13732e+58
          1423.65070	         1.27939e+58
          1424.45700	         1.12828e+58
          1425.26330	         7.88883e+57
          1426.06960	         7.98486e+57
          1426.87590	         1.04647e+58
          1427.68220	         1.01726e+58
          1428.48850	         1.01878e+58
          1429.29480	         9.54843e+57
          1430.10110	         9.05506e+57
          1430.90740	         8.13255e+57
          1431.71370	         8.37869e+57
          1432.52000	         9.23401e+57
          1433.32630	         7.42509e+57
          1434.13260	         7.08378e+57
          1434.93890	         7.88979e+57
          1435.74520	         8.52557e+57
          1436.55150	         9.04117e+57
          1437.35780	         8.97202e+57
          1438.16410	         9.48516e+57
          1438.97040	         8.23309e+57
          1439.77670	         8.61323e+57
          1440.58300	         9.08389e+57
          1441.38930	         9.12380e+57
          1442.19560	         9.10735e+57
          1443.00190	         1.02708e+58
          1443.80820	         1.15178e+58
          1444.61450	         9.76810e+57
          1445.42080	         7.85029e+57
          1446.22710	         8.90173e+57
          1447.03340	         8.48347e+57
          1447.83970	         9.86606e+57
          1448.64600	         1.05531e+58
          1449.45230	         1.03836e+58
          1450.25860	         1.07611e+58
          1451.06490	         9.15029e+57
          1451.87120	         8.65763e+57
          1452.67750	         7.29301e+57
          1453.48380	         7.06280e+57
          1454.29010	         7.26818e+57
          1455.09640	         7.52966e+57
          1455.90270	         9.70218e+57
          1456.70900	         9.94869e+57
          1457.51530	         1.04522e+58
          1458.32160	         1.34101e+58
          1459.12790	         1.19455e+58
          1459.93420	         9.78017e+57
          1460.74050	         8.36224e+57
          1461.54680	         9.54256e+57
          1462.35310	         8.24453e+57
          1463.15940	         8.50716e+57
          1463.96570	         1.13779e+58
          1464.77200	         1.15869e+58
          1465.57830	         1.06908e+58
          1466.38460	         9.39524e+57
          1467.19090	         7.72309e+57
          1467.99720	         9.06158e+57
          1468.80350	         9.77390e+57
          1469.60980	         1.02032e+58
          1470.41610	         1.04413e+58
          1471.22240	         1.03581e+58
          1472.02870	         9.70349e+57
          1472.83500	         9.55141e+57
          1473.64130	         1.01561e+58
          1474.44760	         1.10357e+58
          1475.25390	         1.00721e+58
          1476.06020	         8.22282e+57
          1476.86650	         8.09595e+57
          1477.67280	         6.95505e+57
          1478.47910	         6.51067e+57
          1479.28540	         6.13056e+57
          1480.09170	         7.73084e+57
          1480.89800	         9.12517e+57
          1481.70430	         8.78385e+57
          1482.51060	         8.36569e+57
          1483.31690	         8.02462e+57
          1484.12320	         7.86931e+57
          1484.92950	         7.27062e+57
          1485.73580	         7.98193e+57
          1486.54210	         8.19621e+57
          1487.34840	         8.39257e+57
          1488.15470	         8.66248e+57
          1488.96100	         7.79236e+57
          1489.76730	         8.79955e+57
          1490.57360	         8.77734e+57
          1491.37990	         7.84683e+57
          1492.18620	         8.49612e+57
          1492.99250	         8.28624e+57
          1493.79880	         7.62144e+57
          1494.60510	         7.91313e+57
          1495.41140	         7.78403e+57
          1496.21770	         8.23543e+57
          1497.02400	         9.80560e+57
          1497.83030	         8.25504e+57
          1498.63660	         6.98169e+57
          1499.44290	         6.98477e+57
          1500.24920	         7.57966e+57
          1501.05550	         7.79465e+57
          1501.86180	         7.66927e+57
          1502.66810	         7.63124e+57
          1503.47440	         8.20335e+57
          1504.28070	         8.11412e+57
          1505.08700	         8.45762e+57
          1505.89330	         9.20786e+57
          1506.69960	         9.71534e+57
          1507.50590	         8.69216e+57
          1508.31220	         8.52206e+57
          1509.11850	         8.84727e+57
          1509.92480	         1.00398e+58
          1510.73110	         9.50486e+57
          1511.53740	         7.30602e+57
          1512.34370	         7.44186e+57
          1513.15000	         7.81425e+57
          1513.95630	         8.31998e+57
          1514.76260	         8.74725e+57
          1515.56890	         8.60113e+57
          1516.37520	         8.76103e+57
          1517.18150	         8.67578e+57
          1517.98780	         7.77614e+57
          1518.79410	         7.60399e+57
          1519.60040	         7.88483e+57
          1520.40670	         9.23027e+57
          1521.21300	         9.87308e+57
          1522.01930	         8.26526e+57
          1522.82560	         8.67548e+57
          1523.63190	         1.01675e+58
          1524.43820	         8.83728e+57
          1525.24450	         6.04786e+57
          1526.05080	         5.26111e+57
          1526.85710	         6.11831e+57
          1527.66340	         7.24861e+57
          1528.46970	         8.34640e+57
          1529.27600	         7.70242e+57
          1530.08230	         7.54447e+57
          1530.88860	         8.74061e+57
          1531.69490	         9.45767e+57
          1532.50120	         9.05917e+57
          1533.30750	         9.87392e+57
          1534.11380	         9.10044e+57
          1534.92010	         9.32202e+57
          1535.72640	         9.71388e+57
          1536.53270	         9.60994e+57
          1537.33900	         8.88082e+57
          1538.14530	         9.43785e+57
          1538.95160	         8.96661e+57
          1539.75790	         9.05475e+57
          1540.56420	         9.14279e+57
          1541.37050	         8.04251e+57
          1542.17680	         6.59564e+57
          1542.98310	         6.87275e+57
          1543.78940	         8.10490e+57
          1544.59570	         7.63603e+57
          1545.40200	         7.95216e+57
          1546.20830	         9.09660e+57
          1547.01460	         1.03005e+58
          1547.82090	         1.09646e+58
          1548.62720	         1.25863e+58
          1549.43350	         1.22417e+58
          1550.23980	         1.07485e+58
          1551.04610	         1.21976e+58
          1551.85240	         1.19749e+58
          1552.65870	         1.14981e+58
          1553.46500	         1.06235e+58
          1554.27130	         9.82367e+57
          1555.07760	         9.47747e+57
          1555.88390	         9.33123e+57
          1556.69020	         9.12740e+57
          1557.49650	         9.36512e+57
          1558.30280	         8.58654e+57
          1559.10910	         8.17318e+57
          1559.91540	         8.78598e+57
          1560.72170	         8.66760e+57
          1561.52800	         7.91464e+57
          1562.33430	         8.51242e+57
          1563.14060	         8.28086e+57
          1563.94690	         7.68793e+57
          1564.75320	         7.55702e+57
          1565.55950	         6.59183e+57
          1566.36580	         7.27405e+57
          1567.17210	         8.91343e+57
          1567.97840	         9.29920e+57
          1568.78470	         8.38911e+57
          1569.59100	         9.18470e+57
          1570.39730	         8.56765e+57
          1571.20360	         7.02151e+57
          1572.00990	         7.50697e+57
          1572.81620	         8.75008e+57
          1573.62250	         1.01037e+58
          1574.42880	         9.44597e+57
          1575.23510	         8.16704e+57
          1576.04140	         9.74567e+57
          1576.84770	         9.35875e+57
          1577.65400	         9.39403e+57
          1578.46030	         1.03779e+58
          1579.26660	         1.01259e+58
          1580.07290	         9.32918e+57
          1580.87920	         6.97230e+57
          1581.68550	         6.86484e+57
          1582.49180	         7.89347e+57
          1583.29810	         7.11177e+57
          1584.10440	         7.96568e+57
          1584.91070	         8.24115e+57
          1585.71700	         8.31917e+57
          1586.52330	         8.79851e+57
          1587.32960	         8.16650e+57
          1588.13590	         8.37640e+57
          1588.94220	         8.34788e+57
          1589.74850	         8.19485e+57
          1590.55480	         8.87774e+57
          1591.36110	         8.27887e+57
          1592.16740	         7.77431e+57
          1592.97370	         8.00721e+57
          1593.78000	         8.47058e+57
          1594.58630	         8.93281e+57
          1595.39260	         9.25232e+57
          1596.19890	         9.52842e+57
          1597.00520	         9.24280e+57
          1597.81150	         8.04860e+57
          1598.61780	         6.88047e+57
          1599.42410	         6.94589e+57
          1600.23040	         7.38390e+57
          1601.03670	         8.35435e+57
          1601.84300	         7.24014e+57
          1602.64930	         7.67684e+57
          1603.45560	         8.85601e+57
          1604.26190	         8.74010e+57
          1605.06820	         7.67692e+57
          1605.87450	         6.63750e+57
          1606.68080	         7.29291e+57
          1607.48710	         6.56905e+57
          1608.29340	         5.97920e+57
          1609.09970	         6.53277e+57
          1609.90600	         7.28140e+57
          1610.71230	         7.42343e+57
          1611.51860	         6.79635e+57
          1612.32490	         6.21750e+57
          1613.13120	         8.00526e+57
          1613.93750	         8.54735e+57
          1614.74380	         8.46098e+57
          1615.55010	         8.03324e+57
          1616.35640	         8.24007e+57
          1617.16270	         8.43448e+57
          1617.96900	         9.66081e+57
          1618.77530	         8.47183e+57
          1619.58160	         8.50566e+57
          1620.38790	         7.95295e+57
          1621.19420	         9.09990e+57
          1622.00050	         8.65091e+57
          1622.80680	         7.80159e+57
          1623.61310	         8.52069e+57
          1624.41940	         8.72227e+57
          1625.22570	         9.30076e+57
          1626.03200	         8.93390e+57
          1626.83830	         7.90452e+57
          1627.64460	         7.13415e+57
          1628.45090	         7.05272e+57
          1629.25720	         9.32585e+57
          1630.06350	         1.02015e+58
          1630.86980	         7.72024e+57
          1631.67610	         7.53370e+57
          1632.48240	         7.53895e+57
          1633.28870	         7.85499e+57
          1634.09500	         8.62276e+57
          1634.90130	         1.10860e+58
          1635.70760	         8.59505e+57
          1636.51390	         6.74162e+57
          1637.32020	         6.30268e+57
          1638.12650	         8.30767e+57
          1638.93280	         9.42327e+57
          1639.73910	         1.06335e+58
          1640.54540	         1.12766e+58
          1641.35170	         1.00415e+58
          1642.15800	         9.74591e+57
          1642.96430	         9.47469e+57
          1643.77060	         9.70323e+57
          1644.57690	         6.99290e+57
          1645.38320	         6.73194e+57
          1646.18950	         7.02748e+57
          1646.99580	         8.82382e+57
          1647.80210	         8.01650e+57
          1648.60840	         7.01054e+57
          1649.41470	         8.84262e+57
          1650.22100	         7.47778e+57
          1651.02730	         6.99771e+57
          1651.83360	         7.22060e+57
          1652.63990	         8.20310e+57
          1653.44620	         9.32262e+57
          1654.25250	         7.52041e+57
          1655.05880	         7.66537e+57
          1655.86510	         8.04510e+57
          1656.67140	         7.87089e+57
          1657.47770	         7.93170e+57
          1658.28400	         7.79101e+57
          1659.09030	         8.52649e+57
          1659.89660	         8.71872e+57
          1660.70290	         9.07078e+57
          1661.50920	         9.13129e+57
          1662.31550	         7.69115e+57
          1663.12180	         7.21230e+57
          1663.92810	         9.35991e+57
          1664.73440	         1.14678e+58
          1665.54070	         1.25496e+58
          1666.34700	         1.18703e+58
          1667.15330	         1.08638e+58
          1667.95960	         9.39601e+57
          1668.76590	         7.91622e+57
          1669.57220	         7.52555e+57
          1670.37850	         7.69670e+57
          1671.18480	         8.24537e+57
          1671.99110	         8.44875e+57
          1672.79740	         7.15928e+57
          1673.60370	         6.88897e+57
          1674.41000	         7.62339e+57
          1675.21630	         6.66369e+57
          1676.02260	         6.54089e+57
          1676.82890	         6.65461e+57
          1677.63520	         6.09882e+57
          1678.44150	         6.39096e+57
          1679.24780	         7.82352e+57
          1680.05410	         7.14317e+57
          1680.86040	         5.54822e+57
          1681.66670	         6.43091e+57
          1682.47300	         8.27362e+57
          1683.27930	         8.51227e+57
          1684.08560	         8.51798e+57
          1684.89190	         7.47564e+57
          1685.69820	         4.99057e+57
          1686.50450	         4.96763e+57
          1687.31080	         6.35250e+57
          1688.11710	         7.55875e+57
          1688.92340	         7.24949e+57
          1689.72970	         6.16459e+57
          1690.53600	         6.61813e+57
          1691.34230	         7.21037e+57
          1692.14860	         7.95764e+57
          1692.95490	         8.09750e+57
          1693.76120	         7.96039e+57
          1694.56750	         7.98616e+57
          1695.37380	         8.62456e+57
          1696.18010	         8.31499e+57
          1696.98640	         9.48635e+57
          1697.79270	         9.12056e+57
          1698.59900	         8.25308e+57
          1699.40530	         7.15789e+57
          1700.21160	         6.96694e+57
          1701.01790	         7.66161e+57
          1701.82420	         6.74229e+57
          1702.63050	         6.24098e+57
          1703.43680	         8.47164e+57
          1704.24310	         8.53360e+57
          1705.04940	         7.37308e+57
          1705.85570	         7.48508e+57
          1706.66200	         7.77345e+57
          1707.46830	         8.20550e+57
          1708.27460	         8.11140e+57
          1709.08090	         6.53489e+57
          1709.88720	         6.21179e+57
          1710.69350	         6.19080e+57
          1711.49980	         5.18990e+57
          1712.30610	         6.95516e+57
          1713.11240	         7.83593e+57
          1713.91870	         6.83975e+57
          1714.72500	         8.25211e+57
          1715.53130	         8.58875e+57
          1716.33760	         6.65486e+57
          1717.14390	         5.53043e+57
          1717.95020	         6.87207e+57
          1718.75650	         8.06968e+57
          1719.56280	         7.75321e+57
          1720.36910	         6.88652e+57
          1721.17540	         6.75249e+57
          1721.98170	         7.00972e+57
          1722.78800	         6.49505e+57
          1723.59430	         5.95175e+57
          1724.40060	         6.56892e+57
          1725.20690	         7.99689e+57
          1726.01320	         8.67699e+57
          1726.81950	         7.97415e+57
          1727.62580	         7.52629e+57
          1728.43210	         7.17042e+57
          1729.23840	         6.96798e+57
          1730.04470	         7.59265e+57
          1730.85100	         8.36440e+57
          1731.65730	         7.78814e+57
          1732.46360	         7.60214e+57
          1733.26990	         7.73854e+57
          1734.07620	         7.23188e+57
          1734.88250	         7.99404e+57
          1735.68880	         7.97252e+57
          1736.49510	         8.46685e+57
          1737.30140	         8.43064e+57
          1738.10770	         6.98164e+57
          1738.91400	         7.27240e+57
          1739.72030	         7.17005e+57
          1740.52660	         5.52810e+57
          1741.33290	         5.73729e+57
          1742.13920	         5.79710e+57
          1742.94550	         7.12165e+57
          1743.75180	         7.95731e+57
          1744.55810	         7.48154e+57
          1745.36440	         7.21840e+57
          1746.17070	         6.09542e+57
          1746.97700	         5.64453e+57
          1747.78330	         6.73907e+57
          1748.58960	         6.90210e+57
          1749.39590	         6.90209e+57
          1750.20220	         6.03701e+57
          1751.00850	         5.95838e+57
          1751.81480	         5.84338e+57
          1752.62110	         6.63432e+57
          1753.42740	         6.63975e+57
          1754.23370	         6.30614e+57
          1755.04000	         6.62882e+57
          1755.84630	         7.25666e+57
          1756.65260	         8.98950e+57
          1757.45890	         9.20539e+57
          1758.26520	         7.17719e+57
          1759.07150	         9.22775e+57
          1759.87780	         9.86184e+57
          1760.68410	         9.55250e+57
          1761.49040	         8.90990e+57
          1762.29670	         6.79602e+57
          1763.10300	         8.03048e+57
          1763.90930	         8.22694e+57
          1764.71560	         7.47398e+57
          1765.52190	         6.52609e+57
          1766.32820	         7.95572e+57
          1767.13450	         7.72588e+57
          1767.94080	         6.57240e+57
          1768.74710	         6.95678e+57
          1769.55340	         7.98527e+57
          1770.35970	         6.92274e+57
          1771.16600	         7.19806e+57
          1771.97230	         8.33473e+57
          1772.77860	         7.60521e+57
          1773.58490	         6.72306e+57
          1774.39120	         6.59020e+57
          1775.19750	         6.42866e+57
          1776.00380	         6.70818e+57
          1776.81010	         6.79301e+57
          1777.61640	         6.31937e+57
          1778.42270	         7.19712e+57
          1779.22900	         7.31286e+57
          1780.03530	         6.55113e+57
          1780.84160	         6.81303e+57
          1781.64790	         8.21919e+57
          1782.45420	         7.05857e+57
          1783.26050	         6.13611e+57
          1784.06680	         7.25061e+57
          1784.87310	         7.79646e+57
          1785.67940	         6.92767e+57
          1786.48570	         6.40175e+57
          1787.29200	         6.92169e+57
          1788.09830	         6.13398e+57
          1788.90460	         5.84557e+57
          1789.71090	         5.96520e+57
          1790.51720	         5.04895e+57
          1791.32350	         6.32762e+57
          1792.12980	         8.39691e+57
          1792.93610	         8.34225e+57
          1793.74240	         7.35625e+57
          1794.54870	         7.42963e+57
          1795.35500	         7.95817e+57
          1796.16130	         8.45134e+57
          1796.96760	         7.00825e+57
          1797.77390	         7.05877e+57
          1798.58020	         7.12366e+57
          1799.38650	         6.56615e+57
          1800.19280	         6.73946e+57
          1800.99910	         7.34353e+57
          1801.80540	         7.26401e+57
          1802.61170	         7.72432e+57
          1803.41800	         7.34344e+57
          1804.22430	         7.02976e+57
          1805.03060	         6.97124e+57
          1805.83690	         7.10292e+57
          1806.64320	         7.42372e+57
          1807.44950	         7.24817e+57
          1808.25580	         7.73510e+57
          1809.06210	         7.79120e+57
          1809.86840	         6.81120e+57
          1810.67470	         7.53414e+57
          1811.48100	         8.82664e+57
          1812.28730	         9.16984e+57
          1813.09360	         7.98290e+57
          1813.89990	         7.54308e+57
          1814.70620	         7.34668e+57
          1815.51250	         8.02435e+57
          1816.31880	         8.59900e+57
          1817.12510	         7.81373e+57
          1817.93140	         7.49439e+57
          1818.73770	         6.93639e+57
          1819.54400	         8.30517e+57
          1820.35030	         8.64986e+57
          1821.15660	         6.17907e+57
          1821.96290	         6.28163e+57
          1822.76920	         7.44420e+57
          1823.57550	         7.70109e+57
          1824.38180	         7.91059e+57
          1825.18810	         7.20890e+57
          1825.99440	         7.87118e+57
          1826.80070	         7.83591e+57
          1827.60700	         6.75214e+57
          1828.41330	         6.49040e+57
          1829.21960	         7.06796e+57
          1830.02590	         7.10011e+57
          1830.83220	         7.77204e+57
          1831.63850	         7.29484e+57
          1832.44480	         6.80141e+57
          1833.25110	         7.11757e+57
          1834.05740	         8.45600e+57
          1834.86370	         7.14388e+57
          1835.67000	         5.68933e+57
          1836.47630	         7.14939e+57
          1837.28260	         8.19409e+57
          1838.08890	         8.13426e+57
          1838.89520	         8.77621e+57
          1839.70150	         7.95994e+57
          1840.50780	         6.18788e+57
          1841.31410	         5.96427e+57
          1842.12040	         7.30230e+57
          1842.92670	         7.39908e+57
          1843.73300	         7.75835e+57
          1844.53930	         7.53462e+57
          1845.34560	         6.94246e+57
          1846.15190	         7.17298e+57
          1846.95820	         8.29195e+57
          1847.76450	         8.18895e+57
          1848.57080	         6.44732e+57
          1849.37710	         6.51692e+57
          1850.18340	         8.11583e+57
          1850.98970	         8.55911e+57
          1851.79600	         7.23234e+57
          1852.60230	         5.68413e+57
          1853.40860	         5.85468e+57
          1854.21490	         6.36515e+57
          1855.02120	         5.75484e+57
          1855.82750	         5.52013e+57
          1856.63380	         6.18210e+57
          1857.44010	         7.20351e+57
          1858.24640	         6.84700e+57
          1859.05270	         6.59892e+57
          1859.85900	         5.45616e+57
          1860.66530	         5.76045e+57
          1861.47160	         6.71194e+57
          1862.27790	         6.72806e+57
          1863.08420	         6.96543e+57
          1863.89050	         7.31648e+57
          1864.69680	         6.63802e+57
          1865.50310	         6.73122e+57
          1866.30940	         6.38092e+57
          1867.11570	         6.39647e+57
          1867.92200	         7.07951e+57
          1868.72830	         6.70788e+57
          1869.53460	         6.96107e+57
          1870.34090	         7.40006e+57
          1871.14720	         7.30596e+57
          1871.95350	         7.24949e+57
          1872.75980	         7.92015e+57
          1873.56610	         6.92080e+57
          1874.37240	         5.28347e+57
          1875.17870	         5.58184e+57
          1875.98500	         7.27139e+57
          1876.79130	         7.76499e+57
          1877.59760	         7.00559e+57
          1878.40390	         5.91806e+57
          1879.21020	         5.54760e+57
          1880.01650	         6.65544e+57
          1880.82280	         7.62531e+57
          1881.62910	         9.49738e+57
          1882.43540	         1.01646e+58
          1883.24170	         8.89837e+57
          1884.04800	         6.90471e+57
          1884.85430	         6.37672e+57
          1885.66060	         7.31748e+57
          1886.46690	         7.52802e+57
          1887.27320	         7.58561e+57
          1888.07950	         6.90181e+57
          1888.88580	         6.16778e+57
          1889.69210	         8.30442e+57
          1890.49840	         8.12440e+57
          1891.30470	         8.15202e+57
          1892.11100	         8.22858e+57
          1892.91730	         7.90768e+57
          1893.72360	         7.77521e+57
          1894.52990	         7.82583e+57
          1895.33620	         8.07675e+57
          1896.14250	         7.22747e+57
          1896.94880	         6.37468e+57
          1897.75510	         4.33500e+57
          1898.56140	         6.01969e+57
          1899.36770	         7.97391e+57
          1900.17400	         5.51985e+57
          1900.98030	         4.91202e+57
          1901.78660	         5.87630e+57
          1902.59290	         6.08706e+57
          1903.39920	         8.47754e+57
          1904.20550	         9.31054e+57
          1905.01180	         9.05191e+57
          1905.81810	         9.96899e+57
          1906.62440	         1.31439e+58
          1907.43070	         1.61043e+58
          1908.23700	         1.49812e+58
          1909.04330	         1.30896e+58
          1909.84960	         1.13398e+58
          1910.65590	         9.70461e+57
          1911.46220	         8.89113e+57
          1912.26850	         7.82517e+57
          1913.07480	         6.32689e+57
          1913.88110	         5.48779e+57
          1914.68740	         5.64900e+57
          1915.49370	         5.02128e+57
          1916.30000	         6.23542e+57
          1917.10630	         7.45507e+57
          1917.91260	         6.70623e+57
          1918.71890	         6.35001e+57
          1919.52520	         5.88476e+57
          1920.33150	         5.43923e+57
          1921.13780	         6.59299e+57
          1921.94410	         8.04114e+57
          1922.75040	         7.97774e+57
          1923.55670	         8.01996e+57
          1924.36300	         8.06053e+57
          1925.16930	         6.44762e+57
          1925.97560	         5.64580e+57
          1926.78190	         4.40448e+57
          1927.58820	         5.74878e+57
          1928.39450	         6.92946e+57
          1929.20080	         6.42976e+57
          1930.00710	         7.27174e+57
          1930.81340	         7.50098e+57
          1931.61970	         6.65439e+57
          1932.42600	         7.60461e+57
          1933.23230	         7.91909e+57
          1934.03860	         6.96834e+57
          1934.84490	         6.65129e+57
          1935.65120	         7.54617e+57
          1936.45750	         8.25610e+57
          1937.26380	         6.02567e+57
          1938.07010	         5.85274e+57
          1938.87640	         6.22512e+57
          1939.68270	         7.14955e+57
          1940.48900	         7.09334e+57
          1941.29530	         7.90126e+57
          1942.10160	         7.33680e+57
          1942.90790	         6.44301e+57
          1943.71420	         5.52530e+57
          1944.52050	         5.34304e+57
          1945.32680	         6.08556e+57
          1946.13310	         7.78950e+57
          1946.93940	         8.88548e+57
          1947.74570	         8.09508e+57
          1948.55200	         6.05252e+57
          1949.35830	         6.01154e+57
          1950.16460	         5.91869e+57
          1950.97090	         5.43491e+57
          1951.77720	         6.74695e+57
          1952.58350	         7.78058e+57
          1953.38980	         6.36584e+57
          1954.19610	         5.03258e+57
          1955.00240	         6.03730e+57
          1955.80870	         6.83122e+57
          1956.61500	         6.31826e+57
          1957.42130	         6.95527e+57
          1958.22760	         8.00871e+57
          1959.03390	         7.53282e+57
          1959.84020	         6.69260e+57
          1960.64650	         5.66973e+57
          1961.45280	         5.05725e+57
          1962.25910	         5.88546e+57
          1963.06540	         6.42504e+57
          1963.87170	         6.36961e+57
          1964.67800	         8.14251e+57
          1965.48430	         6.16509e+57
          1966.29060	         5.74529e+57
          1967.09690	         7.13614e+57
          1967.90320	         7.27505e+57
          1968.70950	         7.29432e+57
          1969.51580	         7.03122e+57
          1970.32210	         7.76585e+57
          1971.12840	         6.78626e+57
          1971.93470	         5.32979e+57
          1972.74100	         6.30601e+57
          1973.54730	         7.19429e+57
          1974.35360	         7.22192e+57
          1975.15990	         7.48406e+57
          1975.96620	         7.65041e+57
          1976.77250	         8.14584e+57
          1977.57880	         7.34397e+57
          1978.38510	         6.12803e+57
          1979.19140	         6.78913e+57
          1979.99770	         7.34196e+57
          1980.80400	         8.38660e+57
          1981.61030	         6.76926e+57
          1982.41660	         5.93568e+57
          1983.22290	         6.52740e+57
          1984.02920	         5.74786e+57
          1984.83550	         5.91555e+57
          1985.64180	         5.80629e+57
          1986.44810	         5.68186e+57
          1987.25440	         5.43460e+57
          1988.06070	         5.72836e+57
          1988.86700	         5.48927e+57
          1989.67330	         6.02281e+57
          1990.47960	         6.58607e+57
          1991.28590	         7.06792e+57
          1992.09220	         6.24183e+57
          1992.89850	         6.18812e+57
          1993.70480	         5.39497e+57
          1994.51110	         4.42230e+57
          1995.31740	         5.27707e+57
          1996.12370	         5.28061e+57
          1996.93000	         6.16901e+57
          1997.73630	         7.92984e+57
          1998.54260	         8.67061e+57
          1999.34890	         7.66280e+57
          2000.15520	         6.00633e+57
          2000.96150	         6.87374e+57
          2001.76780	         5.67871e+57
          2002.57410	         4.78779e+57
          2003.38040	         5.44057e+57
          2004.18670	         6.67071e+57
          2004.99300	         7.98534e+57
          2005.79930	         7.16274e+57
          2006.60560	         6.83126e+57
          2007.41190	         6.11624e+57
          2008.21820	         6.75615e+57
          2009.02450	         6.65748e+57
          2009.83080	         6.42403e+57
          2010.63710	         4.89023e+57
          2011.44340	         6.32520e+57
          2012.24970	         7.60197e+57
          2013.05600	         8.16180e+57
          2013.86230	         6.43283e+57
          2014.66860	         5.37155e+57
          2015.47490	         5.85054e+57
          2016.28120	         5.05520e+57
          2017.08750	         4.51786e+57
          2017.89380	         5.77427e+57
          2018.70010	         5.97403e+57
          2019.50640	         5.22043e+57
          2020.31270	         6.66950e+57
          2021.11900	         7.63133e+57
          2021.92530	         7.10901e+57
          2022.73160	         8.17741e+57
          2023.53790	         7.85615e+57
          2024.34420	         7.53175e+57
          2025.15050	         5.65877e+57
          2025.95680	         5.86638e+57
          2026.76310	         7.23103e+57
          2027.56940	         6.66027e+57
          2028.37570	         5.53153e+57
          2029.18200	         6.05358e+57
          2029.98830	         6.46927e+57
          2030.79460	         6.21563e+57
          2031.60090	         6.40853e+57
          2032.40720	         5.42239e+57
          2033.21350	         5.08987e+57
          2034.01980	         4.83234e+57
          2034.82610	         3.48383e+57
          2035.63240	         5.21709e+57
          2036.43870	         6.59983e+57
          2037.24500	         6.71081e+57
          2038.05130	         7.18031e+57
          2038.85760	         5.50326e+57
          2039.66390	         5.63698e+57
          2040.47020	         6.39464e+57
          2041.27650	         6.60285e+57
          2042.08280	         5.76032e+57
          2042.88910	         6.68102e+57
          2043.69540	         6.28556e+57
          2044.50170	         5.97888e+57
          2045.30800	         5.32681e+57
          2046.11430	         5.10254e+57
          2046.92060	         6.61306e+57
          2047.72690	         5.98364e+57
          2048.53320	         5.49427e+57
          2049.33950	         6.24829e+57
          2050.14580	         6.33690e+57
          2050.95210	         7.22774e+57
          2051.75840	         6.67508e+57
          2052.56470	         5.11402e+57
          2053.37100	         3.27177e+57
          2054.17730	         4.35567e+57
          2054.98360	         5.13862e+57
          2055.78990	         4.16376e+57
          2056.59620	         3.35571e+57
          2057.40250	         5.82190e+57
          2058.20880	         7.69137e+57
          2059.01510	         6.36112e+57
          2059.82140	         7.09270e+57
          2060.62770	         9.99475e+57
          2061.43400	         1.44901e+58
          2062.24030	         9.99733e+57
          2063.04660	         3.87014e+57
          2063.85290	         1.50059e+57
          2064.65920	        -3.57553e+57
          2065.46550	        -1.11631e+58
          2066.27180	        -6.82119e+57
          2067.07810	         3.14769e+57
          2067.88440	         4.37442e+57
          2068.69070	         6.26479e+57
          2069.49700	         6.43841e+57
          2070.30330	         4.25292e+57
          2071.10960	         5.99458e+57
          2071.91590	         6.85821e+57
          2072.72220	         5.20573e+57
          2073.52850	         5.00824e+57
          2074.33480	         5.24547e+57
          2075.14110	         5.62970e+57
          2075.94740	         4.80118e+57
          2076.75370	         5.67993e+57
          2077.56000	         5.23141e+57
          2078.36630	         4.95162e+57
          2079.17260	         5.44494e+57
          2079.97890	         5.43913e+57
          2080.78520	         5.52649e+57
          2081.59150	         4.84402e+57
          2082.39780	         4.62943e+57
          2083.20410	         1.26518e+57
          2084.01040	         1.40100e+57
          2084.81670	         2.61623e+57
          2085.62300	         2.90689e+57
          2086.42930	         3.81279e+57
          2087.23560	         3.77976e+57
          2088.04190	         3.98037e+57
          2088.84820	         3.74875e+57
          2089.65450	         2.25131e+57
          2090.46080	         1.45697e+57
          2091.26710	         3.52414e+57
          2092.07340	         4.56134e+57
          2092.87970	         4.48981e+57
          2093.68600	        -1.73537e+57
          2094.49230	         3.35769e+57
          2095.29860	         6.62317e+57
          2096.10490	         3.85919e+57
          2096.91120	         4.75755e+55
          2097.71750	         6.05805e+56
          2098.52380	         2.64053e+56
          2099.33010	         9.79407e+56
          2100.13640	         1.95084e+57
          2100.94270	         2.20346e+57
          2101.74900	         3.43873e+57
          2102.55530	         2.65698e+57
          2103.36160	         1.79099e+57
          2104.16790	         3.05005e+57
          2104.97420	         1.87798e+57
          2105.78050	         3.42750e+56
          2106.58680	         1.54589e+57
          2107.39310	        -2.03980e+57
          2108.19940	        -7.67986e+56
          2109.00570	         1.30311e+57
          2109.81200	         8.88131e+56
          2110.61830	         4.15973e+56
          2111.42460	         9.84502e+56
          2112.23090	         7.83961e+56
          2113.03720	        -2.92788e+56
          2113.84350	         1.36622e+57
          2114.64980	         1.70356e+57
          2115.45610	        -4.20630e+57
          2116.26240	        -4.51162e+57
          2117.06870	        -5.88454e+56
          2117.87500	         3.43436e+56
          2118.68130	         1.01666e+57
          2119.48760	        -1.79521e+57
          2120.29390	        -5.44762e+57
          2121.10020	        -2.43245e+57
          2121.90650	        -5.37482e+56
          2122.71280	         3.68977e+57
          2123.51910	         4.35379e+57
          2124.32540	        -1.63193e+56
          2125.13170	         2.45204e+56
          2125.93800	         3.27903e+57
          2126.74430	        -9.52434e+56
          2127.55060	        -4.80833e+57
          2128.35690	        -9.71345e+57
          2129.16320	        -6.84493e+57
          2129.96950	        -9.25498e+57
          2130.77580	        -3.68733e+57
          2131.58210	        -2.56064e+57
          2132.38840	         8.69795e+56
          2133.19470	        -3.20832e+56
          2134.00100	        -1.68893e+57
          2134.80730	        -6.50826e+57
          2135.61360	        -5.73202e+55
          2136.41990	         4.48246e+57
          2137.22620	         7.22601e+57
          2138.03250	         2.50942e+56
          2138.83880	        -6.75669e+56
          2139.64510	         2.68374e+57
          2140.45140	         1.28688e+57
          2141.25770	        -8.97587e+57
          2142.06400	        -8.22284e+55
          2142.87030	         1.39810e+57
          2143.67660	         8.94914e+57
          2144.48290	         1.53579e+58
          2145.28920	         4.03289e+57
          2146.09550	        -4.95760e+57
          2146.90180	        -7.87869e+57
          2147.70810	        -1.42031e+57
          2148.51440	        -2.26129e+57
          2149.32070	        -6.73483e+57
          2150.12700	        -1.54758e+58
          2150.93330	        -6.93700e+57
          2151.73960	         1.12116e+57
          2152.54590	         3.17034e+57
          2153.35220	        -8.23040e+56
          2154.15850	         2.18106e+56
          2154.96480	         2.45657e+57
          2155.77110	        -8.68561e+57
          2156.57740	        -7.93874e+57
          2157.38370	         8.26250e+57
          2158.19000	         2.24338e+57
          2158.99630	         4.14859e+57
          2159.80260	        -1.30619e+58
          2160.60890	        -1.23873e+58
          2161.41520	        -2.25419e+57
          2162.22150	        -7.14486e+56
          2163.02780	         2.27084e+57
          2163.83410	        -8.01625e+57
          2164.64040	        -1.33030e+58
          2165.44670	        -1.16093e+58
          2166.25300	        -2.99823e+57
          2167.05930	         1.43762e+57
          2167.86560	        -1.13039e+58
          2168.67190	         1.66852e+57
          2169.47820	        -1.12031e+57
          2170.28450	        -1.41918e+58
          2171.09080	         4.42556e+57
          2171.89710	         7.46434e+56
          2172.70340	         3.68700e+57
          2173.50970	        -3.46690e+57
          2174.31600	        -8.48935e+56
          2175.12230	         1.97645e+57
          2175.92860	        -1.29901e+57
          2176.73490	        -3.74258e+57
          2177.54120	        -9.02431e+57
          2178.34750	        -3.60426e+57
          2179.15380	                 nan
          2179.96010	                 nan
          2180.76640	                 nan
          2181.57270	                 nan
          2182.37900	                 nan
          2183.18530	                 nan
          2183.99160	                 nan
          2184.79790	                 nan
          2185.60420	                 nan
          2186.41050	                 nan
          2187.21680	                 nan
          2188.02310	                 nan
          2188.82940	                 nan
          2189.63570	                 nan
          2190.44200	                 nan
          2191.24830	                 nan
          2192.05460	                 nan
          2192.86090	                 nan
          2193.66720	                 nan
          2194.47350	                 nan
          2195.27980	                 nan
          2196.08610	                 nan
          2196.89240	                 nan
          2197.69870	                 nan
          2198.50500	                 nan
          2199.31130	                 nan
          2200.11760	                 nan
          2200.92390	                 nan
          2201.73020	                 nan
          2202.53650	                 nan
          2203.34280	                 nan
          2204.14910	                 nan
          2204.95540	                 nan
          2205.76170	                 nan
          2206.56800	                 nan
          2207.37430	                 nan
          2208.18060	                 nan
          2208.98690	                 nan
          2209.79320	                 nan
          2210.59950	                 nan
          2211.40580	                 nan
          2212.21210	                 nan
          2213.01840	                 nan
          2213.82470	                 nan
          2214.63100	                 nan
          2215.43730	         0.00000e+00
