#sample_259_stacked_spectrum_rest_UV-bands_median_H-alpha_noDC.txt
#median Lum: 1.69071e+42
#Rest-frame wavelength (A) | Luminosity (erg/s/A)
#
          1110.00000	         0.00000e+00
          1110.80630	        -9.65720e+58
          1111.61260	        -1.68909e+59
          1112.41890	         4.24863e+58
          1113.22520	         5.23353e+58
          1114.03150	         1.13515e+59
          1114.83780	         1.90024e+59
          1115.64410	         1.21870e+59
          1116.45040	         2.31180e+59
          1117.25670	         3.64836e+58
          1118.06300	         1.77253e+59
          1118.86930	         8.63944e+57
          1119.67560	         4.43299e+58
          1120.48190	        -6.01327e+58
          1121.28820	        -1.18495e+59
          1122.09450	        -6.35451e+58
          1122.90080	        -4.46048e+58
          1123.70710	         3.28576e+58
          1124.51340	         9.00883e+58
          1125.31970	         1.18919e+58
          1126.12600	         1.71321e+58
          1126.93230	        -2.83400e+58
          1127.73860	        -6.80172e+58
          1128.54490	         4.87927e+57
          1129.35120	         2.26221e+58
          1130.15750	         1.22669e+58
          1130.96380	        -1.78194e+58
          1131.77010	         4.67561e+58
          1132.57640	         4.50836e+58
          1133.38270	         4.44662e+58
          1134.18900	         3.28436e+58
          1134.99530	         3.91376e+58
          1135.80160	         1.62731e+58
          1136.60790	        -6.67037e+57
          1137.41420	        -2.55419e+57
          1138.22050	         3.57746e+58
          1139.02680	         4.52475e+58
          1139.83310	         7.30521e+57
          1140.63940	         2.16167e+58
          1141.44570	        -8.56184e+57
          1142.25200	        -4.35288e+56
          1143.05830	         2.65702e+58
          1143.86460	         2.05798e+58
          1144.67090	         3.59108e+58
          1145.47720	         8.81309e+57
          1146.28350	         1.75348e+57
          1147.08980	         1.12421e+58
          1147.89610	         1.79966e+58
          1148.70240	         1.47560e+58
          1149.50870	         1.80881e+58
          1150.31500	         1.05390e+58
          1151.12130	        -4.30195e+57
          1151.92760	         3.51112e+57
          1152.73390	         2.06567e+57
          1153.54020	         6.83993e+57
          1154.34650	         2.61904e+58
          1155.15280	         2.74579e+58
          1155.95910	         8.75850e+57
          1156.76540	         1.32170e+58
          1157.57170	         1.80018e+57
          1158.37800	         1.58204e+56
          1159.18430	         3.76022e+57
          1159.99060	         1.49957e+58
          1160.79690	         8.92967e+57
          1161.60320	         1.35797e+58
          1162.40950	         2.05611e+58
          1163.21580	         2.11710e+58
          1164.02210	         1.08311e+58
          1164.82840	        -2.83737e+57
          1165.63470	         1.40745e+58
          1166.44100	         2.50029e+58
          1167.24730	         2.35441e+58
          1168.05360	         8.90028e+57
          1168.85990	         8.41763e+57
          1169.66620	         1.57782e+58
          1170.47250	         1.28996e+58
          1171.27880	         1.01697e+58
          1172.08510	         1.23561e+58
          1172.89140	         9.40310e+57
          1173.69770	         7.11147e+57
          1174.50400	         1.87671e+58
          1175.31030	         2.24698e+58
          1176.11660	         1.32589e+58
          1176.92290	         1.30817e+58
          1177.72920	         1.19492e+58
          1178.53550	         8.45736e+57
          1179.34180	         8.86086e+57
          1180.14810	         9.94380e+57
          1180.95440	         9.43135e+57
          1181.76070	         7.19380e+57
          1182.56700	         7.81893e+57
          1183.37330	         8.91320e+57
          1184.17960	         1.17573e+58
          1184.98590	         1.06674e+58
          1185.79220	         8.01487e+57
          1186.59850	         9.03119e+57
          1187.40480	         1.09505e+58
          1188.21110	         2.21212e+58
          1189.01740	         1.24891e+58
          1189.82370	         7.45168e+57
          1190.63000	         8.80370e+57
          1191.43630	         1.20317e+58
          1192.24260	         9.17745e+57
          1193.04890	         1.16696e+58
          1193.85520	         1.34471e+58
          1194.66150	         5.89543e+57
          1195.46780	         1.18319e+58
          1196.27410	         1.44612e+58
          1197.08040	         7.57936e+57
          1197.88670	         1.60085e+58
          1198.69300	         1.65136e+58
          1199.49930	         1.35335e+58
          1200.30560	         1.39881e+58
          1201.11190	         1.09030e+58
          1201.91820	         1.00372e+58
          1202.72450	         7.21709e+57
          1203.53080	         1.57117e+58
          1204.33710	         9.64574e+57
          1205.14340	         9.10497e+57
          1205.94970	         8.17911e+57
          1206.75600	         8.28186e+57
          1207.56230	         3.97788e+57
          1208.36860	         1.04682e+58
          1209.17490	         6.51448e+57
          1209.98120	         3.57387e+57
          1210.78750	         8.06506e+57
          1211.59380	         1.00315e+58
          1212.40010	         2.19909e+58
          1213.20640	         2.31830e+58
          1214.01270	         2.35947e+58
          1214.81900	         2.62414e+58
          1215.62530	         4.83213e+58
          1216.43160	         9.33836e+58
          1217.23790	         1.52544e+59
          1218.04420	         1.13201e+59
          1218.85050	         8.46698e+58
          1219.65680	         5.66153e+58
          1220.46310	         3.53701e+58
          1221.26940	         2.40619e+58
          1222.07570	         1.33144e+58
          1222.88200	         1.14793e+58
          1223.68830	         1.08224e+58
          1224.49460	         7.83640e+57
          1225.30090	         6.15055e+57
          1226.10720	         6.29803e+57
          1226.91350	         6.00173e+57
          1227.71980	         9.19065e+57
          1228.52610	         1.30340e+58
          1229.33240	         6.13365e+57
          1230.13870	         9.88550e+57
          1230.94500	         6.96977e+57
          1231.75130	         8.76183e+57
          1232.55760	         9.69769e+57
          1233.36390	         1.22273e+58
          1234.17020	         7.42388e+57
          1234.97650	         7.02488e+57
          1235.78280	         7.89950e+57
          1236.58910	         8.62664e+57
          1237.39540	         1.04023e+58
          1238.20170	         9.67950e+57
          1239.00800	         1.30621e+58
          1239.81430	         1.63766e+58
          1240.62060	         1.08252e+58
          1241.42690	         8.65493e+57
          1242.23320	         9.61395e+57
          1243.03950	         7.06894e+57
          1243.84580	         9.40811e+57
          1244.65210	         1.30231e+58
          1245.45840	         1.11913e+58
          1246.26470	         9.80435e+57
          1247.07100	         8.25049e+57
          1247.87730	         4.33827e+57
          1248.68360	         4.50090e+57
          1249.48990	         3.14340e+57
          1250.29620	         7.53321e+57
          1251.10250	         9.53898e+57
          1251.90880	         7.37694e+57
          1252.71510	         6.83874e+57
          1253.52140	         8.31463e+57
          1254.32770	         1.22736e+58
          1255.13400	         1.27648e+58
          1255.94030	         1.10641e+58
          1256.74660	         9.19119e+57
          1257.55290	         8.18027e+57
          1258.35920	         6.75189e+57
          1259.16550	         4.44883e+57
          1259.97180	         4.92739e+57
          1260.77810	         8.38506e+57
          1261.58440	         1.00485e+58
          1262.39070	         7.88884e+57
          1263.19700	         8.69425e+57
          1264.00330	         7.76147e+57
          1264.80960	         1.11445e+58
          1265.61590	         1.49642e+58
          1266.42220	         1.44699e+58
          1267.22850	         1.32035e+58
          1268.03480	         1.41110e+58
          1268.84110	         1.37152e+58
          1269.64740	         1.23899e+58
          1270.45370	         1.39314e+58
          1271.26000	         1.21177e+58
          1272.06630	         9.01452e+57
          1272.87260	         1.19164e+58
          1273.67890	         1.41207e+58
          1274.48520	         1.49150e+58
          1275.29150	         1.48386e+58
          1276.09780	         1.32097e+58
          1276.90410	         1.57943e+58
          1277.71040	         1.34046e+58
          1278.51670	         1.10637e+58
          1279.32300	         1.38245e+58
          1280.12930	         1.37035e+58
          1280.93560	         1.33856e+58
          1281.74190	         1.25528e+58
          1282.54820	         1.20365e+58
          1283.35450	         1.17743e+58
          1284.16080	         1.23623e+58
          1284.96710	         1.21595e+58
          1285.77340	         9.40283e+57
          1286.57970	         1.07994e+58
          1287.38600	         1.57839e+58
          1288.19230	         1.66998e+58
          1288.99860	         1.49395e+58
          1289.80490	         1.24022e+58
          1290.61120	         1.27786e+58
          1291.41750	         1.34296e+58
          1292.22380	         1.21508e+58
          1293.03010	         1.06213e+58
          1293.83640	         1.01389e+58
          1294.64270	         9.83035e+57
          1295.44900	         8.14371e+57
          1296.25530	         8.30648e+57
          1297.06160	         8.47265e+57
          1297.86790	         9.94429e+57
          1298.67420	         8.62683e+57
          1299.48050	         1.08503e+58
          1300.28680	         1.23992e+58
          1301.09310	         8.05955e+57
          1301.89940	         2.96458e+57
          1302.70570	         5.26263e+57
          1303.51200	         8.30909e+57
          1304.31830	         9.98183e+57
          1305.12460	         1.22739e+58
          1305.93090	         1.16587e+58
          1306.73720	         1.20490e+58
          1307.54350	         1.40162e+58
          1308.34980	         1.49919e+58
          1309.15610	         1.60846e+58
          1309.96240	         1.52574e+58
          1310.76870	         1.20681e+58
          1311.57500	         1.17722e+58
          1312.38130	         1.02904e+58
          1313.18760	         1.07438e+58
          1313.99390	         1.44785e+58
          1314.80020	         1.43387e+58
          1315.60650	         1.40104e+58
          1316.41280	         1.40830e+58
          1317.21910	         1.17535e+58
          1318.02540	         1.21755e+58
          1318.83170	         1.33609e+58
          1319.63800	         1.36217e+58
          1320.44430	         1.23800e+58
          1321.25060	         1.39500e+58
          1322.05690	         1.41771e+58
          1322.86320	         1.25148e+58
          1323.66950	         1.07334e+58
          1324.47580	         8.51260e+57
          1325.28210	         9.36806e+57
          1326.08840	         9.75255e+57
          1326.89470	         9.47598e+57
          1327.70100	         9.65562e+57
          1328.50730	         8.00377e+57
          1329.31360	         8.74450e+57
          1330.11990	         1.06091e+58
          1330.92620	         9.04756e+57
          1331.73250	         9.71010e+57
          1332.53880	         9.97646e+57
          1333.34510	         1.00149e+58
          1334.15140	         9.54205e+57
          1334.95770	         9.77467e+57
          1335.76400	         1.05377e+58
          1336.57030	         1.13151e+58
          1337.37660	         1.13536e+58
          1338.18290	         1.16959e+58
          1338.98920	         1.12158e+58
          1339.79550	         1.05631e+58
          1340.60180	         1.13288e+58
          1341.40810	         1.37086e+58
          1342.21440	         1.19827e+58
          1343.02070	         1.38276e+58
          1343.82700	         1.47592e+58
          1344.63330	         1.33373e+58
          1345.43960	         1.18451e+58
          1346.24590	         1.02113e+58
          1347.05220	         1.13442e+58
          1347.85850	         1.22041e+58
          1348.66480	         1.36027e+58
          1349.47110	         1.50083e+58
          1350.27740	         1.34282e+58
          1351.08370	         1.07868e+58
          1351.89000	         1.20357e+58
          1352.69630	         1.14479e+58
          1353.50260	         1.16537e+58
          1354.30890	         1.25292e+58
          1355.11520	         1.16991e+58
          1355.92150	         1.05842e+58
          1356.72780	         9.89989e+57
          1357.53410	         9.72816e+57
          1358.34040	         1.01341e+58
          1359.14670	         1.08118e+58
          1359.95300	         1.23637e+58
          1360.75930	         1.22499e+58
          1361.56560	         1.15997e+58
          1362.37190	         1.26388e+58
          1363.17820	         1.34285e+58
          1363.98450	         1.29151e+58
          1364.79080	         1.28767e+58
          1365.59710	         1.35886e+58
          1366.40340	         1.36992e+58
          1367.20970	         1.06591e+58
          1368.01600	         8.27112e+57
          1368.82230	         8.30565e+57
          1369.62860	         1.01556e+58
          1370.43490	         1.02408e+58
          1371.24120	         1.03054e+58
          1372.04750	         9.57936e+57
          1372.85380	         9.99809e+57
          1373.66010	         9.54741e+57
          1374.46640	         9.42042e+57
          1375.27270	         1.02045e+58
          1376.07900	         8.79164e+57
          1376.88530	         8.03316e+57
          1377.69160	         9.10662e+57
          1378.49790	         6.55821e+57
          1379.30420	         5.82122e+57
          1380.11050	         7.76539e+57
          1380.91680	         6.88196e+57
          1381.72310	         6.65946e+57
          1382.52940	         8.33090e+57
          1383.33570	         8.36257e+57
          1384.14200	         9.17813e+57
          1384.94830	         1.16672e+58
          1385.75460	         1.11908e+58
          1386.56090	         1.15604e+58
          1387.36720	         1.24461e+58
          1388.17350	         1.26336e+58
          1388.97980	         1.06980e+58
          1389.78610	         8.58584e+57
          1390.59240	         7.82482e+57
          1391.39870	         9.25119e+57
          1392.20500	         1.07062e+58
          1393.01130	         7.06275e+57
          1393.81760	         6.25365e+57
          1394.62390	         6.62968e+57
          1395.43020	         5.87036e+57
          1396.23650	         6.66504e+57
          1397.04280	         7.71200e+57
          1397.84910	         8.95372e+57
          1398.65540	         8.86773e+57
          1399.46170	         9.77946e+57
          1400.26800	         9.84591e+57
          1401.07430	         8.14992e+57
          1401.88060	         8.23966e+57
          1402.68690	         8.98763e+57
          1403.49320	         8.81679e+57
          1404.29950	         8.20777e+57
          1405.10580	         9.96249e+57
          1405.91210	         1.11451e+58
          1406.71840	         1.09983e+58
          1407.52470	         9.85582e+57
          1408.33100	         9.82215e+57
          1409.13730	         1.20071e+58
          1409.94360	         1.17455e+58
          1410.74990	         1.18889e+58
          1411.55620	         1.17810e+58
          1412.36250	         9.69753e+57
          1413.16880	         9.03492e+57
          1413.97510	         7.92090e+57
          1414.78140	         6.97700e+57
          1415.58770	         8.87130e+57
          1416.39400	         9.86018e+57
          1417.20030	         1.00550e+58
          1418.00660	         9.52057e+57
          1418.81290	         1.03835e+58
          1419.61920	         1.07458e+58
          1420.42550	         1.24803e+58
          1421.23180	         1.39510e+58
          1422.03810	         1.25008e+58
          1422.84440	         1.07005e+58
          1423.65070	         1.22422e+58
          1424.45700	         1.20312e+58
          1425.26330	         9.44212e+57
          1426.06960	         9.17851e+57
          1426.87590	         9.99194e+57
          1427.68220	         9.22264e+57
          1428.48850	         1.11634e+58
          1429.29480	         1.13629e+58
          1430.10110	         9.68491e+57
          1430.90740	         7.43628e+57
          1431.71370	         8.43098e+57
          1432.52000	         9.06681e+57
          1433.32630	         8.30261e+57
          1434.13260	         8.00439e+57
          1434.93890	         8.12287e+57
          1435.74520	         9.42480e+57
          1436.55150	         8.48923e+57
          1437.35780	         8.04291e+57
          1438.16410	         9.18506e+57
          1438.97040	         8.57649e+57
          1439.77670	         7.82062e+57
          1440.58300	         9.15333e+57
          1441.38930	         9.79295e+57
          1442.19560	         9.61301e+57
          1443.00190	         9.20021e+57
          1443.80820	         1.00077e+58
          1444.61450	         8.70367e+57
          1445.42080	         7.69634e+57
          1446.22710	         1.07188e+58
          1447.03340	         1.10780e+58
          1447.83970	         1.10703e+58
          1448.64600	         1.02501e+58
          1449.45230	         9.82206e+57
          1450.25860	         9.21210e+57
          1451.06490	         7.41875e+57
          1451.87120	         6.50873e+57
          1452.67750	         7.05517e+57
          1453.48380	         8.38253e+57
          1454.29010	         7.89937e+57
          1455.09640	         7.33051e+57
          1455.90270	         8.72058e+57
          1456.70900	         7.85450e+57
          1457.51530	         8.51440e+57
          1458.32160	         1.12362e+58
          1459.12790	         1.12646e+58
          1459.93420	         9.29432e+57
          1460.74050	         8.20097e+57
          1461.54680	         6.83819e+57
          1462.35310	         7.91172e+57
          1463.15940	         9.55889e+57
          1463.96570	         1.13654e+58
          1464.77200	         1.16329e+58
          1465.57830	         1.04154e+58
          1466.38460	         9.59225e+57
          1467.19090	         8.86527e+57
          1467.99720	         8.44649e+57
          1468.80350	         9.81627e+57
          1469.60980	         9.96395e+57
          1470.41610	         1.03137e+58
          1471.22240	         1.08114e+58
          1472.02870	         1.14314e+58
          1472.83500	         1.10533e+58
          1473.64130	         1.01505e+58
          1474.44760	         9.85497e+57
          1475.25390	         8.80596e+57
          1476.06020	         9.07830e+57
          1476.86650	         8.63472e+57
          1477.67280	         7.25816e+57
          1478.47910	         6.61510e+57
          1479.28540	         7.03265e+57
          1480.09170	         7.35356e+57
          1480.89800	         8.07864e+57
          1481.70430	         9.29228e+57
          1482.51060	         1.00378e+58
          1483.31690	         9.19019e+57
          1484.12320	         8.48352e+57
          1484.92950	         8.90057e+57
          1485.73580	         8.23359e+57
          1486.54210	         8.05409e+57
          1487.34840	         8.48410e+57
          1488.15470	         9.40103e+57
          1488.96100	         9.97277e+57
          1489.76730	         8.93846e+57
          1490.57360	         8.01625e+57
          1491.37990	         7.27071e+57
          1492.18620	         9.05783e+57
          1492.99250	         8.69350e+57
          1493.79880	         8.44948e+57
          1494.60510	         8.57457e+57
          1495.41140	         7.43418e+57
          1496.21770	         8.68479e+57
          1497.02400	         1.06887e+58
          1497.83030	         8.57222e+57
          1498.63660	         6.86564e+57
          1499.44290	         7.60457e+57
          1500.24920	         6.88809e+57
          1501.05550	         8.16097e+57
          1501.86180	         8.85994e+57
          1502.66810	         9.41377e+57
          1503.47440	         8.76076e+57
          1504.28070	         7.66207e+57
          1505.08700	         9.31540e+57
          1505.89330	         9.40904e+57
          1506.69960	         8.59777e+57
          1507.50590	         9.69809e+57
          1508.31220	         9.53098e+57
          1509.11850	         8.85525e+57
          1509.92480	         9.57101e+57
          1510.73110	         9.39185e+57
          1511.53740	         7.25891e+57
          1512.34370	         7.53274e+57
          1513.15000	         9.07451e+57
          1513.95630	         1.01318e+58
          1514.76260	         9.51385e+57
          1515.56890	         8.65975e+57
          1516.37520	         9.75325e+57
          1517.18150	         8.90321e+57
          1517.98780	         8.21276e+57
          1518.79410	         8.00664e+57
          1519.60040	         8.21912e+57
          1520.40670	         9.09780e+57
          1521.21300	         8.54937e+57
          1522.01930	         8.83752e+57
          1522.82560	         9.64716e+57
          1523.63190	         9.76809e+57
          1524.43820	         8.66365e+57
          1525.24450	         6.93653e+57
          1526.05080	         5.90907e+57
          1526.85710	         5.95069e+57
          1527.66340	         6.96684e+57
          1528.46970	         7.53751e+57
          1529.27600	         6.99503e+57
          1530.08230	         6.76100e+57
          1530.88860	         6.93881e+57
          1531.69490	         8.22922e+57
          1532.50120	         9.09344e+57
          1533.30750	         9.27211e+57
          1534.11380	         1.01561e+58
          1534.92010	         9.75045e+57
          1535.72640	         9.49785e+57
          1536.53270	         9.68607e+57
          1537.33900	         9.10994e+57
          1538.14530	         8.46463e+57
          1538.95160	         9.20481e+57
          1539.75790	         9.69356e+57
          1540.56420	         9.54260e+57
          1541.37050	         8.09754e+57
          1542.17680	         7.57914e+57
          1542.98310	         8.17746e+57
          1543.78940	         7.63358e+57
          1544.59570	         6.42831e+57
          1545.40200	         6.99715e+57
          1546.20830	         9.25365e+57
          1547.01460	         1.11822e+58
          1547.82090	         1.18112e+58
          1548.62720	         1.24163e+58
          1549.43350	         1.14736e+58
          1550.23980	         1.08297e+58
          1551.04610	         1.22860e+58
          1551.85240	         1.19136e+58
          1552.65870	         1.15360e+58
          1553.46500	         1.00306e+58
          1554.27130	         1.04812e+58
          1555.07760	         1.01052e+58
          1555.88390	         8.87792e+57
          1556.69020	         9.06488e+57
          1557.49650	         7.64576e+57
          1558.30280	         6.91476e+57
          1559.10910	         7.65960e+57
          1559.91540	         8.32209e+57
          1560.72170	         9.11460e+57
          1561.52800	         9.30540e+57
          1562.33430	         9.54188e+57
          1563.14060	         8.67472e+57
          1563.94690	         8.19451e+57
          1564.75320	         8.56954e+57
          1565.55950	         6.90422e+57
          1566.36580	         7.41376e+57
          1567.17210	         9.54747e+57
          1567.97840	         1.00087e+58
          1568.78470	         9.08801e+57
          1569.59100	         9.48445e+57
          1570.39730	         8.57176e+57
          1571.20360	         6.99579e+57
          1572.00990	         7.27916e+57
          1572.81620	         9.51740e+57
          1573.62250	         1.06567e+58
          1574.42880	         8.72018e+57
          1575.23510	         7.12358e+57
          1576.04140	         7.90315e+57
          1576.84770	         9.06588e+57
          1577.65400	         9.11419e+57
          1578.46030	         9.25192e+57
          1579.26660	         9.73527e+57
          1580.07290	         8.95146e+57
          1580.87920	         7.71285e+57
          1581.68550	         8.29721e+57
          1582.49180	         8.47017e+57
          1583.29810	         7.77101e+57
          1584.10440	         8.14591e+57
          1584.91070	         7.90242e+57
          1585.71700	         8.62640e+57
          1586.52330	         9.06002e+57
          1587.32960	         8.15529e+57
          1588.13590	         8.49282e+57
          1588.94220	         8.56884e+57
          1589.74850	         8.71373e+57
          1590.55480	         1.00684e+58
          1591.36110	         8.61924e+57
          1592.16740	         8.13398e+57
          1592.97370	         7.65413e+57
          1593.78000	         7.57100e+57
          1594.58630	         8.63002e+57
          1595.39260	         8.01548e+57
          1596.19890	         8.37465e+57
          1597.00520	         9.56842e+57
          1597.81150	         9.21540e+57
          1598.61780	         7.24597e+57
          1599.42410	         6.40468e+57
          1600.23040	         6.03619e+57
          1601.03670	         7.34582e+57
          1601.84300	         7.31664e+57
          1602.64930	         7.75814e+57
          1603.45560	         8.74313e+57
          1604.26190	         8.03098e+57
          1605.06820	         7.37023e+57
          1605.87450	         6.70355e+57
          1606.68080	         6.66785e+57
          1607.48710	         6.47698e+57
          1608.29340	         6.61135e+57
          1609.09970	         7.03744e+57
          1609.90600	         8.31903e+57
          1610.71230	         7.51703e+57
          1611.51860	         6.45574e+57
          1612.32490	         5.92372e+57
          1613.13120	         8.02063e+57
          1613.93750	         8.15772e+57
          1614.74380	         8.74114e+57
          1615.55010	         9.41521e+57
          1616.35640	         9.11020e+57
          1617.16270	         9.95385e+57
          1617.96900	         9.95595e+57
          1618.77530	         8.10838e+57
          1619.58160	         7.33482e+57
          1620.38790	         7.75461e+57
          1621.19420	         8.02611e+57
          1622.00050	         8.03535e+57
          1622.80680	         8.63630e+57
          1623.61310	         8.04832e+57
          1624.41940	         8.06952e+57
          1625.22570	         9.22251e+57
          1626.03200	         8.59275e+57
          1626.83830	         7.89728e+57
          1627.64460	         7.76148e+57
          1628.45090	         5.74965e+57
          1629.25720	         7.48862e+57
          1630.06350	         9.27022e+57
          1630.86980	         5.87499e+57
          1631.67610	         7.61964e+57
          1632.48240	         9.98369e+57
          1633.28870	         9.59025e+57
          1634.09500	         1.04296e+58
          1634.90130	         1.07331e+58
          1635.70760	         9.18919e+57
          1636.51390	         7.79654e+57
          1637.32020	         8.50713e+57
          1638.12650	         9.69285e+57
          1638.93280	         9.66781e+57
          1639.73910	         1.06376e+58
          1640.54540	         1.05149e+58
          1641.35170	         8.29455e+57
          1642.15800	         9.25996e+57
          1642.96430	         9.19156e+57
          1643.77060	         9.31597e+57
          1644.57690	         8.10550e+57
          1645.38320	         8.87803e+57
          1646.18950	         8.91167e+57
          1646.99580	         9.40423e+57
          1647.80210	         9.33446e+57
          1648.60840	         8.46565e+57
          1649.41470	         9.00267e+57
          1650.22100	         8.20294e+57
          1651.02730	         7.38602e+57
          1651.83360	         6.72866e+57
          1652.63990	         7.83114e+57
          1653.44620	         9.45229e+57
          1654.25250	         8.16279e+57
          1655.05880	         7.58313e+57
          1655.86510	         8.45502e+57
          1656.67140	         8.28220e+57
          1657.47770	         7.08275e+57
          1658.28400	         7.21415e+57
          1659.09030	         8.79065e+57
          1659.89660	         8.25916e+57
          1660.70290	         8.68738e+57
          1661.50920	         1.01388e+58
          1662.31550	         9.08488e+57
          1663.12180	         8.46158e+57
          1663.92810	         1.00072e+58
          1664.73440	         1.15768e+58
          1665.54070	         1.20189e+58
          1666.34700	         1.12015e+58
          1667.15330	         1.10768e+58
          1667.95960	         9.49483e+57
          1668.76590	         7.81712e+57
          1669.57220	         7.69494e+57
          1670.37850	         7.38226e+57
          1671.18480	         7.44817e+57
          1671.99110	         7.45800e+57
          1672.79740	         7.19208e+57
          1673.60370	         6.45757e+57
          1674.41000	         7.09019e+57
          1675.21630	         7.13889e+57
          1676.02260	         6.16266e+57
          1676.82890	         7.00102e+57
          1677.63520	         7.01238e+57
          1678.44150	         7.80902e+57
          1679.24780	         9.27974e+57
          1680.05410	         7.18910e+57
          1680.86040	         5.58455e+57
          1681.66670	         7.22634e+57
          1682.47300	         8.36139e+57
          1683.27930	         8.25956e+57
          1684.08560	         8.43153e+57
          1684.89190	         7.27328e+57
          1685.69820	         4.94285e+57
          1686.50450	         5.03260e+57
          1687.31080	         7.36763e+57
          1688.11710	         7.45889e+57
          1688.92340	         7.70213e+57
          1689.72970	         7.20403e+57
          1690.53600	         6.34099e+57
          1691.34230	         6.39602e+57
          1692.14860	         7.40907e+57
          1692.95490	         7.42865e+57
          1693.76120	         6.57901e+57
          1694.56750	         7.06598e+57
          1695.37380	         8.71185e+57
          1696.18010	         8.69675e+57
          1696.98640	         9.39379e+57
          1697.79270	         9.12696e+57
          1698.59900	         7.69685e+57
          1699.40530	         7.70679e+57
          1700.21160	         8.03216e+57
          1701.01790	         8.52861e+57
          1701.82420	         7.79065e+57
          1702.63050	         6.97803e+57
          1703.43680	         7.95827e+57
          1704.24310	         9.53795e+57
          1705.04940	         9.52756e+57
          1705.85570	         9.25784e+57
          1706.66200	         8.68723e+57
          1707.46830	         7.43459e+57
          1708.27460	         7.07442e+57
          1709.08090	         6.26334e+57
          1709.88720	         6.53347e+57
          1710.69350	         6.70056e+57
          1711.49980	         6.06157e+57
          1712.30610	         6.99221e+57
          1713.11240	         9.14848e+57
          1713.91870	         8.42381e+57
          1714.72500	         8.91663e+57
          1715.53130	         9.82506e+57
          1716.33760	         8.66025e+57
          1717.14390	         7.78139e+57
          1717.95020	         8.33089e+57
          1718.75650	         8.26269e+57
          1719.56280	         8.05590e+57
          1720.36910	         7.03331e+57
          1721.17540	         7.47164e+57
          1721.98170	         7.06212e+57
          1722.78800	         6.43541e+57
          1723.59430	         7.56728e+57
          1724.40060	         8.39937e+57
          1725.20690	         9.32789e+57
          1726.01320	         8.98697e+57
          1726.81950	         8.08322e+57
          1727.62580	         7.42206e+57
          1728.43210	         6.68253e+57
          1729.23840	         7.31249e+57
          1730.04470	         8.21871e+57
          1730.85100	         7.67034e+57
          1731.65730	         8.19127e+57
          1732.46360	         8.44668e+57
          1733.26990	         7.08557e+57
          1734.07620	         7.02623e+57
          1734.88250	         7.23059e+57
          1735.68880	         6.68969e+57
          1736.49510	         8.29402e+57
          1737.30140	         8.45785e+57
          1738.10770	         6.86084e+57
          1738.91400	         6.89732e+57
          1739.72030	         7.25514e+57
          1740.52660	         6.89269e+57
          1741.33290	         6.57240e+57
          1742.13920	         6.54743e+57
          1742.94550	         6.64316e+57
          1743.75180	         7.40781e+57
          1744.55810	         7.47263e+57
          1745.36440	         6.91077e+57
          1746.17070	         5.68320e+57
          1746.97700	         5.03224e+57
          1747.78330	         6.44993e+57
          1748.58960	         7.04496e+57
          1749.39590	         6.89506e+57
          1750.20220	         7.35363e+57
          1751.00850	         6.05103e+57
          1751.81480	         6.40961e+57
          1752.62110	         7.80064e+57
          1753.42740	         8.55444e+57
          1754.23370	         7.63971e+57
          1755.04000	         7.64447e+57
          1755.84630	         7.19547e+57
          1756.65260	         8.75987e+57
          1757.45890	         9.42696e+57
          1758.26520	         6.37598e+57
          1759.07150	         7.76948e+57
          1759.87780	         8.06265e+57
          1760.68410	         8.40012e+57
          1761.49040	         8.27504e+57
          1762.29670	         6.36692e+57
          1763.10300	         6.82176e+57
          1763.90930	         7.06245e+57
          1764.71560	         8.31805e+57
          1765.52190	         7.83126e+57
          1766.32820	         8.13744e+57
          1767.13450	         7.12839e+57
          1767.94080	         6.88034e+57
          1768.74710	         7.05101e+57
          1769.55340	         7.70455e+57
          1770.35970	         6.72387e+57
          1771.16600	         7.02695e+57
          1771.97230	         7.94563e+57
          1772.77860	         8.39670e+57
          1773.58490	         7.48438e+57
          1774.39120	         6.40145e+57
          1775.19750	         6.63853e+57
          1776.00380	         6.40894e+57
          1776.81010	         6.33761e+57
          1777.61640	         6.98194e+57
          1778.42270	         7.45085e+57
          1779.22900	         7.05176e+57
          1780.03530	         5.80477e+57
          1780.84160	         6.19852e+57
          1781.64790	         7.63338e+57
          1782.45420	         8.04872e+57
          1783.26050	         7.18653e+57
          1784.06680	         6.91062e+57
          1784.87310	         6.96811e+57
          1785.67940	         6.68284e+57
          1786.48570	         6.64303e+57
          1787.29200	         6.91036e+57
          1788.09830	         6.58564e+57
          1788.90460	         6.35135e+57
          1789.71090	         5.13958e+57
          1790.51720	         4.93809e+57
          1791.32350	         6.86673e+57
          1792.12980	         8.43389e+57
          1792.93610	         8.89744e+57
          1793.74240	         8.13311e+57
          1794.54870	         8.56812e+57
          1795.35500	         8.03610e+57
          1796.16130	         6.81932e+57
          1796.96760	         7.11034e+57
          1797.77390	         8.32275e+57
          1798.58020	         7.62032e+57
          1799.38650	         6.52057e+57
          1800.19280	         6.50000e+57
          1800.99910	         6.56972e+57
          1801.80540	         7.28181e+57
          1802.61170	         8.23142e+57
          1803.41800	         7.69769e+57
          1804.22430	         6.72737e+57
          1805.03060	         6.37764e+57
          1805.83690	         6.99221e+57
          1806.64320	         8.44583e+57
          1807.44950	         8.41845e+57
          1808.25580	         7.72583e+57
          1809.06210	         8.98639e+57
          1809.86840	         8.10272e+57
          1810.67470	         7.34129e+57
          1811.48100	         8.46953e+57
          1812.28730	         8.95595e+57
          1813.09360	         8.29535e+57
          1813.89990	         8.58923e+57
          1814.70620	         7.93340e+57
          1815.51250	         8.03745e+57
          1816.31880	         8.36026e+57
          1817.12510	         7.62487e+57
          1817.93140	         6.30162e+57
          1818.73770	         5.81095e+57
          1819.54400	         7.71377e+57
          1820.35030	         8.31106e+57
          1821.15660	         6.40128e+57
          1821.96290	         6.56763e+57
          1822.76920	         7.65303e+57
          1823.57550	         7.73234e+57
          1824.38180	         8.23536e+57
          1825.18810	         8.88205e+57
          1825.99440	         8.31006e+57
          1826.80070	         8.46416e+57
          1827.60700	         7.51085e+57
          1828.41330	         6.62793e+57
          1829.21960	         6.55869e+57
          1830.02590	         6.82923e+57
          1830.83220	         8.07934e+57
          1831.63850	         7.79225e+57
          1832.44480	         7.20960e+57
          1833.25110	         8.16393e+57
          1834.05740	         7.76287e+57
          1834.86370	         6.90883e+57
          1835.67000	         6.34719e+57
          1836.47630	         7.36620e+57
          1837.28260	         8.58399e+57
          1838.08890	         8.61154e+57
          1838.89520	         8.68338e+57
          1839.70150	         8.04301e+57
          1840.50780	         6.91114e+57
          1841.31410	         6.92306e+57
          1842.12040	         7.15161e+57
          1842.92670	         7.14678e+57
          1843.73300	         7.15747e+57
          1844.53930	         6.39631e+57
          1845.34560	         7.07808e+57
          1846.15190	         8.64880e+57
          1846.95820	         8.52904e+57
          1847.76450	         7.65843e+57
          1848.57080	         6.49434e+57
          1849.37710	         6.95458e+57
          1850.18340	         8.68747e+57
          1850.98970	         8.14566e+57
          1851.79600	         8.16729e+57
          1852.60230	         7.49628e+57
          1853.40860	         7.09775e+57
          1854.21490	         7.36407e+57
          1855.02120	         6.57442e+57
          1855.82750	         5.74136e+57
          1856.63380	         7.15263e+57
          1857.44010	         8.20710e+57
          1858.24640	         7.36370e+57
          1859.05270	         6.06261e+57
          1859.85900	         5.76125e+57
          1860.66530	         5.15039e+57
          1861.47160	         5.98659e+57
          1862.27790	         6.69323e+57
          1863.08420	         6.72401e+57
          1863.89050	         7.57278e+57
          1864.69680	         7.45588e+57
          1865.50310	         8.42814e+57
          1866.30940	         7.46997e+57
          1867.11570	         6.36902e+57
          1867.92200	         8.13925e+57
          1868.72830	         8.39616e+57
          1869.53460	         8.04591e+57
          1870.34090	         8.16503e+57
          1871.14720	         7.37670e+57
          1871.95350	         5.98412e+57
          1872.75980	         7.31266e+57
          1873.56610	         6.83927e+57
          1874.37240	         5.70269e+57
          1875.17870	         5.84437e+57
          1875.98500	         6.96900e+57
          1876.79130	         7.19731e+57
          1877.59760	         6.60055e+57
          1878.40390	         6.10639e+57
          1879.21020	         6.18680e+57
          1880.01650	         7.29615e+57
          1880.82280	         7.97937e+57
          1881.62910	         8.82513e+57
          1882.43540	         9.94855e+57
          1883.24170	         7.78523e+57
          1884.04800	         6.75003e+57
          1884.85430	         7.73454e+57
          1885.66060	         8.68582e+57
          1886.46690	         7.82285e+57
          1887.27320	         7.05319e+57
          1888.07950	         6.51395e+57
          1888.88580	         7.03600e+57
          1889.69210	         8.90039e+57
          1890.49840	         9.02424e+57
          1891.30470	         8.20905e+57
          1892.11100	         8.26121e+57
          1892.91730	         8.01390e+57
          1893.72360	         6.72855e+57
          1894.52990	         6.05882e+57
          1895.33620	         8.04510e+57
          1896.14250	         7.82028e+57
          1896.94880	         6.64906e+57
          1897.75510	         4.77020e+57
          1898.56140	         5.55656e+57
          1899.36770	         6.91905e+57
          1900.17400	         5.78921e+57
          1900.98030	         6.10668e+57
          1901.78660	         7.70487e+57
          1902.59290	         7.15695e+57
          1903.39920	         8.49734e+57
          1904.20550	         1.02120e+58
          1905.01180	         8.80122e+57
          1905.81810	         9.33589e+57
          1906.62440	         1.20920e+58
          1907.43070	         1.48307e+58
          1908.23700	         1.52004e+58
          1909.04330	         1.35005e+58
          1909.84960	         1.17996e+58
          1910.65590	         9.63755e+57
          1911.46220	         9.12510e+57
          1912.26850	         8.10994e+57
          1913.07480	         6.10366e+57
          1913.88110	         5.56960e+57
          1914.68740	         6.07395e+57
          1915.49370	         6.08383e+57
          1916.30000	         6.49692e+57
          1917.10630	         7.30977e+57
          1917.91260	         6.65997e+57
          1918.71890	         6.81870e+57
          1919.52520	         5.58120e+57
          1920.33150	         6.75121e+57
          1921.13780	         7.98566e+57
          1921.94410	         7.34770e+57
          1922.75040	         6.19335e+57
          1923.55670	         7.59883e+57
          1924.36300	         7.64145e+57
          1925.16930	         5.70133e+57
          1925.97560	         4.72589e+57
          1926.78190	         4.55645e+57
          1927.58820	         5.29087e+57
          1928.39450	         6.36864e+57
          1929.20080	         5.52602e+57
          1930.00710	         6.21644e+57
          1930.81340	         6.79576e+57
          1931.61970	         5.51321e+57
          1932.42600	         6.17844e+57
          1933.23230	         8.19124e+57
          1934.03860	         7.93845e+57
          1934.84490	         5.62893e+57
          1935.65120	         8.39807e+57
          1936.45750	         9.43401e+57
          1937.26380	         7.57591e+57
          1938.07010	         7.51241e+57
          1938.87640	         7.11362e+57
          1939.68270	         8.28945e+57
          1940.48900	         9.17092e+57
          1941.29530	         8.26038e+57
          1942.10160	         7.60425e+57
          1942.90790	         6.46568e+57
          1943.71420	         5.78271e+57
          1944.52050	         6.05516e+57
          1945.32680	         6.26314e+57
          1946.13310	         7.01485e+57
          1946.93940	         7.68262e+57
          1947.74570	         6.82865e+57
          1948.55200	         6.25938e+57
          1949.35830	         6.51660e+57
          1950.16460	         5.93105e+57
          1950.97090	         6.23536e+57
          1951.77720	         6.97288e+57
          1952.58350	         7.62193e+57
          1953.38980	         6.70435e+57
          1954.19610	         5.24908e+57
          1955.00240	         5.20893e+57
          1955.80870	         6.47578e+57
          1956.61500	         5.64280e+57
          1957.42130	         6.09890e+57
          1958.22760	         6.72579e+57
          1959.03390	         6.76319e+57
          1959.84020	         6.85851e+57
          1960.64650	         6.41569e+57
          1961.45280	         5.28458e+57
          1962.25910	         5.16340e+57
          1963.06540	         5.25473e+57
          1963.87170	         5.98024e+57
          1964.67800	         7.34212e+57
          1965.48430	         6.00957e+57
          1966.29060	         6.97595e+57
          1967.09690	         7.92236e+57
          1967.90320	         6.48932e+57
          1968.70950	         6.21098e+57
          1969.51580	         6.75119e+57
          1970.32210	         7.31041e+57
          1971.12840	         6.96725e+57
          1971.93470	         4.58357e+57
          1972.74100	         3.57336e+57
          1973.54730	         6.05091e+57
          1974.35360	         7.29852e+57
          1975.15990	         7.54426e+57
          1975.96620	         6.21137e+57
          1976.77250	         7.16209e+57
          1977.57880	         7.67717e+57
          1978.38510	         6.78119e+57
          1979.19140	         6.26372e+57
          1979.99770	         6.38962e+57
          1980.80400	         7.48967e+57
          1981.61030	         6.60137e+57
          1982.41660	         6.26893e+57
          1983.22290	         5.62808e+57
          1984.02920	         5.39863e+57
          1984.83550	         5.82400e+57
          1985.64180	         6.34910e+57
          1986.44810	         5.44750e+57
          1987.25440	         5.83655e+57
          1988.06070	         6.55786e+57
          1988.86700	         6.03030e+57
          1989.67330	         6.60713e+57
          1990.47960	         7.08098e+57
          1991.28590	         6.35619e+57
          1992.09220	         5.62919e+57
          1992.89850	         5.45864e+57
          1993.70480	         5.24561e+57
          1994.51110	         5.19611e+57
          1995.31740	         4.58816e+57
          1996.12370	         5.04130e+57
          1996.93000	         5.93408e+57
          1997.73630	         8.18744e+57
          1998.54260	         7.41500e+57
          1999.34890	         5.92722e+57
          2000.15520	         6.16575e+57
          2000.96150	         7.61100e+57
          2001.76780	         5.88322e+57
          2002.57410	         4.72796e+57
          2003.38040	         5.65690e+57
          2004.18670	         6.36336e+57
          2004.99300	         6.80336e+57
          2005.79930	         7.11690e+57
          2006.60560	         6.72907e+57
          2007.41190	         6.42915e+57
          2008.21820	         7.03249e+57
          2009.02450	         7.26528e+57
          2009.83080	         6.61380e+57
          2010.63710	         6.07445e+57
          2011.44340	         6.72243e+57
          2012.24970	         7.14799e+57
          2013.05600	         6.98912e+57
          2013.86230	         6.93358e+57
          2014.66860	         5.27404e+57
          2015.47490	         5.99055e+57
          2016.28120	         6.08012e+57
          2017.08750	         6.24913e+57
          2017.89380	         7.37325e+57
          2018.70010	         6.21849e+57
          2019.50640	         5.59688e+57
          2020.31270	         5.25117e+57
          2021.11900	         7.65063e+57
          2021.92530	         6.60283e+57
          2022.73160	         7.88484e+57
          2023.53790	         7.76473e+57
          2024.34420	         7.32054e+57
          2025.15050	         6.09830e+57
          2025.95680	         5.99866e+57
          2026.76310	         6.74719e+57
          2027.56940	         5.48023e+57
          2028.37570	         6.76342e+57
          2029.18200	         6.75911e+57
          2029.98830	         6.92906e+57
          2030.79460	         7.18336e+57
          2031.60090	         6.50499e+57
          2032.40720	         6.52096e+57
          2033.21350	         7.17125e+57
          2034.01980	         5.79444e+57
          2034.82610	         4.35898e+57
          2035.63240	         4.95143e+57
          2036.43870	         5.40261e+57
          2037.24500	         5.91152e+57
          2038.05130	         7.87471e+57
          2038.85760	         7.13104e+57
          2039.66390	         6.29023e+57
          2040.47020	         5.39474e+57
          2041.27650	         6.27701e+57
          2042.08280	         5.66025e+57
          2042.88910	         5.38449e+57
          2043.69540	         7.10097e+57
          2044.50170	         7.90771e+57
          2045.30800	         5.77760e+57
          2046.11430	         4.08054e+57
          2046.92060	         5.99068e+57
          2047.72690	         7.50797e+57
          2048.53320	         6.37726e+57
          2049.33950	         5.53872e+57
          2050.14580	         7.15623e+57
          2050.95210	         7.51549e+57
          2051.75840	         7.95823e+57
          2052.56470	         5.06659e+57
          2053.37100	         5.56473e+57
          2054.17730	         4.75420e+57
          2054.98360	         5.77739e+57
          2055.78990	         4.81222e+57
          2056.59620	         3.04418e+57
          2057.40250	         5.26752e+57
          2058.20880	         6.41742e+57
          2059.01510	         6.68707e+57
          2059.82140	         5.67640e+57
          2060.62770	         1.01658e+58
          2061.43400	         1.70691e+58
          2062.24030	         1.06818e+58
          2063.04660	         4.30017e+57
          2063.85290	         3.39125e+57
          2064.65920	        -2.05117e+57
          2065.46550	        -8.97447e+57
          2066.27180	        -8.18330e+57
          2067.07810	         2.75801e+57
          2067.88440	         7.12133e+57
          2068.69070	         5.40396e+57
          2069.49700	         4.84988e+57
          2070.30330	         3.72731e+57
          2071.10960	         6.13045e+57
          2071.91590	         5.78015e+57
          2072.72220	         4.64323e+57
          2073.52850	         5.09693e+57
          2074.33480	         5.10795e+57
          2075.14110	         5.22322e+57
          2075.94740	         3.98617e+57
          2076.75370	         4.79266e+57
          2077.56000	         5.49344e+57
          2078.36630	         6.05139e+57
          2079.17260	         5.47689e+57
          2079.97890	         5.85084e+57
          2080.78520	         5.53555e+57
          2081.59150	         4.35106e+57
          2082.39780	         5.72613e+57
          2083.20410	         4.61478e+57
          2084.01040	         2.86640e+57
          2084.81670	         3.74632e+57
          2085.62300	         3.74605e+57
          2086.42930	         2.52804e+57
          2087.23560	         3.16184e+57
          2088.04190	         4.31372e+57
          2088.84820	         4.09157e+57
          2089.65450	         4.12067e+57
          2090.46080	         1.20061e+57
          2091.26710	         2.61841e+57
          2092.07340	         3.76042e+57
          2092.87970	         2.59258e+57
          2093.68600	        -2.73918e+57
          2094.49230	         2.46532e+57
          2095.29860	         5.88884e+57
          2096.10490	         5.91563e+57
          2096.91120	         1.71995e+56
          2097.71750	        -4.72460e+56
          2098.52380	         2.06786e+57
          2099.33010	         9.46924e+56
          2100.13640	         3.60862e+57
          2100.94270	         3.63294e+57
          2101.74900	         2.77678e+57
          2102.55530	         2.48829e+57
          2103.36160	         9.21120e+56
          2104.16790	         2.61002e+57
          2104.97420	         3.27996e+57
          2105.78050	         2.73899e+57
          2106.58680	         3.60701e+57
          2107.39310	        -1.11485e+57
          2108.19940	         6.23142e+56
          2109.00570	        -1.05316e+57
          2109.81200	        -1.09626e+57
          2110.61830	         9.98845e+56
          2111.42460	        -6.49726e+56
          2112.23090	         9.71417e+55
          2113.03720	        -2.33015e+57
          2113.84350	        -1.35707e+57
          2114.64980	         6.89991e+57
          2115.45610	         2.07456e+57
          2116.26240	        -5.52936e+57
          2117.06870	        -2.00821e+57
          2117.87500	        -2.13656e+57
          2118.68130	        -1.39573e+57
          2119.48760	         2.11224e+57
          2120.29390	         2.23738e+57
          2121.10020	        -4.63385e+57
          2121.90650	        -8.40580e+56
          2122.71280	         8.71127e+55
          2123.51910	         8.00336e+56
          2124.32540	        -1.14128e+57
          2125.13170	        -1.26490e+57
          2125.93800	        -1.13506e+57
          2126.74430	        -2.35475e+57
          2127.55060	        -2.19545e+57
          2128.35690	        -6.48122e+56
          2129.16320	        -1.29582e+57
          2129.96950	         1.39027e+57
          2130.77580	         4.74688e+56
          2131.58210	         1.88743e+57
          2132.38840	        -9.59409e+56
          2133.19470	        -6.35312e+57
          2134.00100	        -3.46248e+57
          2134.80730	        -2.89179e+57
          2135.61360	         9.85406e+57
          2136.41990	         1.14805e+58
          2137.22620	         3.43614e+57
          2138.03250	        -5.15276e+54
          2138.83880	        -6.76022e+57
          2139.64510	        -4.20326e+57
          2140.45140	        -3.16602e+57
          2141.25770	        -7.75277e+57
          2142.06400	        -1.42861e+57
          2142.87030	         4.24765e+57
          2143.67660	         9.27349e+57
          2144.48290	         3.24211e+57
          2145.28920	         7.16642e+57
          2146.09550	        -5.25971e+57
          2146.90180	        -7.93752e+57
          2147.70810	        -2.56835e+57
          2148.51440	        -1.31823e+57
          2149.32070	        -1.03205e+58
          2150.12700	        -9.16761e+57
          2150.93330	        -6.23862e+57
          2151.73960	         6.56414e+57
          2152.54590	        -2.56756e+57
          2153.35220	        -5.45346e+57
          2154.15850	        -1.35812e+57
          2154.96480	        -2.26356e+57
          2155.77110	        -6.31626e+57
          2156.57740	        -1.28657e+58
          2157.38370	         4.94948e+57
          2158.19000	         5.09391e+57
          2158.99630	         1.98534e+57
          2159.80260	        -4.91416e+57
          2160.60890	        -8.37607e+57
          2161.41520	        -2.20496e+57
          2162.22150	        -1.04240e+58
          2163.02780	         9.01947e+56
          2163.83410	        -4.50909e+57
          2164.64040	        -9.05725e+57
          2165.44670	        -1.03725e+58
          2166.25300	        -9.03219e+57
          2167.05930	        -2.96078e+57
          2167.86560	        -8.34084e+57
          2168.67190	        -6.11566e+57
          2169.47820	        -3.17605e+57
          2170.28450	        -3.39020e+57
          2171.09080	        -4.25108e+57
          2171.89710	        -4.95924e+57
          2172.70340	        -9.65759e+57
          2173.50970	        -6.90764e+57
          2174.31600	        -3.42088e+57
          2175.12230	         2.27326e+57
          2175.92860	        -2.49552e+57
          2176.73490	        -4.01833e+57
          2177.54120	        -8.92458e+57
          2178.34750	        -4.38276e+57
          2179.15380	                 nan
          2179.96010	                 nan
          2180.76640	                 nan
          2181.57270	                 nan
          2182.37900	                 nan
          2183.18530	                 nan
          2183.99160	                 nan
          2184.79790	                 nan
          2185.60420	                 nan
          2186.41050	                 nan
          2187.21680	                 nan
          2188.02310	                 nan
          2188.82940	                 nan
          2189.63570	                 nan
          2190.44200	                 nan
          2191.24830	                 nan
          2192.05460	                 nan
          2192.86090	                 nan
          2193.66720	                 nan
          2194.47350	                 nan
          2195.27980	                 nan
          2196.08610	                 nan
          2196.89240	                 nan
          2197.69870	                 nan
          2198.50500	                 nan
          2199.31130	                 nan
          2200.11760	                 nan
          2200.92390	                 nan
          2201.73020	                 nan
          2202.53650	                 nan
          2203.34280	                 nan
          2204.14910	                 nan
          2204.95540	                 nan
          2205.76170	                 nan
          2206.56800	                 nan
          2207.37430	                 nan
          2208.18060	                 nan
          2208.98690	                 nan
          2209.79320	                 nan
          2210.59950	                 nan
          2211.40580	                 nan
          2212.21210	                 nan
          2213.01840	                 nan
          2213.82470	                 nan
          2214.63100	                 nan
          2215.43730	         0.00000e+00
