#sample_78_stacked_spectrum_rest_UV-bands_median_H-alpha_noDC.txt
#median Lum: 1.64167e+42
#Rest-frame wavelength (A) | Luminosity (erg/s/A)
#
          1110.00000	         0.00000e+00
          1110.80630	         2.56678e+58
          1111.61260	         1.48232e+57
          1112.41890	         2.29495e+59
          1113.22520	        -1.01092e+59
          1114.03150	        -2.39015e+59
          1114.83780	         1.72547e+59
          1115.64410	         1.30203e+59
          1116.45040	         1.23296e+59
          1117.25670	         1.14765e+59
          1118.06300	         1.12794e+59
          1118.86930	         7.18488e+58
          1119.67560	         1.05001e+57
          1120.48190	        -4.62417e+58
          1121.28820	        -6.07792e+58
          1122.09450	        -2.00225e+57
          1122.90080	         2.93760e+58
          1123.70710	         3.22537e+58
          1124.51340	         7.50321e+58
          1125.31970	         8.67801e+58
          1126.12600	         1.31703e+58
          1126.93230	        -9.63788e+58
          1127.73860	        -1.93041e+58
          1128.54490	         4.44439e+58
          1129.35120	         1.18523e+58
          1130.15750	        -4.19846e+58
          1130.96380	        -4.23312e+58
          1131.77010	         3.42467e+58
          1132.57640	         5.72009e+58
          1133.38270	         2.30217e+58
          1134.18900	         1.09236e+58
          1134.99530	         1.02014e+58
          1135.80160	         1.09161e+58
          1136.60790	         1.37559e+58
          1137.41420	         1.64664e+58
          1138.22050	         4.34321e+58
          1139.02680	         2.40230e+58
          1139.83310	         8.22883e+57
          1140.63940	         9.00544e+57
          1141.44570	        -1.94898e+57
          1142.25200	         1.30045e+58
          1143.05830	         2.68629e+58
          1143.86460	         4.60473e+58
          1144.67090	         1.42853e+58
          1145.47720	         4.64362e+57
          1146.28350	        -1.81547e+57
          1147.08980	         9.42923e+57
          1147.89610	         1.27008e+58
          1148.70240	         1.32780e+58
          1149.50870	         2.90659e+58
          1150.31500	         2.38549e+58
          1151.12130	         1.62693e+58
          1151.92760	        -1.55418e+57
          1152.73390	        -9.65883e+57
          1153.54020	        -7.02953e+57
          1154.34650	         2.18273e+58
          1155.15280	         2.24139e+58
          1155.95910	         1.23404e+58
          1156.76540	         1.84870e+58
          1157.57170	         9.33013e+57
          1158.37800	         7.97106e+57
          1159.18430	         1.40501e+56
          1159.99060	         6.69736e+57
          1160.79690	         3.03515e+57
          1161.60320	         1.07603e+58
          1162.40950	         1.15579e+58
          1163.21580	         1.92506e+58
          1164.02210	         1.59496e+58
          1164.82840	         3.41792e+57
          1165.63470	         2.16605e+58
          1166.44100	         2.71070e+58
          1167.24730	         1.54806e+58
          1168.05360	         8.72198e+57
          1168.85990	         1.08755e+58
          1169.66620	         9.57536e+57
          1170.47250	         1.16476e+58
          1171.27880	         8.29570e+57
          1172.08510	         3.27743e+57
          1172.89140	         4.73551e+56
          1173.69770	         7.59938e+57
          1174.50400	         6.78793e+57
          1175.31030	         1.37158e+58
          1176.11660	         2.04441e+58
          1176.92290	         1.38520e+58
          1177.72920	         9.26159e+57
          1178.53550	         8.04031e+57
          1179.34180	         6.02060e+57
          1180.14810	         8.37590e+57
          1180.95440	         4.71309e+57
          1181.76070	         2.67311e+57
          1182.56700	         6.26252e+57
          1183.37330	         3.36273e+57
          1184.17960	         1.12551e+58
          1184.98590	         9.48565e+57
          1185.79220	         9.10188e+57
          1186.59850	         1.35382e+58
          1187.40480	         9.27848e+57
          1188.21110	         1.70488e+58
          1189.01740	         9.19795e+57
          1189.82370	         1.24838e+58
          1190.63000	         1.25640e+58
          1191.43630	         1.39768e+58
          1192.24260	         1.05858e+58
          1193.04890	         1.49625e+58
          1193.85520	         8.29281e+57
          1194.66150	        -2.07038e+57
          1195.46780	         8.08469e+57
          1196.27410	         1.76778e+58
          1197.08040	         8.53491e+57
          1197.88670	         1.25512e+58
          1198.69300	         1.42274e+58
          1199.49930	         1.22492e+58
          1200.30560	         6.13077e+57
          1201.11190	         4.92831e+57
          1201.91820	         7.82900e+57
          1202.72450	         7.46018e+57
          1203.53080	         1.33718e+58
          1204.33710	         9.11055e+57
          1205.14340	         8.81357e+57
          1205.94970	         5.76465e+57
          1206.75600	         1.02137e+58
          1207.56230	         8.18229e+57
          1208.36860	         9.40364e+57
          1209.17490	         9.33688e+57
          1209.98120	         9.16428e+57
          1210.78750	         9.37173e+57
          1211.59380	         1.17629e+58
          1212.40010	         1.50535e+58
          1213.20640	         2.11671e+58
          1214.01270	         2.09969e+58
          1214.81900	         2.57500e+58
          1215.62530	         4.91371e+58
          1216.43160	         9.44669e+58
          1217.23790	         1.52178e+59
          1218.04420	         1.13610e+59
          1218.85050	         8.65100e+58
          1219.65680	         5.59070e+58
          1220.46310	         3.25111e+58
          1221.26940	         2.73044e+58
          1222.07570	         1.82652e+58
          1222.88200	         8.17764e+57
          1223.68830	         7.36671e+57
          1224.49460	         8.43424e+57
          1225.30090	         5.83484e+57
          1226.10720	         6.51886e+57
          1226.91350	         9.99292e+57
          1227.71980	         1.09384e+58
          1228.52610	         1.27087e+58
          1229.33240	         9.85483e+57
          1230.13870	         6.95874e+57
          1230.94500	         8.95634e+57
          1231.75130	         8.03319e+57
          1232.55760	         9.63697e+57
          1233.36390	         7.73300e+57
          1234.17020	         6.53189e+57
          1234.97650	         7.05238e+57
          1235.78280	         8.49205e+57
          1236.58910	         7.89586e+57
          1237.39540	         1.22170e+58
          1238.20170	         1.12698e+58
          1239.00800	         9.61484e+57
          1239.81430	         1.32207e+58
          1240.62060	         1.09966e+58
          1241.42690	         1.03714e+58
          1242.23320	         1.28594e+58
          1243.03950	         8.78968e+57
          1243.84580	         7.17254e+57
          1244.65210	         9.20125e+57
          1245.45840	         1.03186e+58
          1246.26470	         1.02559e+58
          1247.07100	         1.08634e+58
          1247.87730	         7.58284e+57
          1248.68360	         5.65450e+57
          1249.48990	         9.00127e+57
          1250.29620	         7.68847e+57
          1251.10250	         3.84799e+57
          1251.90880	         5.06111e+57
          1252.71510	         6.30496e+57
          1253.52140	         7.01237e+57
          1254.32770	         1.20478e+58
          1255.13400	         1.29351e+58
          1255.94030	         9.21941e+57
          1256.74660	         9.55153e+57
          1257.55290	         1.03449e+58
          1258.35920	         8.69557e+57
          1259.16550	         5.76798e+57
          1259.97180	         4.65327e+57
          1260.77810	         9.94744e+57
          1261.58440	         1.16665e+58
          1262.39070	         9.07217e+57
          1263.19700	         8.34740e+57
          1264.00330	         9.10085e+57
          1264.80960	         1.13370e+58
          1265.61590	         1.32252e+58
          1266.42220	         1.35900e+58
          1267.22850	         1.10451e+58
          1268.03480	         1.18096e+58
          1268.84110	         1.40621e+58
          1269.64740	         1.52836e+58
          1270.45370	         1.48903e+58
          1271.26000	         1.24333e+58
          1272.06630	         1.29929e+58
          1272.87260	         1.44304e+58
          1273.67890	         1.29101e+58
          1274.48520	         1.30966e+58
          1275.29150	         1.27864e+58
          1276.09780	         1.30611e+58
          1276.90410	         1.49601e+58
          1277.71040	         1.24678e+58
          1278.51670	         1.20052e+58
          1279.32300	         1.39922e+58
          1280.12930	         1.28017e+58
          1280.93560	         1.07615e+58
          1281.74190	         1.13926e+58
          1282.54820	         1.14899e+58
          1283.35450	         1.12659e+58
          1284.16080	         1.36876e+58
          1284.96710	         1.38696e+58
          1285.77340	         1.11475e+58
          1286.57970	         1.21947e+58
          1287.38600	         1.67053e+58
          1288.19230	         1.86911e+58
          1288.99860	         1.71238e+58
          1289.80490	         1.32013e+58
          1290.61120	         1.44712e+58
          1291.41750	         1.41094e+58
          1292.22380	         1.26643e+58
          1293.03010	         1.16649e+58
          1293.83640	         1.21143e+58
          1294.64270	         1.06491e+58
          1295.44900	         6.14132e+57
          1296.25530	         6.60229e+57
          1297.06160	         1.03727e+58
          1297.86790	         1.26436e+58
          1298.67420	         1.02631e+58
          1299.48050	         9.63309e+57
          1300.28680	         1.15732e+58
          1301.09310	         8.89897e+57
          1301.89940	         3.32936e+57
          1302.70570	         6.27131e+57
          1303.51200	         8.56915e+57
          1304.31830	         9.77198e+57
          1305.12460	         1.04860e+58
          1305.93090	         1.18440e+58
          1306.73720	         1.28483e+58
          1307.54350	         1.42492e+58
          1308.34980	         1.60824e+58
          1309.15610	         1.56992e+58
          1309.96240	         1.48707e+58
          1310.76870	         1.24823e+58
          1311.57500	         1.02889e+58
          1312.38130	         1.17022e+58
          1313.18760	         1.46621e+58
          1313.99390	         1.66229e+58
          1314.80020	         1.64090e+58
          1315.60650	         1.37418e+58
          1316.41280	         9.83772e+57
          1317.21910	         1.14597e+58
          1318.02540	         1.35643e+58
          1318.83170	         1.31255e+58
          1319.63800	         1.19320e+58
          1320.44430	         1.38828e+58
          1321.25060	         1.29028e+58
          1322.05690	         1.23093e+58
          1322.86320	         1.27962e+58
          1323.66950	         1.06911e+58
          1324.47580	         7.88790e+57
          1325.28210	         9.40925e+57
          1326.08840	         1.05028e+58
          1326.89470	         1.09483e+58
          1327.70100	         1.13293e+58
          1328.50730	         8.76113e+57
          1329.31360	         8.81273e+57
          1330.11990	         9.83492e+57
          1330.92620	         8.04445e+57
          1331.73250	         1.02405e+58
          1332.53880	         1.08690e+58
          1333.34510	         1.00969e+58
          1334.15140	         8.97368e+57
          1334.95770	         8.09445e+57
          1335.76400	         8.87844e+57
          1336.57030	         1.04983e+58
          1337.37660	         1.08398e+58
          1338.18290	         1.13031e+58
          1338.98920	         1.06868e+58
          1339.79550	         1.06518e+58
          1340.60180	         1.27834e+58
          1341.40810	         1.44383e+58
          1342.21440	         1.12173e+58
          1343.02070	         1.06189e+58
          1343.82700	         1.28497e+58
          1344.63330	         1.18796e+58
          1345.43960	         1.30199e+58
          1346.24590	         1.10377e+58
          1347.05220	         1.26154e+58
          1347.85850	         1.18608e+58
          1348.66480	         1.12764e+58
          1349.47110	         1.38820e+58
          1350.27740	         1.33849e+58
          1351.08370	         1.23531e+58
          1351.89000	         1.15077e+58
          1352.69630	         1.13791e+58
          1353.50260	         1.21556e+58
          1354.30890	         1.14550e+58
          1355.11520	         1.18438e+58
          1355.92150	         1.06007e+58
          1356.72780	         8.13154e+57
          1357.53410	         1.03875e+58
          1358.34040	         1.21533e+58
          1359.14670	         1.15435e+58
          1359.95300	         1.17698e+58
          1360.75930	         1.23208e+58
          1361.56560	         1.23549e+58
          1362.37190	         1.25370e+58
          1363.17820	         1.15753e+58
          1363.98450	         1.11495e+58
          1364.79080	         1.19300e+58
          1365.59710	         1.26828e+58
          1366.40340	         1.16294e+58
          1367.20970	         1.02710e+58
          1368.01600	         1.00241e+58
          1368.82230	         1.10709e+58
          1369.62860	         1.02864e+58
          1370.43490	         8.06685e+57
          1371.24120	         8.97881e+57
          1372.04750	         9.12832e+57
          1372.85380	         1.09675e+58
          1373.66010	         1.26897e+58
          1374.46640	         1.10264e+58
          1375.27270	         1.03685e+58
          1376.07900	         9.17645e+57
          1376.88530	         8.62171e+57
          1377.69160	         9.26614e+57
          1378.49790	         8.40052e+57
          1379.30420	         8.23361e+57
          1380.11050	         9.40332e+57
          1380.91680	         8.15896e+57
          1381.72310	         8.58774e+57
          1382.52940	         8.81239e+57
          1383.33570	         7.95370e+57
          1384.14200	         9.80636e+57
          1384.94830	         1.11969e+58
          1385.75460	         9.73192e+57
          1386.56090	         1.06057e+58
          1387.36720	         1.20869e+58
          1388.17350	         1.36937e+58
          1388.97980	         1.18110e+58
          1389.78610	         9.23798e+57
          1390.59240	         7.33445e+57
          1391.39870	         5.68770e+57
          1392.20500	         7.92249e+57
          1393.01130	         8.52331e+57
          1393.81760	         7.92207e+57
          1394.62390	         7.59448e+57
          1395.43020	         7.68198e+57
          1396.23650	         6.52609e+57
          1397.04280	         5.92387e+57
          1397.84910	         7.39175e+57
          1398.65540	         8.58487e+57
          1399.46170	         8.76626e+57
          1400.26800	         7.91214e+57
          1401.07430	         7.08656e+57
          1401.88060	         7.92236e+57
          1402.68690	         9.00033e+57
          1403.49320	         9.15564e+57
          1404.29950	         1.01764e+58
          1405.10580	         1.08396e+58
          1405.91210	         1.24926e+58
          1406.71840	         1.13375e+58
          1407.52470	         9.83053e+57
          1408.33100	         8.87028e+57
          1409.13730	         9.97049e+57
          1409.94360	         1.20173e+58
          1410.74990	         1.26210e+58
          1411.55620	         1.02596e+58
          1412.36250	         9.13273e+57
          1413.16880	         9.08728e+57
          1413.97510	         9.11810e+57
          1414.78140	         9.01797e+57
          1415.58770	         9.64712e+57
          1416.39400	         1.10474e+58
          1417.20030	         1.07902e+58
          1418.00660	         9.93240e+57
          1418.81290	         1.09971e+58
          1419.61920	         1.24712e+58
          1420.42550	         1.22561e+58
          1421.23180	         1.27067e+58
          1422.03810	         1.35229e+58
          1422.84440	         1.28964e+58
          1423.65070	         1.26198e+58
          1424.45700	         1.15241e+58
          1425.26330	         9.02227e+57
          1426.06960	         7.80561e+57
          1426.87590	         8.96061e+57
          1427.68220	         1.11914e+58
          1428.48850	         1.18389e+58
          1429.29480	         9.88158e+57
          1430.10110	         9.32125e+57
          1430.90740	         8.86135e+57
          1431.71370	         8.61078e+57
          1432.52000	         9.23730e+57
          1433.32630	         8.17031e+57
          1434.13260	         7.95098e+57
          1434.93890	         7.51468e+57
          1435.74520	         8.15605e+57
          1436.55150	         9.77821e+57
          1437.35780	         9.14110e+57
          1438.16410	         9.08536e+57
          1438.97040	         9.52641e+57
          1439.77670	         9.88625e+57
          1440.58300	         1.00016e+58
          1441.38930	         9.60520e+57
          1442.19560	         9.59797e+57
          1443.00190	         9.75147e+57
          1443.80820	         1.03845e+58
          1444.61450	         9.90265e+57
          1445.42080	         8.37072e+57
          1446.22710	         1.02321e+58
          1447.03340	         1.04305e+58
          1447.83970	         1.06490e+58
          1448.64600	         1.10912e+58
          1449.45230	         8.78271e+57
          1450.25860	         9.11406e+57
          1451.06490	         8.65924e+57
          1451.87120	         7.40237e+57
          1452.67750	         6.71412e+57
          1453.48380	         7.17949e+57
          1454.29010	         8.20363e+57
          1455.09640	         8.62354e+57
          1455.90270	         9.49810e+57
          1456.70900	         8.95708e+57
          1457.51530	         9.36172e+57
          1458.32160	         1.12401e+58
          1459.12790	         1.11395e+58
          1459.93420	         9.12443e+57
          1460.74050	         8.19236e+57
          1461.54680	         8.41214e+57
          1462.35310	         8.86354e+57
          1463.15940	         1.06614e+58
          1463.96570	         1.18959e+58
          1464.77200	         1.26020e+58
          1465.57830	         1.20469e+58
          1466.38460	         9.91341e+57
          1467.19090	         8.21777e+57
          1467.99720	         7.26579e+57
          1468.80350	         9.52632e+57
          1469.60980	         1.15041e+58
          1470.41610	         1.10783e+58
          1471.22240	         9.63747e+57
          1472.02870	         1.04493e+58
          1472.83500	         1.10136e+58
          1473.64130	         1.02230e+58
          1474.44760	         9.80474e+57
          1475.25390	         9.09053e+57
          1476.06020	         8.39773e+57
          1476.86650	         8.87276e+57
          1477.67280	         9.01279e+57
          1478.47910	         7.19019e+57
          1479.28540	         7.53525e+57
          1480.09170	         8.24811e+57
          1480.89800	         8.28485e+57
          1481.70430	         8.82682e+57
          1482.51060	         8.57245e+57
          1483.31690	         6.94990e+57
          1484.12320	         7.30088e+57
          1484.92950	         7.92830e+57
          1485.73580	         7.15736e+57
          1486.54210	         7.61991e+57
          1487.34840	         7.90176e+57
          1488.15470	         7.79094e+57
          1488.96100	         7.74430e+57
          1489.76730	         7.25316e+57
          1490.57360	         7.54935e+57
          1491.37990	         7.68496e+57
          1492.18620	         7.83628e+57
          1492.99250	         7.35272e+57
          1493.79880	         6.98644e+57
          1494.60510	         7.93137e+57
          1495.41140	         7.88049e+57
          1496.21770	         9.34006e+57
          1497.02400	         1.05959e+58
          1497.83030	         8.59112e+57
          1498.63660	         6.91961e+57
          1499.44290	         6.86895e+57
          1500.24920	         7.45432e+57
          1501.05550	         8.32558e+57
          1501.86180	         8.41405e+57
          1502.66810	         9.96251e+57
          1503.47440	         1.03048e+58
          1504.28070	         8.79722e+57
          1505.08700	         9.14905e+57
          1505.89330	         8.39247e+57
          1506.69960	         7.67751e+57
          1507.50590	         7.64401e+57
          1508.31220	         8.41431e+57
          1509.11850	         8.27486e+57
          1509.92480	         8.77500e+57
          1510.73110	         8.69174e+57
          1511.53740	         7.17763e+57
          1512.34370	         6.55828e+57
          1513.15000	         8.93803e+57
          1513.95630	         9.74048e+57
          1514.76260	         8.87075e+57
          1515.56890	         7.96024e+57
          1516.37520	         7.91441e+57
          1517.18150	         7.65434e+57
          1517.98780	         8.27125e+57
          1518.79410	         8.32377e+57
          1519.60040	         7.98282e+57
          1520.40670	         9.53906e+57
          1521.21300	         9.70077e+57
          1522.01930	         8.59580e+57
          1522.82560	         9.11865e+57
          1523.63190	         9.72959e+57
          1524.43820	         8.78910e+57
          1525.24450	         6.59783e+57
          1526.05080	         5.24788e+57
          1526.85710	         5.84721e+57
          1527.66340	         7.36907e+57
          1528.46970	         8.36824e+57
          1529.27600	         7.15458e+57
          1530.08230	         6.13093e+57
          1530.88860	         7.43570e+57
          1531.69490	         8.31123e+57
          1532.50120	         7.87153e+57
          1533.30750	         9.20813e+57
          1534.11380	         9.98412e+57
          1534.92010	         8.99392e+57
          1535.72640	         8.98543e+57
          1536.53270	         9.39980e+57
          1537.33900	         9.37585e+57
          1538.14530	         8.49380e+57
          1538.95160	         7.99883e+57
          1539.75790	         8.01457e+57
          1540.56420	         7.65857e+57
          1541.37050	         7.07472e+57
          1542.17680	         6.76325e+57
          1542.98310	         6.34860e+57
          1543.78940	         6.89432e+57
          1544.59570	         7.39465e+57
          1545.40200	         7.92495e+57
          1546.20830	         9.78969e+57
          1547.01460	         1.03762e+58
          1547.82090	         1.13390e+58
          1548.62720	         1.29905e+58
          1549.43350	         1.23583e+58
          1550.23980	         1.05872e+58
          1551.04610	         1.16741e+58
          1551.85240	         1.27087e+58
          1552.65870	         1.34256e+58
          1553.46500	         1.09963e+58
          1554.27130	         1.03310e+58
          1555.07760	         1.03348e+58
          1555.88390	         9.30421e+57
          1556.69020	         9.42026e+57
          1557.49650	         9.14944e+57
          1558.30280	         8.11498e+57
          1559.10910	         8.27689e+57
          1559.91540	         8.84026e+57
          1560.72170	         8.75332e+57
          1561.52800	         8.70640e+57
          1562.33430	         9.13196e+57
          1563.14060	         8.65348e+57
          1563.94690	         8.16516e+57
          1564.75320	         8.24970e+57
          1565.55950	         7.69396e+57
          1566.36580	         7.30093e+57
          1567.17210	         8.59007e+57
          1567.97840	         9.11715e+57
          1568.78470	         8.71097e+57
          1569.59100	         8.89237e+57
          1570.39730	         7.94561e+57
          1571.20360	         7.21988e+57
          1572.00990	         7.58195e+57
          1572.81620	         8.33375e+57
          1573.62250	         1.05460e+58
          1574.42880	         1.07645e+58
          1575.23510	         8.06747e+57
          1576.04140	         8.04774e+57
          1576.84770	         8.98657e+57
          1577.65400	         9.50140e+57
          1578.46030	         9.99296e+57
          1579.26660	         1.02172e+58
          1580.07290	         8.40756e+57
          1580.87920	         7.13659e+57
          1581.68550	         7.49169e+57
          1582.49180	         8.50132e+57
          1583.29810	         8.43186e+57
          1584.10440	         9.38717e+57
          1584.91070	         9.04513e+57
          1585.71700	         8.94262e+57
          1586.52330	         9.29993e+57
          1587.32960	         8.92953e+57
          1588.13590	         8.77838e+57
          1588.94220	         8.68911e+57
          1589.74850	         9.55615e+57
          1590.55480	         9.68688e+57
          1591.36110	         8.60833e+57
          1592.16740	         8.44377e+57
          1592.97370	         8.93492e+57
          1593.78000	         9.11840e+57
          1594.58630	         9.39156e+57
          1595.39260	         8.83472e+57
          1596.19890	         8.46745e+57
          1597.00520	         8.38469e+57
          1597.81150	         9.08262e+57
          1598.61780	         7.91026e+57
          1599.42410	         6.93451e+57
          1600.23040	         6.27252e+57
          1601.03670	         7.88232e+57
          1601.84300	         7.98342e+57
          1602.64930	         7.98516e+57
          1603.45560	         8.27443e+57
          1604.26190	         8.39895e+57
          1605.06820	         8.87955e+57
          1605.87450	         7.76870e+57
          1606.68080	         7.32782e+57
          1607.48710	         6.98027e+57
          1608.29340	         6.74656e+57
          1609.09970	         7.04623e+57
          1609.90600	         8.15615e+57
          1610.71230	         7.74906e+57
          1611.51860	         7.88306e+57
          1612.32490	         7.35688e+57
          1613.13120	         7.34057e+57
          1613.93750	         8.51309e+57
          1614.74380	         9.05814e+57
          1615.55010	         9.46661e+57
          1616.35640	         9.17965e+57
          1617.16270	         1.00695e+58
          1617.96900	         1.05997e+58
          1618.77530	         9.23427e+57
          1619.58160	         8.91580e+57
          1620.38790	         8.15078e+57
          1621.19420	         8.40989e+57
          1622.00050	         8.62965e+57
          1622.80680	         9.48902e+57
          1623.61310	         8.99502e+57
          1624.41940	         8.01889e+57
          1625.22570	         8.99688e+57
          1626.03200	         9.77903e+57
          1626.83830	         9.06185e+57
          1627.64460	         6.69054e+57
          1628.45090	         5.04539e+57
          1629.25720	         7.70381e+57
          1630.06350	         9.54814e+57
          1630.86980	         6.08356e+57
          1631.67610	         7.77889e+57
          1632.48240	         9.59902e+57
          1633.28870	         7.77272e+57
          1634.09500	         8.69327e+57
          1634.90130	         1.08431e+58
          1635.70760	         9.55501e+57
          1636.51390	         6.87036e+57
          1637.32020	         7.32074e+57
          1638.12650	         9.86069e+57
          1638.93280	         1.00866e+58
          1639.73910	         1.11836e+58
          1640.54540	         1.03479e+58
          1641.35170	         8.86608e+57
          1642.15800	         9.21800e+57
          1642.96430	         9.39020e+57
          1643.77060	         1.06009e+58
          1644.57690	         8.62935e+57
          1645.38320	         7.62780e+57
          1646.18950	         7.28569e+57
          1646.99580	         8.55283e+57
          1647.80210	         7.77160e+57
          1648.60840	         7.14773e+57
          1649.41470	         8.59468e+57
          1650.22100	         7.67998e+57
          1651.02730	         7.16935e+57
          1651.83360	         6.98026e+57
          1652.63990	         8.37432e+57
          1653.44620	         9.20036e+57
          1654.25250	         7.78192e+57
          1655.05880	         7.37505e+57
          1655.86510	         7.68192e+57
          1656.67140	         8.42762e+57
          1657.47770	         9.18728e+57
          1658.28400	         8.20027e+57
          1659.09030	         8.07077e+57
          1659.89660	         8.34659e+57
          1660.70290	         9.52129e+57
          1661.50920	         9.96062e+57
          1662.31550	         8.99317e+57
          1663.12180	         8.82945e+57
          1663.92810	         9.34464e+57
          1664.73440	         1.04051e+58
          1665.54070	         1.22891e+58
          1666.34700	         1.34686e+58
          1667.15330	         1.17208e+58
          1667.95960	         8.59073e+57
          1668.76590	         6.71051e+57
          1669.57220	         6.66709e+57
          1670.37850	         7.28361e+57
          1671.18480	         7.89788e+57
          1671.99110	         8.10736e+57
          1672.79740	         7.24020e+57
          1673.60370	         7.36290e+57
          1674.41000	         7.47409e+57
          1675.21630	         6.65244e+57
          1676.02260	         6.58979e+57
          1676.82890	         6.50039e+57
          1677.63520	         6.76826e+57
          1678.44150	         7.32754e+57
          1679.24780	         8.49318e+57
          1680.05410	         7.85870e+57
          1680.86040	         5.64580e+57
          1681.66670	         7.13907e+57
          1682.47300	         8.09380e+57
          1683.27930	         8.01406e+57
          1684.08560	         9.15964e+57
          1684.89190	         8.71301e+57
          1685.69820	         5.47263e+57
          1686.50450	         4.45408e+57
          1687.31080	         5.88073e+57
          1688.11710	         7.15325e+57
          1688.92340	         6.48929e+57
          1689.72970	         6.90279e+57
          1690.53600	         6.00075e+57
          1691.34230	         6.09007e+57
          1692.14860	         7.16649e+57
          1692.95490	         8.10189e+57
          1693.76120	         6.90793e+57
          1694.56750	         7.17349e+57
          1695.37380	         9.80373e+57
          1696.18010	         8.55046e+57
          1696.98640	         8.02918e+57
          1697.79270	         9.07190e+57
          1698.59900	         9.31601e+57
          1699.40530	         8.15859e+57
          1700.21160	         7.33582e+57
          1701.01790	         8.14472e+57
          1701.82420	         8.30742e+57
          1702.63050	         7.94951e+57
          1703.43680	         7.29919e+57
          1704.24310	         7.96073e+57
          1705.04940	         7.50162e+57
          1705.85570	         7.95146e+57
          1706.66200	         9.87306e+57
          1707.46830	         9.60785e+57
          1708.27460	         7.43549e+57
          1709.08090	         6.03729e+57
          1709.88720	         6.42228e+57
          1710.69350	         6.69760e+57
          1711.49980	         7.12757e+57
          1712.30610	         7.56881e+57
          1713.11240	         8.78097e+57
          1713.91870	         7.81704e+57
          1714.72500	         8.00394e+57
          1715.53130	         8.60666e+57
          1716.33760	         8.15432e+57
          1717.14390	         7.89427e+57
          1717.95020	         8.87421e+57
          1718.75650	         8.89623e+57
          1719.56280	         8.26884e+57
          1720.36910	         6.87655e+57
          1721.17540	         7.33665e+57
          1721.98170	         6.15411e+57
          1722.78800	         6.35564e+57
          1723.59430	         7.32062e+57
          1724.40060	         8.13911e+57
          1725.20690	         8.08154e+57
          1726.01320	         8.33074e+57
          1726.81950	         7.76885e+57
          1727.62580	         7.27288e+57
          1728.43210	         6.98575e+57
          1729.23840	         7.93223e+57
          1730.04470	         8.55504e+57
          1730.85100	         8.67280e+57
          1731.65730	         8.74823e+57
          1732.46360	         8.37980e+57
          1733.26990	         6.72632e+57
          1734.07620	         6.82887e+57
          1734.88250	         8.31075e+57
          1735.68880	         8.17911e+57
          1736.49510	         7.88658e+57
          1737.30140	         8.38120e+57
          1738.10770	         6.89137e+57
          1738.91400	         6.76152e+57
          1739.72030	         7.56465e+57
          1740.52660	         5.79935e+57
          1741.33290	         5.37447e+57
          1742.13920	         6.16390e+57
          1742.94550	         7.06990e+57
          1743.75180	         7.12177e+57
          1744.55810	         7.44030e+57
          1745.36440	         7.42363e+57
          1746.17070	         5.06204e+57
          1746.97700	         5.54471e+57
          1747.78330	         6.69431e+57
          1748.58960	         6.05117e+57
          1749.39590	         6.26657e+57
          1750.20220	         6.27013e+57
          1751.00850	         7.39498e+57
          1751.81480	         6.77936e+57
          1752.62110	         7.58788e+57
          1753.42740	         7.97092e+57
          1754.23370	         6.48206e+57
          1755.04000	         6.65812e+57
          1755.84630	         9.10402e+57
          1756.65260	         1.03731e+58
          1757.45890	         9.67924e+57
          1758.26520	         6.95932e+57
          1759.07150	         8.05479e+57
          1759.87780	         7.74058e+57
          1760.68410	         8.04457e+57
          1761.49040	         7.83785e+57
          1762.29670	         6.27714e+57
          1763.10300	         6.31227e+57
          1763.90930	         6.14962e+57
          1764.71560	         7.23551e+57
          1765.52190	         7.17658e+57
          1766.32820	         8.01120e+57
          1767.13450	         8.21984e+57
          1767.94080	         7.00646e+57
          1768.74710	         7.23214e+57
          1769.55340	         7.27029e+57
          1770.35970	         6.61922e+57
          1771.16600	         7.46081e+57
          1771.97230	         8.44858e+57
          1772.77860	         8.88570e+57
          1773.58490	         7.63853e+57
          1774.39120	         6.36313e+57
          1775.19750	         5.67175e+57
          1776.00380	         6.94570e+57
          1776.81010	         7.36537e+57
          1777.61640	         6.61554e+57
          1778.42270	         6.73214e+57
          1779.22900	         6.56212e+57
          1780.03530	         6.99291e+57
          1780.84160	         7.60736e+57
          1781.64790	         8.61570e+57
          1782.45420	         7.57051e+57
          1783.26050	         6.24395e+57
          1784.06680	         6.54136e+57
          1784.87310	         6.89675e+57
          1785.67940	         7.26080e+57
          1786.48570	         7.21846e+57
          1787.29200	         6.25984e+57
          1788.09830	         6.34911e+57
          1788.90460	         5.77107e+57
          1789.71090	         5.61457e+57
          1790.51720	         5.72693e+57
          1791.32350	         7.81219e+57
          1792.12980	         9.17495e+57
          1792.93610	         7.83382e+57
          1793.74240	         6.80144e+57
          1794.54870	         7.46748e+57
          1795.35500	         8.40177e+57
          1796.16130	         8.43403e+57
          1796.96760	         6.61470e+57
          1797.77390	         7.11132e+57
          1798.58020	         7.98963e+57
          1799.38650	         6.99286e+57
          1800.19280	         7.32336e+57
          1800.99910	         7.96679e+57
          1801.80540	         7.51406e+57
          1802.61170	         8.71158e+57
          1803.41800	         8.52765e+57
          1804.22430	         7.53203e+57
          1805.03060	         6.87615e+57
          1805.83690	         8.09339e+57
          1806.64320	         8.26998e+57
          1807.44950	         7.85318e+57
          1808.25580	         7.66687e+57
          1809.06210	         8.47311e+57
          1809.86840	         8.26249e+57
          1810.67470	         7.98539e+57
          1811.48100	         8.64085e+57
          1812.28730	         8.46869e+57
          1813.09360	         7.85151e+57
          1813.89990	         7.88626e+57
          1814.70620	         7.07184e+57
          1815.51250	         7.25931e+57
          1816.31880	         7.69338e+57
          1817.12510	         7.04031e+57
          1817.93140	         6.41848e+57
          1818.73770	         6.90505e+57
          1819.54400	         8.21066e+57
          1820.35030	         8.09771e+57
          1821.15660	         6.59582e+57
          1821.96290	         6.42608e+57
          1822.76920	         7.19914e+57
          1823.57550	         7.97018e+57
          1824.38180	         7.10128e+57
          1825.18810	         7.65395e+57
          1825.99440	         8.45338e+57
          1826.80070	         7.58537e+57
          1827.60700	         7.43734e+57
          1828.41330	         6.01753e+57
          1829.21960	         6.19196e+57
          1830.02590	         7.24545e+57
          1830.83220	         7.79779e+57
          1831.63850	         6.84598e+57
          1832.44480	         6.71528e+57
          1833.25110	         8.85474e+57
          1834.05740	         9.19977e+57
          1834.86370	         6.22722e+57
          1835.67000	         5.39261e+57
          1836.47630	         7.08216e+57
          1837.28260	         8.71537e+57
          1838.08890	         8.61146e+57
          1838.89520	         7.66038e+57
          1839.70150	         7.97849e+57
          1840.50780	         7.58003e+57
          1841.31410	         6.95834e+57
          1842.12040	         7.15645e+57
          1842.92670	         7.05389e+57
          1843.73300	         6.15961e+57
          1844.53930	         6.60087e+57
          1845.34560	         6.50881e+57
          1846.15190	         7.57650e+57
          1846.95820	         7.68452e+57
          1847.76450	         7.38735e+57
          1848.57080	         6.03006e+57
          1849.37710	         5.77587e+57
          1850.18340	         6.28554e+57
          1850.98970	         7.17276e+57
          1851.79600	         8.49156e+57
          1852.60230	         7.78053e+57
          1853.40860	         6.78847e+57
          1854.21490	         6.74915e+57
          1855.02120	         6.29777e+57
          1855.82750	         4.55020e+57
          1856.63380	         6.23072e+57
          1857.44010	         8.34938e+57
          1858.24640	         7.73521e+57
          1859.05270	         7.56672e+57
          1859.85900	         5.89982e+57
          1860.66530	         5.75855e+57
          1861.47160	         6.81227e+57
          1862.27790	         7.49526e+57
          1863.08420	         8.46688e+57
          1863.89050	         8.94393e+57
          1864.69680	         7.63298e+57
          1865.50310	         7.54185e+57
          1866.30940	         6.25353e+57
          1867.11570	         5.56072e+57
          1867.92200	         7.06963e+57
          1868.72830	         8.13044e+57
          1869.53460	         7.28198e+57
          1870.34090	         7.21441e+57
          1871.14720	         7.68827e+57
          1871.95350	         7.64996e+57
          1872.75980	         7.73758e+57
          1873.56610	         6.58091e+57
          1874.37240	         6.17714e+57
          1875.17870	         6.26022e+57
          1875.98500	         7.54575e+57
          1876.79130	         7.61458e+57
          1877.59760	         7.35272e+57
          1878.40390	         6.51816e+57
          1879.21020	         6.43780e+57
          1880.01650	         7.63394e+57
          1880.82280	         8.61310e+57
          1881.62910	         9.17425e+57
          1882.43540	         1.00859e+58
          1883.24170	         7.80011e+57
          1884.04800	         5.99777e+57
          1884.85430	         6.84317e+57
          1885.66060	         8.43790e+57
          1886.46690	         8.24804e+57
          1887.27320	         7.75164e+57
          1888.07950	         5.93374e+57
          1888.88580	         6.59250e+57
          1889.69210	         9.28906e+57
          1890.49840	         8.77073e+57
          1891.30470	         7.49011e+57
          1892.11100	         8.11993e+57
          1892.91730	         7.68930e+57
          1893.72360	         7.17818e+57
          1894.52990	         6.56014e+57
          1895.33620	         8.22153e+57
          1896.14250	         7.33129e+57
          1896.94880	         5.42203e+57
          1897.75510	         4.33677e+57
          1898.56140	         5.37903e+57
          1899.36770	         6.80542e+57
          1900.17400	         6.61779e+57
          1900.98030	         7.39608e+57
          1901.78660	         7.78021e+57
          1902.59290	         7.44272e+57
          1903.39920	         8.99810e+57
          1904.20550	         8.36129e+57
          1905.01180	         7.86349e+57
          1905.81810	         1.02836e+58
          1906.62440	         1.25387e+58
          1907.43070	         1.53509e+58
          1908.23700	         1.55015e+58
          1909.04330	         1.25569e+58
          1909.84960	         1.12284e+58
          1910.65590	         1.02522e+58
          1911.46220	         9.92411e+57
          1912.26850	         7.44205e+57
          1913.07480	         6.24118e+57
          1913.88110	         5.91861e+57
          1914.68740	         5.02761e+57
          1915.49370	         5.20808e+57
          1916.30000	         5.59120e+57
          1917.10630	         6.21220e+57
          1917.91260	         6.71173e+57
          1918.71890	         6.24019e+57
          1919.52520	         6.17698e+57
          1920.33150	         5.62035e+57
          1921.13780	         6.69418e+57
          1921.94410	         7.51024e+57
          1922.75040	         6.72369e+57
          1923.55670	         7.94812e+57
          1924.36300	         7.79199e+57
          1925.16930	         6.53143e+57
          1925.97560	         5.60525e+57
          1926.78190	         4.58399e+57
          1927.58820	         6.05283e+57
          1928.39450	         6.88614e+57
          1929.20080	         5.46163e+57
          1930.00710	         7.51170e+57
          1930.81340	         7.68194e+57
          1931.61970	         7.01289e+57
          1932.42600	         7.28643e+57
          1933.23230	         7.44346e+57
          1934.03860	         6.73445e+57
          1934.84490	         6.38599e+57
          1935.65120	         7.78184e+57
          1936.45750	         8.53024e+57
          1937.26380	         7.43844e+57
          1938.07010	         6.70226e+57
          1938.87640	         6.38085e+57
          1939.68270	         6.60299e+57
          1940.48900	         7.76386e+57
          1941.29530	         9.03481e+57
          1942.10160	         7.67616e+57
          1942.90790	         7.10363e+57
          1943.71420	         7.29756e+57
          1944.52050	         6.63350e+57
          1945.32680	         6.34883e+57
          1946.13310	         7.66030e+57
          1946.93940	         8.80739e+57
          1947.74570	         7.55673e+57
          1948.55200	         6.29981e+57
          1949.35830	         6.65464e+57
          1950.16460	         5.91130e+57
          1950.97090	         6.25358e+57
          1951.77720	         7.49755e+57
          1952.58350	         8.13250e+57
          1953.38980	         7.17402e+57
          1954.19610	         5.31758e+57
          1955.00240	         5.32343e+57
          1955.80870	         5.65313e+57
          1956.61500	         6.49152e+57
          1957.42130	         6.87022e+57
          1958.22760	         7.07201e+57
          1959.03390	         6.95217e+57
          1959.84020	         7.79390e+57
          1960.64650	         7.91770e+57
          1961.45280	         6.67890e+57
          1962.25910	         6.95185e+57
          1963.06540	         6.01186e+57
          1963.87170	         6.29822e+57
          1964.67800	         7.09675e+57
          1965.48430	         5.49058e+57
          1966.29060	         5.19684e+57
          1967.09690	         6.57629e+57
          1967.90320	         6.45409e+57
          1968.70950	         6.95419e+57
          1969.51580	         6.60974e+57
          1970.32210	         6.46925e+57
          1971.12840	         7.18859e+57
          1971.93470	         6.13845e+57
          1972.74100	         5.79885e+57
          1973.54730	         6.87613e+57
          1974.35360	         6.62890e+57
          1975.15990	         8.14576e+57
          1975.96620	         7.69996e+57
          1976.77250	         7.74334e+57
          1977.57880	         7.64230e+57
          1978.38510	         6.29748e+57
          1979.19140	         7.65764e+57
          1979.99770	         7.83336e+57
          1980.80400	         8.30236e+57
          1981.61030	         7.53612e+57
          1982.41660	         6.88907e+57
          1983.22290	         6.68035e+57
          1984.02920	         5.96580e+57
          1984.83550	         6.38909e+57
          1985.64180	         6.70897e+57
          1986.44810	         6.49404e+57
          1987.25440	         5.55198e+57
          1988.06070	         5.42764e+57
          1988.86700	         6.26109e+57
          1989.67330	         6.09282e+57
          1990.47960	         6.51093e+57
          1991.28590	         6.02463e+57
          1992.09220	         6.45400e+57
          1992.89850	         5.72378e+57
          1993.70480	         5.20376e+57
          1994.51110	         4.98612e+57
          1995.31740	         5.30835e+57
          1996.12370	         5.42863e+57
          1996.93000	         5.89137e+57
          1997.73630	         7.33723e+57
          1998.54260	         6.59169e+57
          1999.34890	         6.77201e+57
          2000.15520	         6.96955e+57
          2000.96150	         7.33436e+57
          2001.76780	         6.80698e+57
          2002.57410	         4.77376e+57
          2003.38040	         5.53175e+57
          2004.18670	         6.40933e+57
          2004.99300	         6.30234e+57
          2005.79930	         7.57683e+57
          2006.60560	         7.37443e+57
          2007.41190	         5.71745e+57
          2008.21820	         6.11071e+57
          2009.02450	         6.73684e+57
          2009.83080	         7.05491e+57
          2010.63710	         7.49652e+57
          2011.44340	         7.45721e+57
          2012.24970	         6.86763e+57
          2013.05600	         6.45558e+57
          2013.86230	         6.29390e+57
          2014.66860	         6.01547e+57
          2015.47490	         6.22223e+57
          2016.28120	         6.00221e+57
          2017.08750	         6.21520e+57
          2017.89380	         6.49540e+57
          2018.70010	         6.95213e+57
          2019.50640	         6.54421e+57
          2020.31270	         6.79351e+57
          2021.11900	         6.85180e+57
          2021.92530	         7.01853e+57
          2022.73160	         6.96154e+57
          2023.53790	         7.49986e+57
          2024.34420	         6.66894e+57
          2025.15050	         6.16700e+57
          2025.95680	         6.53444e+57
          2026.76310	         6.73754e+57
          2027.56940	         7.73419e+57
          2028.37570	         6.59478e+57
          2029.18200	         5.94937e+57
          2029.98830	         6.41854e+57
          2030.79460	         6.87648e+57
          2031.60090	         7.00292e+57
          2032.40720	         5.99003e+57
          2033.21350	         5.41446e+57
          2034.01980	         5.97516e+57
          2034.82610	         5.00591e+57
          2035.63240	         5.73981e+57
          2036.43870	         5.63095e+57
          2037.24500	         6.30907e+57
          2038.05130	         7.21583e+57
          2038.85760	         7.39114e+57
          2039.66390	         6.98173e+57
          2040.47020	         5.49961e+57
          2041.27650	         5.30793e+57
          2042.08280	         5.10115e+57
          2042.88910	         6.20214e+57
          2043.69540	         6.52153e+57
          2044.50170	         6.11873e+57
          2045.30800	         4.95837e+57
          2046.11430	         4.08844e+57
          2046.92060	         5.23981e+57
          2047.72690	         6.82057e+57
          2048.53320	         5.79780e+57
          2049.33950	         4.54239e+57
          2050.14580	         5.20070e+57
          2050.95210	         6.49072e+57
          2051.75840	         7.02714e+57
          2052.56470	         6.55425e+57
          2053.37100	         4.43858e+57
          2054.17730	         4.90251e+57
          2054.98360	         5.72279e+57
          2055.78990	         3.60832e+57
          2056.59620	         3.00589e+57
          2057.40250	         5.17793e+57
          2058.20880	         6.36228e+57
          2059.01510	         6.79289e+57
          2059.82140	         6.26040e+57
          2060.62770	         1.03316e+58
          2061.43400	         1.49534e+58
          2062.24030	         1.23344e+58
          2063.04660	         4.91107e+57
          2063.85290	         1.53288e+57
          2064.65920	        -2.35025e+57
          2065.46550	        -8.54206e+57
          2066.27180	        -9.69595e+57
          2067.07810	         2.54525e+57
          2067.88440	         3.38394e+57
          2068.69070	         5.04432e+57
          2069.49700	         5.75774e+57
          2070.30330	         3.39675e+57
          2071.10960	         5.30658e+57
          2071.91590	         7.94324e+57
          2072.72220	         4.45145e+57
          2073.52850	         4.20094e+57
          2074.33480	         4.96062e+57
          2075.14110	         5.23388e+57
          2075.94740	         4.50463e+57
          2076.75370	         3.82948e+57
          2077.56000	         5.21893e+57
          2078.36630	         5.51972e+57
          2079.17260	         5.81499e+57
          2079.97890	         6.30835e+57
          2080.78520	         6.12942e+57
          2081.59150	         4.73083e+57
          2082.39780	         4.23823e+57
          2083.20410	         3.08161e+57
          2084.01040	         2.88886e+57
          2084.81670	         5.03229e+57
          2085.62300	         3.89592e+57
          2086.42930	         4.11992e+57
          2087.23560	         3.72583e+57
          2088.04190	         4.49970e+57
          2088.84820	         3.34480e+57
          2089.65450	         2.67811e+57
          2090.46080	         8.61002e+56
          2091.26710	         2.19317e+57
          2092.07340	         4.94104e+57
          2092.87970	         4.92422e+57
          2093.68600	         1.12597e+57
          2094.49230	         1.09974e+57
          2095.29860	         5.63611e+57
          2096.10490	         2.75512e+57
          2096.91120	         4.46336e+56
          2097.71750	        -2.21830e+56
          2098.52380	         1.82144e+57
          2099.33010	         2.89441e+56
          2100.13640	         7.23039e+56
          2100.94270	        -4.11310e+56
          2101.74900	         3.44732e+57
          2102.55530	         3.76489e+57
          2103.36160	         1.06909e+57
          2104.16790	         2.08452e+57
          2104.97420	         2.27985e+57
          2105.78050	         2.14488e+57
          2106.58680	         2.82513e+57
          2107.39310	        -4.48710e+56
          2108.19940	        -2.96110e+55
          2109.00570	        -1.02128e+57
          2109.81200	         1.62033e+57
          2110.61830	         2.48635e+57
          2111.42460	         4.56606e+56
          2112.23090	        -1.29575e+57
          2113.03720	        -3.38998e+57
          2113.84350	        -1.13613e+57
          2114.64980	         3.80370e+57
          2115.45610	         1.87989e+57
          2116.26240	        -1.70918e+57
          2117.06870	         8.72794e+56
          2117.87500	         2.88537e+57
          2118.68130	        -2.30424e+57
          2119.48760	        -2.08572e+57
          2120.29390	         4.83643e+55
          2121.10020	        -2.27990e+57
          2121.90650	        -1.50479e+56
          2122.71280	         1.34035e+57
          2123.51910	         2.59228e+57
          2124.32540	        -7.53921e+56
          2125.13170	        -2.64704e+57
          2125.93800	        -3.18657e+57
          2126.74430	         1.97309e+57
          2127.55060	        -8.71162e+57
          2128.35690	        -2.80525e+56
          2129.16320	         2.93227e+56
          2129.96950	        -3.30958e+57
          2130.77580	        -4.48754e+57
          2131.58210	         4.16020e+57
          2132.38840	         1.93851e+57
          2133.19470	        -2.21584e+57
          2134.00100	         3.68627e+57
          2134.80730	        -4.45631e+57
          2135.61360	         3.49031e+57
          2136.41990	         5.44242e+57
          2137.22620	         7.56044e+57
          2138.03250	         5.64334e+56
          2138.83880	        -1.05522e+57
          2139.64510	        -5.55523e+57
          2140.45140	         5.98994e+56
          2141.25770	        -5.04891e+57
          2142.06400	        -1.80536e+57
          2142.87030	         5.04566e+56
          2143.67660	        -2.97808e+57
          2144.48290	         1.25633e+58
          2145.28920	         1.42099e+58
          2146.09550	        -1.93001e+57
          2146.90180	        -1.08543e+58
          2147.70810	        -8.96559e+57
          2148.51440	        -4.14643e+57
          2149.32070	        -1.42458e+58
          2150.12700	        -1.19961e+58
          2150.93330	         1.56045e+56
          2151.73960	         1.73154e+57
          2152.54590	        -2.72113e+57
          2153.35220	         1.28983e+57
          2154.15850	        -3.92059e+57
          2154.96480	         5.90592e+57
          2155.77110	        -6.22145e+55
          2156.57740	        -7.86016e+57
          2157.38370	        -2.66488e+57
          2158.19000	        -5.99074e+57
          2158.99630	        -3.69386e+57
          2159.80260	        -1.22735e+58
          2160.60890	        -7.44368e+57
          2161.41520	        -2.24686e+57
          2162.22150	         3.81352e+57
          2163.02780	        -2.22797e+57
          2163.83410	        -7.92938e+57
          2164.64040	        -1.90158e+58
          2165.44670	        -1.84806e+58
          2166.25300	        -7.31582e+57
          2167.05930	         2.66117e+57
          2167.86560	        -5.47732e+57
          2168.67190	        -5.67666e+57
          2169.47820	        -8.97814e+57
          2170.28450	        -6.85166e+57
          2171.09080	        -2.50476e+57
          2171.89710	        -4.03469e+57
          2172.70340	        -2.54128e+57
          2173.50970	        -9.00589e+57
          2174.31600	        -7.05154e+57
          2175.12230	        -2.49598e+57
          2175.92860	        -4.35425e+57
          2176.73490	        -2.91104e+57
          2177.54120	        -3.56673e+57
          2178.34750	         1.59193e+56
          2179.15380	                 nan
          2179.96010	                 nan
          2180.76640	                 nan
          2181.57270	                 nan
          2182.37900	                 nan
          2183.18530	                 nan
          2183.99160	                 nan
          2184.79790	                 nan
          2185.60420	                 nan
          2186.41050	                 nan
          2187.21680	                 nan
          2188.02310	                 nan
          2188.82940	                 nan
          2189.63570	                 nan
          2190.44200	                 nan
          2191.24830	                 nan
          2192.05460	                 nan
          2192.86090	                 nan
          2193.66720	                 nan
          2194.47350	                 nan
          2195.27980	                 nan
          2196.08610	                 nan
          2196.89240	                 nan
          2197.69870	                 nan
          2198.50500	                 nan
          2199.31130	                 nan
          2200.11760	                 nan
          2200.92390	                 nan
          2201.73020	                 nan
          2202.53650	                 nan
          2203.34280	                 nan
          2204.14910	                 nan
          2204.95540	                 nan
          2205.76170	                 nan
          2206.56800	                 nan
          2207.37430	                 nan
          2208.18060	                 nan
          2208.98690	                 nan
          2209.79320	                 nan
          2210.59950	                 nan
          2211.40580	                 nan
          2212.21210	                 nan
          2213.01840	                 nan
          2213.82470	                 nan
          2214.63100	                 nan
          2215.43730	         0.00000e+00
