#sample_117_stacked_spectrum_rest_UV-bands_median_H-alpha_noDC.txt
#median Lum: 1.71355e+42
#Rest-frame wavelength (A) | Luminosity (erg/s/A)
#
          1110.00000	         0.00000e+00
          1110.80630	        -5.67571e+59
          1111.61260	         8.99293e+57
          1112.41890	         4.48978e+58
          1113.22520	        -1.07364e+59
          1114.03150	        -1.37903e+59
          1114.83780	         1.92504e+59
          1115.64410	        -4.48438e+58
          1116.45040	         2.45866e+59
          1117.25670	         1.72540e+59
          1118.06300	         1.71629e+59
          1118.86930	         5.27990e+58
          1119.67560	         1.38708e+59
          1120.48190	         3.33883e+58
          1121.28820	        -2.16858e+59
          1122.09450	        -9.15741e+58
          1122.90080	        -8.08906e+58
          1123.70710	         2.21399e+58
          1124.51340	        -1.03527e+58
          1125.31970	        -1.92411e+58
          1126.12600	        -2.37478e+58
          1126.93230	        -5.50267e+58
          1127.73860	        -5.99463e+58
          1128.54490	        -4.99987e+57
          1129.35120	         3.52207e+57
          1130.15750	        -4.02548e+58
          1130.96380	        -3.55596e+58
          1131.77010	         8.77117e+57
          1132.57640	         6.21134e+58
          1133.38270	         5.11340e+58
          1134.18900	         4.39453e+58
          1134.99530	         3.58662e+58
          1135.80160	         3.86518e+58
          1136.60790	         2.85938e+58
          1137.41420	        -1.39415e+58
          1138.22050	         3.54494e+58
          1139.02680	         4.24240e+58
          1139.83310	         2.49564e+58
          1140.63940	         3.08257e+58
          1141.44570	         2.19332e+56
          1142.25200	        -9.06639e+57
          1143.05830	         1.59939e+58
          1143.86460	         1.86348e+58
          1144.67090	         2.38123e+58
          1145.47720	         1.23301e+58
          1146.28350	         1.09723e+58
          1147.08980	         2.00235e+58
          1147.89610	         8.34099e+57
          1148.70240	         1.94138e+58
          1149.50870	         1.86043e+58
          1150.31500	         6.86250e+57
          1151.12130	         6.76427e+57
          1151.92760	         6.81112e+56
          1152.73390	         3.21049e+57
          1153.54020	         5.84511e+57
          1154.34650	         3.47466e+58
          1155.15280	         1.77241e+58
          1155.95910	         1.46472e+58
          1156.76540	         9.12440e+57
          1157.57170	         3.34070e+57
          1158.37800	         1.41276e+57
          1159.18430	         7.07829e+57
          1159.99060	         1.12360e+58
          1160.79690	         1.71270e+57
          1161.60320	         1.29408e+57
          1162.40950	         2.41921e+58
          1163.21580	         2.00902e+58
          1164.02210	         8.65331e+57
          1164.82840	         1.30557e+58
          1165.63470	         2.48083e+58
          1166.44100	         2.11185e+58
          1167.24730	         1.80306e+58
          1168.05360	         1.01813e+58
          1168.85990	        -1.06881e+57
          1169.66620	         1.75713e+57
          1170.47250	         1.46622e+58
          1171.27880	         1.77764e+58
          1172.08510	         1.95641e+58
          1172.89140	         1.46806e+58
          1173.69770	         7.04097e+57
          1174.50400	         1.07974e+58
          1175.31030	         1.74874e+58
          1176.11660	         2.05530e+58
          1176.92290	         1.53573e+58
          1177.72920	         9.26083e+57
          1178.53550	         1.01287e+58
          1179.34180	         5.98518e+57
          1180.14810	         1.08593e+58
          1180.95440	         1.05449e+58
          1181.76070	         3.81594e+57
          1182.56700	         7.07104e+57
          1183.37330	         8.84351e+57
          1184.17960	         1.21756e+58
          1184.98590	         1.22361e+58
          1185.79220	         1.10125e+58
          1186.59850	         1.55581e+58
          1187.40480	         1.32638e+58
          1188.21110	         1.08031e+58
          1189.01740	         1.04150e+58
          1189.82370	         1.78374e+58
          1190.63000	         1.44363e+58
          1191.43630	         1.28395e+58
          1192.24260	         8.23314e+57
          1193.04890	         1.13428e+58
          1193.85520	         1.12273e+58
          1194.66150	         8.59842e+57
          1195.46780	         1.13639e+58
          1196.27410	         1.57410e+58
          1197.08040	         1.10052e+58
          1197.88670	         1.47592e+58
          1198.69300	         1.43824e+58
          1199.49930	         1.43655e+58
          1200.30560	         9.76067e+57
          1201.11190	         8.56400e+57
          1201.91820	         1.23102e+58
          1202.72450	         5.19179e+57
          1203.53080	         1.61366e+58
          1204.33710	         1.25161e+58
          1205.14340	         5.48041e+57
          1205.94970	         7.63144e+57
          1206.75600	         1.15173e+58
          1207.56230	         7.37633e+57
          1208.36860	         9.86155e+57
          1209.17490	         3.97983e+56
          1209.98120	         4.15166e+57
          1210.78750	         8.63516e+57
          1211.59380	         1.17449e+58
          1212.40010	         1.92609e+58
          1213.20640	         2.00795e+58
          1214.01270	         2.32234e+58
          1214.81900	         2.90453e+58
          1215.62530	         4.80446e+58
          1216.43160	         9.25988e+58
          1217.23790	         1.47464e+59
          1218.04420	         1.20194e+59
          1218.85050	         8.98586e+58
          1219.65680	         6.08774e+58
          1220.46310	         3.37067e+58
          1221.26940	         2.37099e+58
          1222.07570	         1.38382e+58
          1222.88200	         8.38426e+57
          1223.68830	         1.06737e+58
          1224.49460	         8.41527e+57
          1225.30090	         6.97602e+57
          1226.10720	         6.75660e+57
          1226.91350	         5.31710e+57
          1227.71980	         6.81026e+57
          1228.52610	         1.30492e+58
          1229.33240	         9.80324e+57
          1230.13870	         7.19528e+57
          1230.94500	         7.84826e+57
          1231.75130	         5.93914e+57
          1232.55760	         1.17987e+58
          1233.36390	         1.29984e+58
          1234.17020	         7.81948e+57
          1234.97650	         7.03213e+57
          1235.78280	         5.91388e+57
          1236.58910	         8.14106e+57
          1237.39540	         9.30242e+57
          1238.20170	         7.80243e+57
          1239.00800	         1.16216e+58
          1239.81430	         1.69280e+58
          1240.62060	         1.39255e+58
          1241.42690	         1.27636e+58
          1242.23320	         1.33538e+58
          1243.03950	         8.75927e+57
          1243.84580	         7.73559e+57
          1244.65210	         1.01269e+58
          1245.45840	         1.09409e+58
          1246.26470	         8.68459e+57
          1247.07100	         7.20820e+57
          1247.87730	         6.37213e+57
          1248.68360	         4.07385e+57
          1249.48990	         7.51776e+57
          1250.29620	         1.04806e+58
          1251.10250	         9.71978e+57
          1251.90880	         8.21178e+57
          1252.71510	         8.04612e+57
          1253.52140	         8.19102e+57
          1254.32770	         9.59757e+57
          1255.13400	         1.33092e+58
          1255.94030	         1.20927e+58
          1256.74660	         1.14785e+58
          1257.55290	         1.20511e+58
          1258.35920	         7.99027e+57
          1259.16550	         4.70032e+57
          1259.97180	         7.04386e+57
          1260.77810	         1.07853e+58
          1261.58440	         1.21160e+58
          1262.39070	         8.60786e+57
          1263.19700	         6.63402e+57
          1264.00330	         8.06990e+57
          1264.80960	         1.13253e+58
          1265.61590	         1.24158e+58
          1266.42220	         1.24871e+58
          1267.22850	         9.60241e+57
          1268.03480	         1.30725e+58
          1268.84110	         1.38861e+58
          1269.64740	         1.21361e+58
          1270.45370	         1.43537e+58
          1271.26000	         1.39918e+58
          1272.06630	         1.22403e+58
          1272.87260	         1.20798e+58
          1273.67890	         1.03073e+58
          1274.48520	         1.25118e+58
          1275.29150	         1.35072e+58
          1276.09780	         1.25609e+58
          1276.90410	         1.63844e+58
          1277.71040	         1.31553e+58
          1278.51670	         1.08077e+58
          1279.32300	         1.30079e+58
          1280.12930	         1.36407e+58
          1280.93560	         1.41077e+58
          1281.74190	         1.32985e+58
          1282.54820	         1.15399e+58
          1283.35450	         9.51530e+57
          1284.16080	         1.06829e+58
          1284.96710	         1.37459e+58
          1285.77340	         1.27991e+58
          1286.57970	         1.09862e+58
          1287.38600	         1.41112e+58
          1288.19230	         1.79577e+58
          1288.99860	         1.78733e+58
          1289.80490	         1.15595e+58
          1290.61120	         1.21736e+58
          1291.41750	         1.52993e+58
          1292.22380	         1.42817e+58
          1293.03010	         1.27894e+58
          1293.83640	         1.47598e+58
          1294.64270	         1.18295e+58
          1295.44900	         6.88239e+57
          1296.25530	         7.94989e+57
          1297.06160	         1.11457e+58
          1297.86790	         1.05950e+58
          1298.67420	         8.49072e+57
          1299.48050	         9.08127e+57
          1300.28680	         1.02036e+58
          1301.09310	         7.88378e+57
          1301.89940	         4.99917e+57
          1302.70570	         6.20357e+57
          1303.51200	         8.85463e+57
          1304.31830	         1.21891e+58
          1305.12460	         1.10963e+58
          1305.93090	         9.87575e+57
          1306.73720	         1.27456e+58
          1307.54350	         1.57988e+58
          1308.34980	         1.40095e+58
          1309.15610	         1.44693e+58
          1309.96240	         1.66533e+58
          1310.76870	         1.38024e+58
          1311.57500	         1.23263e+58
          1312.38130	         1.19946e+58
          1313.18760	         1.27458e+58
          1313.99390	         1.75308e+58
          1314.80020	         1.68062e+58
          1315.60650	         1.67474e+58
          1316.41280	         1.32765e+58
          1317.21910	         1.23979e+58
          1318.02540	         1.16954e+58
          1318.83170	         1.22046e+58
          1319.63800	         1.11078e+58
          1320.44430	         1.21288e+58
          1321.25060	         1.46718e+58
          1322.05690	         1.32161e+58
          1322.86320	         1.17183e+58
          1323.66950	         1.12664e+58
          1324.47580	         1.02141e+58
          1325.28210	         1.03561e+58
          1326.08840	         1.27515e+58
          1326.89470	         1.34825e+58
          1327.70100	         1.05027e+58
          1328.50730	         8.08904e+57
          1329.31360	         9.52028e+57
          1330.11990	         1.06848e+58
          1330.92620	         9.32305e+57
          1331.73250	         1.11426e+58
          1332.53880	         1.03411e+58
          1333.34510	         8.91353e+57
          1334.15140	         1.06817e+58
          1334.95770	         1.00804e+58
          1335.76400	         9.79606e+57
          1336.57030	         1.12153e+58
          1337.37660	         1.25440e+58
          1338.18290	         1.25820e+58
          1338.98920	         1.20925e+58
          1339.79550	         1.13437e+58
          1340.60180	         1.24574e+58
          1341.40810	         1.38017e+58
          1342.21440	         1.12738e+58
          1343.02070	         1.18970e+58
          1343.82700	         1.41902e+58
          1344.63330	         1.33874e+58
          1345.43960	         1.30139e+58
          1346.24590	         1.29081e+58
          1347.05220	         1.35288e+58
          1347.85850	         1.15636e+58
          1348.66480	         1.10141e+58
          1349.47110	         1.29409e+58
          1350.27740	         1.31809e+58
          1351.08370	         1.14661e+58
          1351.89000	         1.20931e+58
          1352.69630	         1.17139e+58
          1353.50260	         1.10021e+58
          1354.30890	         1.14459e+58
          1355.11520	         1.27412e+58
          1355.92150	         1.15946e+58
          1356.72780	         1.04819e+58
          1357.53410	         1.06148e+58
          1358.34040	         1.24962e+58
          1359.14670	         1.21886e+58
          1359.95300	         1.18140e+58
          1360.75930	         1.26079e+58
          1361.56560	         1.18193e+58
          1362.37190	         1.19259e+58
          1363.17820	         1.20172e+58
          1363.98450	         1.25374e+58
          1364.79080	         1.35157e+58
          1365.59710	         1.38771e+58
          1366.40340	         1.32380e+58
          1367.20970	         9.88295e+57
          1368.01600	         9.42950e+57
          1368.82230	         1.18231e+58
          1369.62860	         1.19632e+58
          1370.43490	         8.99901e+57
          1371.24120	         9.66782e+57
          1372.04750	         9.56065e+57
          1372.85380	         1.04030e+58
          1373.66010	         1.23189e+58
          1374.46640	         1.12730e+58
          1375.27270	         1.17056e+58
          1376.07900	         1.14143e+58
          1376.88530	         9.51069e+57
          1377.69160	         8.37741e+57
          1378.49790	         7.04611e+57
          1379.30420	         7.90430e+57
          1380.11050	         9.79552e+57
          1380.91680	         7.76183e+57
          1381.72310	         5.84075e+57
          1382.52940	         7.21600e+57
          1383.33570	         8.09923e+57
          1384.14200	         8.41241e+57
          1384.94830	         9.49085e+57
          1385.75460	         1.05723e+58
          1386.56090	         1.14455e+58
          1387.36720	         1.07727e+58
          1388.17350	         1.29980e+58
          1388.97980	         1.14162e+58
          1389.78610	         9.37479e+57
          1390.59240	         8.55961e+57
          1391.39870	         6.99062e+57
          1392.20500	         7.52837e+57
          1393.01130	         7.71200e+57
          1393.81760	         7.67272e+57
          1394.62390	         7.71589e+57
          1395.43020	         6.31871e+57
          1396.23650	         7.33349e+57
          1397.04280	         7.62108e+57
          1397.84910	         9.76299e+57
          1398.65540	         1.02392e+58
          1399.46170	         9.70114e+57
          1400.26800	         8.62722e+57
          1401.07430	         7.93775e+57
          1401.88060	         8.45269e+57
          1402.68690	         9.47275e+57
          1403.49320	         1.03114e+58
          1404.29950	         9.98472e+57
          1405.10580	         1.09705e+58
          1405.91210	         1.16508e+58
          1406.71840	         1.09013e+58
          1407.52470	         1.07361e+58
          1408.33100	         1.20921e+58
          1409.13730	         1.26223e+58
          1409.94360	         1.25605e+58
          1410.74990	         1.18400e+58
          1411.55620	         9.24920e+57
          1412.36250	         8.86482e+57
          1413.16880	         8.82503e+57
          1413.97510	         8.53081e+57
          1414.78140	         9.62636e+57
          1415.58770	         1.01472e+58
          1416.39400	         1.18086e+58
          1417.20030	         1.21298e+58
          1418.00660	         1.05972e+58
          1418.81290	         1.26518e+58
          1419.61920	         1.19611e+58
          1420.42550	         1.26350e+58
          1421.23180	         1.37030e+58
          1422.03810	         1.33995e+58
          1422.84440	         1.28483e+58
          1423.65070	         1.33229e+58
          1424.45700	         1.32696e+58
          1425.26330	         1.10706e+58
          1426.06960	         1.07788e+58
          1426.87590	         1.18249e+58
          1427.68220	         1.11013e+58
          1428.48850	         1.15085e+58
          1429.29480	         1.17951e+58
          1430.10110	         1.13098e+58
          1430.90740	         1.01246e+58
          1431.71370	         1.03564e+58
          1432.52000	         1.02059e+58
          1433.32630	         9.38555e+57
          1434.13260	         8.68921e+57
          1434.93890	         8.03349e+57
          1435.74520	         9.08458e+57
          1436.55150	         1.04898e+58
          1437.35780	         1.01895e+58
          1438.16410	         9.15475e+57
          1438.97040	         9.19644e+57
          1439.77670	         8.38749e+57
          1440.58300	         8.62317e+57
          1441.38930	         9.34956e+57
          1442.19560	         9.92847e+57
          1443.00190	         1.06149e+58
          1443.80820	         1.19359e+58
          1444.61450	         1.04761e+58
          1445.42080	         9.48372e+57
          1446.22710	         1.13890e+58
          1447.03340	         1.01860e+58
          1447.83970	         1.03276e+58
          1448.64600	         1.02084e+58
          1449.45230	         1.01919e+58
          1450.25860	         9.86571e+57
          1451.06490	         8.74018e+57
          1451.87120	         8.04046e+57
          1452.67750	         7.57674e+57
          1453.48380	         9.01147e+57
          1454.29010	         9.29261e+57
          1455.09640	         7.99875e+57
          1455.90270	         7.92942e+57
          1456.70900	         9.13557e+57
          1457.51530	         1.06018e+58
          1458.32160	         1.24818e+58
          1459.12790	         1.27535e+58
          1459.93420	         1.12348e+58
          1460.74050	         8.92201e+57
          1461.54680	         8.44755e+57
          1462.35310	         8.65422e+57
          1463.15940	         9.85271e+57
          1463.96570	         1.12964e+58
          1464.77200	         1.28281e+58
          1465.57830	         1.21686e+58
          1466.38460	         9.82494e+57
          1467.19090	         9.60079e+57
          1467.99720	         1.05588e+58
          1468.80350	         1.08510e+58
          1469.60980	         1.14448e+58
          1470.41610	         1.27023e+58
          1471.22240	         1.09465e+58
          1472.02870	         1.03155e+58
          1472.83500	         9.89823e+57
          1473.64130	         9.79312e+57
          1474.44760	         9.77195e+57
          1475.25390	         9.88645e+57
          1476.06020	         9.47936e+57
          1476.86650	         8.79086e+57
          1477.67280	         9.31456e+57
          1478.47910	         8.91839e+57
          1479.28540	         6.71833e+57
          1480.09170	         8.47258e+57
          1480.89800	         1.01299e+58
          1481.70430	         9.17010e+57
          1482.51060	         8.52817e+57
          1483.31690	         8.85528e+57
          1484.12320	         7.72934e+57
          1484.92950	         8.20776e+57
          1485.73580	         9.31467e+57
          1486.54210	         9.77524e+57
          1487.34840	         9.37549e+57
          1488.15470	         8.31075e+57
          1488.96100	         7.97290e+57
          1489.76730	         9.24579e+57
          1490.57360	         8.88147e+57
          1491.37990	         7.44692e+57
          1492.18620	         8.24961e+57
          1492.99250	         8.94774e+57
          1493.79880	         9.86471e+57
          1494.60510	         1.00992e+58
          1495.41140	         8.34506e+57
          1496.21770	         8.43110e+57
          1497.02400	         9.97377e+57
          1497.83030	         9.19869e+57
          1498.63660	         8.02075e+57
          1499.44290	         6.63509e+57
          1500.24920	         6.76870e+57
          1501.05550	         8.06091e+57
          1501.86180	         8.57022e+57
          1502.66810	         9.90110e+57
          1503.47440	         8.90684e+57
          1504.28070	         8.37056e+57
          1505.08700	         9.16978e+57
          1505.89330	         1.03259e+58
          1506.69960	         9.46324e+57
          1507.50590	         9.54446e+57
          1508.31220	         9.35481e+57
          1509.11850	         9.02934e+57
          1509.92480	         8.75723e+57
          1510.73110	         7.45481e+57
          1511.53740	         6.90634e+57
          1512.34370	         7.40727e+57
          1513.15000	         8.60853e+57
          1513.95630	         1.12606e+58
          1514.76260	         9.95564e+57
          1515.56890	         8.26954e+57
          1516.37520	         9.57247e+57
          1517.18150	         9.31041e+57
          1517.98780	         8.27879e+57
          1518.79410	         7.19832e+57
          1519.60040	         7.88708e+57
          1520.40670	         9.45026e+57
          1521.21300	         8.80073e+57
          1522.01930	         8.63043e+57
          1522.82560	         9.21994e+57
          1523.63190	         1.02920e+58
          1524.43820	         9.17419e+57
          1525.24450	         7.63622e+57
          1526.05080	         7.50191e+57
          1526.85710	         7.09375e+57
          1527.66340	         6.64680e+57
          1528.46970	         8.69383e+57
          1529.27600	         8.61090e+57
          1530.08230	         7.78643e+57
          1530.88860	         7.95744e+57
          1531.69490	         8.82364e+57
          1532.50120	         1.00505e+58
          1533.30750	         1.06400e+58
          1534.11380	         1.01095e+58
          1534.92010	         1.00718e+58
          1535.72640	         1.03509e+58
          1536.53270	         9.37387e+57
          1537.33900	         9.00562e+57
          1538.14530	         9.75065e+57
          1538.95160	         9.35369e+57
          1539.75790	         8.69471e+57
          1540.56420	         9.26163e+57
          1541.37050	         9.07958e+57
          1542.17680	         7.69049e+57
          1542.98310	         7.09859e+57
          1543.78940	         7.44717e+57
          1544.59570	         7.26079e+57
          1545.40200	         8.95081e+57
          1546.20830	         1.10855e+58
          1547.01460	         1.19760e+58
          1547.82090	         1.20280e+58
          1548.62720	         1.20826e+58
          1549.43350	         1.16095e+58
          1550.23980	         1.10007e+58
          1551.04610	         1.14313e+58
          1551.85240	         1.33980e+58
          1552.65870	         1.21426e+58
          1553.46500	         1.12005e+58
          1554.27130	         1.05990e+58
          1555.07760	         1.02226e+58
          1555.88390	         9.16845e+57
          1556.69020	         9.27765e+57
          1557.49650	         9.79015e+57
          1558.30280	         8.59929e+57
          1559.10910	         8.59294e+57
          1559.91540	         9.02619e+57
          1560.72170	         8.46604e+57
          1561.52800	         8.41321e+57
          1562.33430	         8.70680e+57
          1563.14060	         8.24687e+57
          1563.94690	         9.16861e+57
          1564.75320	         9.24298e+57
          1565.55950	         6.66942e+57
          1566.36580	         7.36136e+57
          1567.17210	         8.91855e+57
          1567.97840	         9.03444e+57
          1568.78470	         8.85954e+57
          1569.59100	         1.04494e+58
          1570.39730	         9.90672e+57
          1571.20360	         7.30347e+57
          1572.00990	         7.40666e+57
          1572.81620	         9.85049e+57
          1573.62250	         1.03581e+58
          1574.42880	         8.83169e+57
          1575.23510	         8.42619e+57
          1576.04140	         9.23986e+57
          1576.84770	         9.15205e+57
          1577.65400	         8.52397e+57
          1578.46030	         1.00586e+58
          1579.26660	         1.05302e+58
          1580.07290	         9.54210e+57
          1580.87920	         8.71340e+57
          1581.68550	         8.35805e+57
          1582.49180	         8.54566e+57
          1583.29810	         7.97641e+57
          1584.10440	         8.77620e+57
          1584.91070	         9.06392e+57
          1585.71700	         8.91058e+57
          1586.52330	         8.62094e+57
          1587.32960	         8.40638e+57
          1588.13590	         8.46703e+57
          1588.94220	         8.35822e+57
          1589.74850	         9.64143e+57
          1590.55480	         9.93097e+57
          1591.36110	         8.72401e+57
          1592.16740	         8.79530e+57
          1592.97370	         8.64555e+57
          1593.78000	         8.86670e+57
          1594.58630	         9.31666e+57
          1595.39260	         8.84700e+57
          1596.19890	         9.54860e+57
          1597.00520	         9.48791e+57
          1597.81150	         8.56136e+57
          1598.61780	         7.05779e+57
          1599.42410	         6.55881e+57
          1600.23040	         6.59632e+57
          1601.03670	         8.06996e+57
          1601.84300	         7.27398e+57
          1602.64930	         7.66677e+57
          1603.45560	         9.15385e+57
          1604.26190	         8.21898e+57
          1605.06820	         8.44593e+57
          1605.87450	         8.85149e+57
          1606.68080	         8.58587e+57
          1607.48710	         6.55697e+57
          1608.29340	         5.40464e+57
          1609.09970	         6.75882e+57
          1609.90600	         7.27483e+57
          1610.71230	         7.38342e+57
          1611.51860	         8.25094e+57
          1612.32490	         7.92078e+57
          1613.13120	         9.44448e+57
          1613.93750	         8.33606e+57
          1614.74380	         8.70138e+57
          1615.55010	         9.81618e+57
          1616.35640	         1.02578e+58
          1617.16270	         1.17019e+58
          1617.96900	         1.17771e+58
          1618.77530	         1.02043e+58
          1619.58160	         9.74424e+57
          1620.38790	         9.49993e+57
          1621.19420	         8.56810e+57
          1622.00050	         7.81074e+57
          1622.80680	         9.37538e+57
          1623.61310	         9.50572e+57
          1624.41940	         7.61564e+57
          1625.22570	         8.72401e+57
          1626.03200	         9.11356e+57
          1626.83830	         8.49091e+57
          1627.64460	         8.29165e+57
          1628.45090	         6.07862e+57
          1629.25720	         8.42828e+57
          1630.06350	         9.06466e+57
          1630.86980	         5.98268e+57
          1631.67610	         6.70189e+57
          1632.48240	         7.94055e+57
          1633.28870	         8.90804e+57
          1634.09500	         1.02995e+58
          1634.90130	         1.21669e+58
          1635.70760	         1.00650e+58
          1636.51390	         7.53558e+57
          1637.32020	         7.59346e+57
          1638.12650	         1.01538e+58
          1638.93280	         1.07969e+58
          1639.73910	         1.03459e+58
          1640.54540	         1.13207e+58
          1641.35170	         9.58827e+57
          1642.15800	         8.87638e+57
          1642.96430	         8.45903e+57
          1643.77060	         8.59151e+57
          1644.57690	         8.85524e+57
          1645.38320	         9.25057e+57
          1646.18950	         7.88329e+57
          1646.99580	         9.22432e+57
          1647.80210	         9.04556e+57
          1648.60840	         8.00597e+57
          1649.41470	         8.63671e+57
          1650.22100	         7.53993e+57
          1651.02730	         6.87837e+57
          1651.83360	         7.26012e+57
          1652.63990	         8.26596e+57
          1653.44620	         9.84748e+57
          1654.25250	         8.35875e+57
          1655.05880	         6.77619e+57
          1655.86510	         7.89674e+57
          1656.67140	         8.60670e+57
          1657.47770	         8.08150e+57
          1658.28400	         8.61400e+57
          1659.09030	         9.43362e+57
          1659.89660	         1.04360e+58
          1660.70290	         9.79761e+57
          1661.50920	         9.81856e+57
          1662.31550	         9.22633e+57
          1663.12180	         8.62725e+57
          1663.92810	         1.03838e+58
          1664.73440	         1.15897e+58
          1665.54070	         1.24185e+58
          1666.34700	         1.25540e+58
          1667.15330	         1.22390e+58
          1667.95960	         1.04241e+58
          1668.76590	         7.79531e+57
          1669.57220	         6.49147e+57
          1670.37850	         6.84559e+57
          1671.18480	         8.40420e+57
          1671.99110	         9.27601e+57
          1672.79740	         8.33015e+57
          1673.60370	         7.82897e+57
          1674.41000	         7.52014e+57
          1675.21630	         7.51413e+57
          1676.02260	         7.39475e+57
          1676.82890	         7.05883e+57
          1677.63520	         7.33664e+57
          1678.44150	         8.37887e+57
          1679.24780	         9.28478e+57
          1680.05410	         7.64550e+57
          1680.86040	         6.36064e+57
          1681.66670	         7.80248e+57
          1682.47300	         8.15996e+57
          1683.27930	         8.33581e+57
          1684.08560	         8.68232e+57
          1684.89190	         7.75959e+57
          1685.69820	         5.95191e+57
          1686.50450	         5.43707e+57
          1687.31080	         7.59132e+57
          1688.11710	         8.24470e+57
          1688.92340	         6.97535e+57
          1689.72970	         6.69253e+57
          1690.53600	         6.08227e+57
          1691.34230	         6.87422e+57
          1692.14860	         8.52368e+57
          1692.95490	         8.88042e+57
          1693.76120	         7.89674e+57
          1694.56750	         7.44516e+57
          1695.37380	         8.94626e+57
          1696.18010	         9.04746e+57
          1696.98640	         8.39593e+57
          1697.79270	         7.24391e+57
          1698.59900	         7.66412e+57
          1699.40530	         8.37475e+57
          1700.21160	         8.60939e+57
          1701.01790	         7.76952e+57
          1701.82420	         8.02962e+57
          1702.63050	         8.97117e+57
          1703.43680	         8.58302e+57
          1704.24310	         8.62470e+57
          1705.04940	         9.20160e+57
          1705.85570	         9.94302e+57
          1706.66200	         9.23363e+57
          1707.46830	         8.07286e+57
          1708.27460	         7.29398e+57
          1709.08090	         6.26024e+57
          1709.88720	         6.26206e+57
          1710.69350	         6.62838e+57
          1711.49980	         6.69773e+57
          1712.30610	         7.40765e+57
          1713.11240	         9.39014e+57
          1713.91870	         8.48062e+57
          1714.72500	         8.68091e+57
          1715.53130	         8.93101e+57
          1716.33760	         8.12866e+57
          1717.14390	         8.43998e+57
          1717.95020	         9.41207e+57
          1718.75650	         9.06991e+57
          1719.56280	         8.67460e+57
          1720.36910	         7.19807e+57
          1721.17540	         7.18762e+57
          1721.98170	         6.90464e+57
          1722.78800	         6.91638e+57
          1723.59430	         7.75014e+57
          1724.40060	         9.07321e+57
          1725.20690	         8.31802e+57
          1726.01320	         8.50306e+57
          1726.81950	         8.14902e+57
          1727.62580	         8.20253e+57
          1728.43210	         7.66573e+57
          1729.23840	         7.22411e+57
          1730.04470	         7.90757e+57
          1730.85100	         8.65461e+57
          1731.65730	         8.29974e+57
          1732.46360	         8.42987e+57
          1733.26990	         7.41135e+57
          1734.07620	         6.53323e+57
          1734.88250	         7.48236e+57
          1735.68880	         7.43125e+57
          1736.49510	         8.43826e+57
          1737.30140	         8.11293e+57
          1738.10770	         7.87182e+57
          1738.91400	         8.37166e+57
          1739.72030	         7.86239e+57
          1740.52660	         6.64002e+57
          1741.33290	         7.10196e+57
          1742.13920	         6.82600e+57
          1742.94550	         7.86661e+57
          1743.75180	         8.14313e+57
          1744.55810	         7.91551e+57
          1745.36440	         7.84830e+57
          1746.17070	         6.62414e+57
          1746.97700	         6.44591e+57
          1747.78330	         7.30467e+57
          1748.58960	         6.72111e+57
          1749.39590	         6.54579e+57
          1750.20220	         6.67260e+57
          1751.00850	         6.13045e+57
          1751.81480	         7.66466e+57
          1752.62110	         8.33863e+57
          1753.42740	         7.89074e+57
          1754.23370	         7.15843e+57
          1755.04000	         7.27855e+57
          1755.84630	         7.69002e+57
          1756.65260	         8.71441e+57
          1757.45890	         9.15180e+57
          1758.26520	         8.56383e+57
          1759.07150	         8.91241e+57
          1759.87780	         8.01749e+57
          1760.68410	         7.56738e+57
          1761.49040	         9.02807e+57
          1762.29670	         7.37940e+57
          1763.10300	         7.47528e+57
          1763.90930	         7.73493e+57
          1764.71560	         8.14138e+57
          1765.52190	         7.61408e+57
          1766.32820	         8.35173e+57
          1767.13450	         8.55331e+57
          1767.94080	         6.85207e+57
          1768.74710	         6.94198e+57
          1769.55340	         7.77287e+57
          1770.35970	         6.79136e+57
          1771.16600	         7.67008e+57
          1771.97230	         8.60249e+57
          1772.77860	         8.58498e+57
          1773.58490	         7.66313e+57
          1774.39120	         6.01431e+57
          1775.19750	         5.85887e+57
          1776.00380	         5.61301e+57
          1776.81010	         5.70275e+57
          1777.61640	         6.43315e+57
          1778.42270	         6.46679e+57
          1779.22900	         5.84656e+57
          1780.03530	         6.36832e+57
          1780.84160	         6.91381e+57
          1781.64790	         8.65221e+57
          1782.45420	         8.33171e+57
          1783.26050	         7.69371e+57
          1784.06680	         7.04355e+57
          1784.87310	         7.38696e+57
          1785.67940	         7.77341e+57
          1786.48570	         6.80283e+57
          1787.29200	         6.65187e+57
          1788.09830	         5.62035e+57
          1788.90460	         5.23543e+57
          1789.71090	         5.32071e+57
          1790.51720	         5.81581e+57
          1791.32350	         8.23878e+57
          1792.12980	         9.27953e+57
          1792.93610	         7.88919e+57
          1793.74240	         7.55266e+57
          1794.54870	         7.56412e+57
          1795.35500	         7.20132e+57
          1796.16130	         7.69388e+57
          1796.96760	         6.47644e+57
          1797.77390	         7.96534e+57
          1798.58020	         8.02931e+57
          1799.38650	         6.69480e+57
          1800.19280	         6.10051e+57
          1800.99910	         7.99302e+57
          1801.80540	         8.14043e+57
          1802.61170	         8.94253e+57
          1803.41800	         9.01095e+57
          1804.22430	         7.32169e+57
          1805.03060	         6.24853e+57
          1805.83690	         7.92243e+57
          1806.64320	         8.52085e+57
          1807.44950	         8.35798e+57
          1808.25580	         7.28627e+57
          1809.06210	         7.31051e+57
          1809.86840	         7.40496e+57
          1810.67470	         8.12998e+57
          1811.48100	         8.71313e+57
          1812.28730	         8.04598e+57
          1813.09360	         7.10344e+57
          1813.89990	         8.17877e+57
          1814.70620	         8.20760e+57
          1815.51250	         7.59462e+57
          1816.31880	         7.89835e+57
          1817.12510	         8.24691e+57
          1817.93140	         8.12301e+57
          1818.73770	         8.17819e+57
          1819.54400	         8.89258e+57
          1820.35030	         8.69370e+57
          1821.15660	         6.46124e+57
          1821.96290	         6.19164e+57
          1822.76920	         7.40486e+57
          1823.57550	         8.49919e+57
          1824.38180	         7.47820e+57
          1825.18810	         8.29924e+57
          1825.99440	         8.33189e+57
          1826.80070	         7.48223e+57
          1827.60700	         6.23833e+57
          1828.41330	         6.59401e+57
          1829.21960	         7.02662e+57
          1830.02590	         7.03041e+57
          1830.83220	         7.31563e+57
          1831.63850	         7.24325e+57
          1832.44480	         7.79459e+57
          1833.25110	         8.15493e+57
          1834.05740	         8.44265e+57
          1834.86370	         7.71293e+57
          1835.67000	         6.18335e+57
          1836.47630	         8.13357e+57
          1837.28260	         9.66312e+57
          1838.08890	         8.85288e+57
          1838.89520	         8.34225e+57
          1839.70150	         7.50489e+57
          1840.50780	         7.49371e+57
          1841.31410	         7.80685e+57
          1842.12040	         7.92348e+57
          1842.92670	         6.81194e+57
          1843.73300	         6.94542e+57
          1844.53930	         7.58868e+57
          1845.34560	         7.53036e+57
          1846.15190	         8.43482e+57
          1846.95820	         8.84373e+57
          1847.76450	         8.19779e+57
          1848.57080	         6.01884e+57
          1849.37710	         6.58846e+57
          1850.18340	         7.52357e+57
          1850.98970	         8.70988e+57
          1851.79600	         8.73486e+57
          1852.60230	         8.08723e+57
          1853.40860	         8.00366e+57
          1854.21490	         8.30136e+57
          1855.02120	         6.79198e+57
          1855.82750	         4.95038e+57
          1856.63380	         5.19173e+57
          1857.44010	         5.91227e+57
          1858.24640	         5.93913e+57
          1859.05270	         7.41088e+57
          1859.85900	         5.90426e+57
          1860.66530	         6.16020e+57
          1861.47160	         7.48875e+57
          1862.27790	         7.30586e+57
          1863.08420	         7.58513e+57
          1863.89050	         8.60182e+57
          1864.69680	         8.08539e+57
          1865.50310	         7.29069e+57
          1866.30940	         7.04920e+57
          1867.11570	         7.08878e+57
          1867.92200	         7.58081e+57
          1868.72830	         7.71465e+57
          1869.53460	         7.19359e+57
          1870.34090	         7.96188e+57
          1871.14720	         8.56108e+57
          1871.95350	         7.85612e+57
          1872.75980	         7.38756e+57
          1873.56610	         7.23418e+57
          1874.37240	         5.67127e+57
          1875.17870	         5.67692e+57
          1875.98500	         7.52916e+57
          1876.79130	         7.78953e+57
          1877.59760	         7.37643e+57
          1878.40390	         6.49565e+57
          1879.21020	         5.57640e+57
          1880.01650	         7.24716e+57
          1880.82280	         8.70502e+57
          1881.62910	         9.51875e+57
          1882.43540	         1.06040e+58
          1883.24170	         8.50684e+57
          1884.04800	         6.72546e+57
          1884.85430	         7.33335e+57
          1885.66060	         6.97563e+57
          1886.46690	         7.60339e+57
          1887.27320	         7.27353e+57
          1888.07950	         5.46589e+57
          1888.88580	         6.70461e+57
          1889.69210	         9.33017e+57
          1890.49840	         9.09187e+57
          1891.30470	         7.46102e+57
          1892.11100	         8.54128e+57
          1892.91730	         8.24468e+57
          1893.72360	         8.14428e+57
          1894.52990	         8.71298e+57
          1895.33620	         8.69605e+57
          1896.14250	         7.75372e+57
          1896.94880	         6.50832e+57
          1897.75510	         5.38531e+57
          1898.56140	         6.31905e+57
          1899.36770	         7.94886e+57
          1900.17400	         6.93353e+57
          1900.98030	         6.86990e+57
          1901.78660	         7.29332e+57
          1902.59290	         7.33322e+57
          1903.39920	         8.38673e+57
          1904.20550	         8.52146e+57
          1905.01180	         8.24045e+57
          1905.81810	         9.85748e+57
          1906.62440	         1.18637e+58
          1907.43070	         1.42620e+58
          1908.23700	         1.59848e+58
          1909.04330	         1.43904e+58
          1909.84960	         1.22118e+58
          1910.65590	         1.04767e+58
          1911.46220	         1.00545e+58
          1912.26850	         8.52102e+57
          1913.07480	         6.80497e+57
          1913.88110	         5.96094e+57
          1914.68740	         5.66498e+57
          1915.49370	         6.16253e+57
          1916.30000	         6.46480e+57
          1917.10630	         7.32878e+57
          1917.91260	         8.00171e+57
          1918.71890	         8.12348e+57
          1919.52520	         6.67573e+57
          1920.33150	         5.25912e+57
          1921.13780	         6.79373e+57
          1921.94410	         8.93520e+57
          1922.75040	         8.95204e+57
          1923.55670	         8.74289e+57
          1924.36300	         7.88315e+57
          1925.16930	         6.26363e+57
          1925.97560	         5.63760e+57
          1926.78190	         4.81201e+57
          1927.58820	         6.89761e+57
          1928.39450	         5.93263e+57
          1929.20080	         4.15446e+57
          1930.00710	         5.51943e+57
          1930.81340	         7.37402e+57
          1931.61970	         8.40156e+57
          1932.42600	         8.14250e+57
          1933.23230	         9.69553e+57
          1934.03860	         7.86994e+57
          1934.84490	         5.77458e+57
          1935.65120	         8.49739e+57
          1936.45750	         9.78492e+57
          1937.26380	         7.63090e+57
          1938.07010	         7.50390e+57
          1938.87640	         7.88487e+57
          1939.68270	         7.58812e+57
          1940.48900	         8.22301e+57
          1941.29530	         8.64383e+57
          1942.10160	         7.12595e+57
          1942.90790	         7.08421e+57
          1943.71420	         8.22477e+57
          1944.52050	         6.59489e+57
          1945.32680	         5.85997e+57
          1946.13310	         6.84320e+57
          1946.93940	         8.46614e+57
          1947.74570	         7.80451e+57
          1948.55200	         6.58310e+57
          1949.35830	         6.78955e+57
          1950.16460	         6.15603e+57
          1950.97090	         6.88280e+57
          1951.77720	         7.93047e+57
          1952.58350	         8.77083e+57
          1953.38980	         6.70042e+57
          1954.19610	         4.67405e+57
          1955.00240	         4.23047e+57
          1955.80870	         6.32836e+57
          1956.61500	         6.65268e+57
          1957.42130	         6.79932e+57
          1958.22760	         6.78082e+57
          1959.03390	         7.09914e+57
          1959.84020	         7.28817e+57
          1960.64650	         7.45012e+57
          1961.45280	         7.76339e+57
          1962.25910	         7.53823e+57
          1963.06540	         6.38746e+57
          1963.87170	         6.80318e+57
          1964.67800	         7.54629e+57
          1965.48430	         7.63283e+57
          1966.29060	         6.06090e+57
          1967.09690	         8.03223e+57
          1967.90320	         8.06497e+57
          1968.70950	         6.73532e+57
          1969.51580	         5.88328e+57
          1970.32210	         8.40413e+57
          1971.12840	         7.71613e+57
          1971.93470	         4.74064e+57
          1972.74100	         4.64394e+57
          1973.54730	         7.27658e+57
          1974.35360	         7.77395e+57
          1975.15990	         8.10834e+57
          1975.96620	         6.91498e+57
          1976.77250	         8.06693e+57
          1977.57880	         7.89358e+57
          1978.38510	         7.16946e+57
          1979.19140	         6.89574e+57
          1979.99770	         7.49386e+57
          1980.80400	         7.62657e+57
          1981.61030	         7.58254e+57
          1982.41660	         5.24516e+57
          1983.22290	         6.13644e+57
          1984.02920	         7.45194e+57
          1984.83550	         6.98376e+57
          1985.64180	         5.77772e+57
          1986.44810	         6.38159e+57
          1987.25440	         6.05683e+57
          1988.06070	         5.59550e+57
          1988.86700	         6.86353e+57
          1989.67330	         6.68348e+57
          1990.47960	         6.52064e+57
          1991.28590	         6.95473e+57
          1992.09220	         6.41279e+57
          1992.89850	         6.26523e+57
          1993.70480	         5.51113e+57
          1994.51110	         3.91180e+57
          1995.31740	         4.80322e+57
          1996.12370	         4.42367e+57
          1996.93000	         6.15301e+57
          1997.73630	         7.29429e+57
          1998.54260	         8.59362e+57
          1999.34890	         7.49490e+57
          2000.15520	         6.95537e+57
          2000.96150	         6.70502e+57
          2001.76780	         5.36274e+57
          2002.57410	         4.62603e+57
          2003.38040	         5.87219e+57
          2004.18670	         6.90491e+57
          2004.99300	         7.67845e+57
          2005.79930	         6.31192e+57
          2006.60560	         6.95566e+57
          2007.41190	         6.28109e+57
          2008.21820	         6.40725e+57
          2009.02450	         7.14546e+57
          2009.83080	         7.34541e+57
          2010.63710	         6.59391e+57
          2011.44340	         6.93311e+57
          2012.24970	         7.64539e+57
          2013.05600	         8.05441e+57
          2013.86230	         7.07653e+57
          2014.66860	         6.10885e+57
          2015.47490	         6.86970e+57
          2016.28120	         6.54524e+57
          2017.08750	         6.46400e+57
          2017.89380	         6.71499e+57
          2018.70010	         8.03264e+57
          2019.50640	         7.27825e+57
          2020.31270	         7.11272e+57
          2021.11900	         6.77712e+57
          2021.92530	         6.58021e+57
          2022.73160	         6.52341e+57
          2023.53790	         6.45140e+57
          2024.34420	         5.80629e+57
          2025.15050	         5.62449e+57
          2025.95680	         4.82480e+57
          2026.76310	         6.60502e+57
          2027.56940	         6.62660e+57
          2028.37570	         7.06509e+57
          2029.18200	         6.54293e+57
          2029.98830	         6.39224e+57
          2030.79460	         7.35273e+57
          2031.60090	         7.16621e+57
          2032.40720	         5.99110e+57
          2033.21350	         5.59359e+57
          2034.01980	         5.23015e+57
          2034.82610	         2.70140e+57
          2035.63240	         3.24303e+57
          2036.43870	         5.54080e+57
          2037.24500	         6.20611e+57
          2038.05130	         6.74506e+57
          2038.85760	         6.24703e+57
          2039.66390	         6.32366e+57
          2040.47020	         5.15473e+57
          2041.27650	         5.56519e+57
          2042.08280	         4.88196e+57
          2042.88910	         5.99158e+57
          2043.69540	         7.18750e+57
          2044.50170	         5.95259e+57
          2045.30800	         5.88636e+57
          2046.11430	         5.69943e+57
          2046.92060	         6.75545e+57
          2047.72690	         6.80776e+57
          2048.53320	         6.15848e+57
          2049.33950	         6.91718e+57
          2050.14580	         7.44457e+57
          2050.95210	         7.98772e+57
          2051.75840	         8.26884e+57
          2052.56470	         6.68747e+57
          2053.37100	         5.50422e+57
          2054.17730	         4.84979e+57
          2054.98360	         4.74129e+57
          2055.78990	         4.85744e+57
          2056.59620	         4.18612e+57
          2057.40250	         5.45240e+57
          2058.20880	         6.36218e+57
          2059.01510	         6.21946e+57
          2059.82140	         5.96377e+57
          2060.62770	         9.08236e+57
          2061.43400	         1.70665e+58
          2062.24030	         1.31798e+58
          2063.04660	         2.87521e+57
          2063.85290	         2.20770e+57
          2064.65920	        -1.73236e+57
          2065.46550	        -6.94590e+57
          2066.27180	        -9.26908e+57
          2067.07810	         3.44166e+57
          2067.88440	         4.68710e+57
          2068.69070	         4.43408e+57
          2069.49700	         3.85654e+57
          2070.30330	         3.10667e+57
          2071.10960	         5.74367e+57
          2071.91590	         6.30287e+57
          2072.72220	         3.82013e+57
          2073.52850	         3.85296e+57
          2074.33480	         3.49958e+57
          2075.14110	         5.80597e+57
          2075.94740	         6.72147e+57
          2076.75370	         5.57123e+57
          2077.56000	         5.06825e+57
          2078.36630	         6.13933e+57
          2079.17260	         5.20266e+57
          2079.97890	         5.76064e+57
          2080.78520	         5.82178e+57
          2081.59150	         4.49577e+57
          2082.39780	         4.61865e+57
          2083.20410	         2.22015e+57
          2084.01040	         2.79579e+57
          2084.81670	         4.03550e+57
          2085.62300	         3.43213e+57
          2086.42930	         3.22568e+57
          2087.23560	         3.80644e+57
          2088.04190	         3.70294e+57
          2088.84820	         2.08371e+57
          2089.65450	         1.90895e+57
          2090.46080	         1.49262e+57
          2091.26710	         3.64395e+57
          2092.07340	         4.19331e+57
          2092.87970	         2.82278e+57
          2093.68600	        -9.60754e+56
          2094.49230	         1.03821e+57
          2095.29860	         3.46311e+57
          2096.10490	         4.17306e+57
          2096.91120	         1.60892e+57
          2097.71750	        -1.79545e+57
          2098.52380	         3.21023e+56
          2099.33010	         2.11233e+57
          2100.13640	         3.20013e+57
          2100.94270	         2.90460e+57
          2101.74900	         1.46677e+57
          2102.55530	        -2.21405e+56
          2103.36160	         1.26317e+57
          2104.16790	         2.27698e+57
          2104.97420	        -3.02635e+55
          2105.78050	         1.76931e+56
          2106.58680	         3.21848e+57
          2107.39310	         1.34229e+57
          2108.19940	         7.29777e+56
          2109.00570	        -1.61375e+57
          2109.81200	        -6.82619e+56
          2110.61830	         3.60365e+57
          2111.42460	         1.83191e+57
          2112.23090	         1.95629e+57
          2113.03720	        -1.84832e+57
          2113.84350	        -2.50964e+57
          2114.64980	         3.03467e+57
          2115.45610	         1.78287e+57
          2116.26240	        -1.24832e+56
          2117.06870	        -1.59690e+57
          2117.87500	        -5.45812e+57
          2118.68130	        -3.06712e+57
          2119.48760	         4.68272e+55
          2120.29390	         8.10817e+56
          2121.10020	        -1.39915e+57
          2121.90650	         1.17808e+57
          2122.71280	         6.95446e+57
          2123.51910	         4.72017e+57
          2124.32540	         8.07698e+56
          2125.13170	        -6.45725e+56
          2125.93800	         2.68585e+57
          2126.74430	        -6.69509e+56
          2127.55060	        -4.14784e+57
          2128.35690	        -2.13289e+57
          2129.16320	        -4.49599e+57
          2129.96950	        -7.47940e+57
          2130.77580	        -8.70745e+57
          2131.58210	         2.93664e+57
          2132.38840	         1.32197e+57
          2133.19470	         3.92777e+57
          2134.00100	         2.91614e+57
          2134.80730	         2.56724e+56
          2135.61360	         5.04432e+57
          2136.41990	         4.37492e+57
          2137.22620	         3.59114e+57
          2138.03250	         9.27469e+56
          2138.83880	        -4.87730e+57
          2139.64510	         1.05507e+57
          2140.45140	         3.68867e+56
          2141.25770	        -3.37494e+57
          2142.06400	        -1.31103e+57
          2142.87030	         8.87209e+57
          2143.67660	         1.28547e+58
          2144.48290	         9.70106e+57
          2145.28920	         1.62845e+58
          2146.09550	        -9.78275e+56
          2146.90180	        -1.76949e+58
          2147.70810	        -5.74491e+57
          2148.51440	        -4.06738e+55
          2149.32070	        -9.82332e+57
          2150.12700	        -1.09092e+58
          2150.93330	        -8.99682e+57
          2151.73960	        -1.10991e+57
          2152.54590	        -1.31974e+56
          2153.35220	        -1.00235e+57
          2154.15850	        -7.58521e+56
          2154.96480	        -1.67335e+57
          2155.77110	         4.25881e+57
          2156.57740	         2.17443e+57
          2157.38370	        -3.64816e+57
          2158.19000	         3.50119e+57
          2158.99630	        -6.33289e+57
          2159.80260	        -1.23614e+58
          2160.60890	        -2.45046e+57
          2161.41520	        -1.07076e+57
          2162.22150	        -5.57150e+57
          2163.02780	        -4.34997e+57
          2163.83410	        -4.17225e+57
          2164.64040	        -1.19864e+58
          2165.44670	        -9.35869e+57
          2166.25300	        -6.84818e+56
          2167.05930	         5.10622e+56
          2167.86560	        -3.12076e+57
          2168.67190	        -9.58744e+56
          2169.47820	        -1.55939e+57
          2170.28450	        -1.33330e+58
          2171.09080	        -1.26261e+57
          2171.89710	         5.41639e+57
          2172.70340	         4.61398e+57
          2173.50970	        -1.08256e+58
          2174.31600	        -7.27560e+57
          2175.12230	         9.95341e+56
          2175.92860	        -2.19535e+57
          2176.73490	        -2.83336e+57
          2177.54120	        -2.37278e+57
          2178.34750	        -2.37063e+57
          2179.15380	                 nan
          2179.96010	                 nan
          2180.76640	                 nan
          2181.57270	                 nan
          2182.37900	                 nan
          2183.18530	                 nan
          2183.99160	                 nan
          2184.79790	                 nan
          2185.60420	                 nan
          2186.41050	                 nan
          2187.21680	                 nan
          2188.02310	                 nan
          2188.82940	                 nan
          2189.63570	                 nan
          2190.44200	                 nan
          2191.24830	                 nan
          2192.05460	                 nan
          2192.86090	                 nan
          2193.66720	                 nan
          2194.47350	                 nan
          2195.27980	                 nan
          2196.08610	                 nan
          2196.89240	                 nan
          2197.69870	                 nan
          2198.50500	                 nan
          2199.31130	                 nan
          2200.11760	                 nan
          2200.92390	                 nan
          2201.73020	                 nan
          2202.53650	                 nan
          2203.34280	                 nan
          2204.14910	                 nan
          2204.95540	                 nan
          2205.76170	                 nan
          2206.56800	                 nan
          2207.37430	                 nan
          2208.18060	                 nan
          2208.98690	                 nan
          2209.79320	                 nan
          2210.59950	                 nan
          2211.40580	                 nan
          2212.21210	                 nan
          2213.01840	                 nan
          2213.82470	                 nan
          2214.63100	                 nan
          2215.43730	         0.00000e+00
