#sample_302_stacked_spectrum_rest_UV-bands_median_H-alpha_noDC.txt
#median Lum: 1.69769e+42
#Rest-frame wavelength (A) | Luminosity (erg/s/A)
#
          1110.00000	         0.00000e+00
          1110.80630	        -3.39861e+58
          1111.61260	         9.51079e+58
          1112.41890	         1.86216e+59
          1113.22520	         1.12828e+59
          1114.03150	         7.17258e+58
          1114.83780	         1.12472e+59
          1115.64410	         2.50933e+59
          1116.45040	         1.15185e+59
          1117.25670	        -7.21031e+58
          1118.06300	         6.21948e+57
          1118.86930	         4.14531e+58
          1119.67560	         1.72565e+59
          1120.48190	        -2.85933e+57
          1121.28820	        -8.79794e+58
          1122.09450	         2.03582e+58
          1122.90080	         4.26478e+58
          1123.70710	         6.19431e+58
          1124.51340	         1.09722e+59
          1125.31970	         9.59083e+58
          1126.12600	         1.84373e+58
          1126.93230	        -2.78006e+58
          1127.73860	        -8.61506e+58
          1128.54490	        -6.32820e+58
          1129.35120	         1.12949e+57
          1130.15750	        -4.11203e+57
          1130.96380	        -4.01223e+58
          1131.77010	         3.42890e+58
          1132.57640	         6.19580e+57
          1133.38270	         1.76433e+58
          1134.18900	         2.55858e+58
          1134.99530	         1.71881e+58
          1135.80160	         2.54031e+58
          1136.60790	         2.36319e+58
          1137.41420	        -2.53316e+57
          1138.22050	         3.89508e+58
          1139.02680	         4.78844e+58
          1139.83310	         2.17559e+58
          1140.63940	         3.20209e+58
          1141.44570	         1.48895e+58
          1142.25200	         4.66465e+56
          1143.05830	         2.19597e+58
          1143.86460	         1.89730e+58
          1144.67090	         2.11049e+58
          1145.47720	         1.41607e+58
          1146.28350	         2.29930e+57
          1147.08980	         5.27187e+57
          1147.89610	         2.04184e+58
          1148.70240	         1.97266e+58
          1149.50870	         2.17464e+58
          1150.31500	         1.68063e+58
          1151.12130	        -6.27943e+57
          1151.92760	        -1.80558e+57
          1152.73390	         9.06532e+57
          1153.54020	        -5.44567e+56
          1154.34650	         1.95232e+58
          1155.15280	         2.56105e+58
          1155.95910	         1.15091e+58
          1156.76540	         8.92306e+57
          1157.57170	        -1.39325e+57
          1158.37800	        -6.39068e+57
          1159.18430	         4.85213e+57
          1159.99060	         7.96027e+57
          1160.79690	         7.72286e+56
          1161.60320	         6.35627e+57
          1162.40950	         7.21220e+57
          1163.21580	         1.67406e+58
          1164.02210	         1.55686e+58
          1164.82840	         1.24733e+58
          1165.63470	         2.14650e+58
          1166.44100	         2.70352e+58
          1167.24730	         1.92321e+58
          1168.05360	         1.00383e+58
          1168.85990	         7.54821e+57
          1169.66620	         1.39755e+58
          1170.47250	         8.21590e+57
          1171.27880	         2.69086e+57
          1172.08510	         1.95370e+58
          1172.89140	         1.51380e+58
          1173.69770	         1.83634e+57
          1174.50400	         5.97190e+57
          1175.31030	         1.11452e+58
          1176.11660	         1.15474e+58
          1176.92290	         1.38206e+58
          1177.72920	         1.11667e+58
          1178.53550	         7.94474e+57
          1179.34180	         3.75734e+57
          1180.14810	         1.28677e+57
          1180.95440	         7.57040e+57
          1181.76070	         1.19073e+58
          1182.56700	         9.21866e+57
          1183.37330	         4.34867e+57
          1184.17960	         8.96468e+57
          1184.98590	         5.94773e+57
          1185.79220	         7.74471e+57
          1186.59850	         1.08207e+58
          1187.40480	         6.93779e+57
          1188.21110	         1.67798e+58
          1189.01740	         1.17060e+58
          1189.82370	         9.40100e+57
          1190.63000	         7.42063e+57
          1191.43630	         9.48165e+57
          1192.24260	         6.74741e+57
          1193.04890	         1.12389e+58
          1193.85520	         1.16046e+58
          1194.66150	         6.44552e+57
          1195.46780	         8.96766e+57
          1196.27410	         9.63299e+57
          1197.08040	         6.12224e+57
          1197.88670	         1.17527e+58
          1198.69300	         1.48155e+58
          1199.49930	         1.67460e+58
          1200.30560	         1.06458e+58
          1201.11190	         1.03491e+58
          1201.91820	         1.11940e+58
          1202.72450	         6.73077e+57
          1203.53080	         1.22900e+58
          1204.33710	         5.91234e+57
          1205.14340	         3.02224e+57
          1205.94970	         4.93667e+57
          1206.75600	         4.79718e+57
          1207.56230	         7.87868e+57
          1208.36860	         8.51775e+57
          1209.17490	         6.14861e+57
          1209.98120	         8.73679e+57
          1210.78750	         6.66777e+57
          1211.59380	         8.57331e+57
          1212.40010	         1.52635e+58
          1213.20640	         1.99552e+58
          1214.01270	         2.28155e+58
          1214.81900	         2.64757e+58
          1215.62530	         4.31015e+58
          1216.43160	         8.89028e+58
          1217.23790	         1.50278e+59
          1218.04420	         1.15284e+59
          1218.85050	         8.87194e+58
          1219.65680	         5.61128e+58
          1220.46310	         3.03451e+58
          1221.26940	         2.30899e+58
          1222.07570	         1.22549e+58
          1222.88200	         1.05446e+58
          1223.68830	         1.08403e+58
          1224.49460	         8.61210e+57
          1225.30090	         8.44313e+57
          1226.10720	         9.91486e+57
          1226.91350	         9.55585e+57
          1227.71980	         7.87224e+57
          1228.52610	         1.31645e+58
          1229.33240	         1.30931e+58
          1230.13870	         7.33591e+57
          1230.94500	         7.53799e+57
          1231.75130	         6.71693e+57
          1232.55760	         7.50446e+57
          1233.36390	         8.70353e+57
          1234.17020	         1.01311e+58
          1234.97650	         1.10055e+58
          1235.78280	         8.33001e+57
          1236.58910	         8.33216e+57
          1237.39540	         9.40220e+57
          1238.20170	         7.83761e+57
          1239.00800	         1.16709e+58
          1239.81430	         1.38904e+58
          1240.62060	         1.11437e+58
          1241.42690	         1.09866e+58
          1242.23320	         1.23608e+58
          1243.03950	         1.00411e+58
          1243.84580	         9.60927e+57
          1244.65210	         1.25082e+58
          1245.45840	         1.23756e+58
          1246.26470	         8.11434e+57
          1247.07100	         5.84177e+57
          1247.87730	         7.60432e+57
          1248.68360	         3.53906e+57
          1249.48990	         5.90784e+57
          1250.29620	         8.58210e+57
          1251.10250	         8.12633e+57
          1251.90880	         5.48030e+57
          1252.71510	         5.16484e+57
          1253.52140	         7.30444e+57
          1254.32770	         1.01487e+58
          1255.13400	         1.09551e+58
          1255.94030	         9.10065e+57
          1256.74660	         1.03763e+58
          1257.55290	         1.00738e+58
          1258.35920	         7.95453e+57
          1259.16550	         6.49496e+57
          1259.97180	         6.04071e+57
          1260.77810	         8.85764e+57
          1261.58440	         8.33626e+57
          1262.39070	         6.40998e+57
          1263.19700	         8.62632e+57
          1264.00330	         9.32982e+57
          1264.80960	         1.02917e+58
          1265.61590	         1.21311e+58
          1266.42220	         1.28162e+58
          1267.22850	         1.12415e+58
          1268.03480	         1.46110e+58
          1268.84110	         1.43354e+58
          1269.64740	         9.73271e+57
          1270.45370	         1.12435e+58
          1271.26000	         1.24432e+58
          1272.06630	         1.35679e+58
          1272.87260	         1.38957e+58
          1273.67890	         1.22815e+58
          1274.48520	         1.35045e+58
          1275.29150	         1.48733e+58
          1276.09780	         1.07762e+58
          1276.90410	         1.30075e+58
          1277.71040	         1.22259e+58
          1278.51670	         1.13575e+58
          1279.32300	         1.33263e+58
          1280.12930	         1.28274e+58
          1280.93560	         1.09146e+58
          1281.74190	         1.15828e+58
          1282.54820	         1.22710e+58
          1283.35450	         9.25769e+57
          1284.16080	         9.44152e+57
          1284.96710	         1.34075e+58
          1285.77340	         1.39255e+58
          1286.57970	         1.25124e+58
          1287.38600	         1.56256e+58
          1288.19230	         1.87080e+58
          1288.99860	         1.63689e+58
          1289.80490	         1.17649e+58
          1290.61120	         1.30725e+58
          1291.41750	         1.27337e+58
          1292.22380	         1.24186e+58
          1293.03010	         1.15020e+58
          1293.83640	         1.15820e+58
          1294.64270	         1.12963e+58
          1295.44900	         7.81635e+57
          1296.25530	         7.09899e+57
          1297.06160	         8.29584e+57
          1297.86790	         9.07801e+57
          1298.67420	         8.57768e+57
          1299.48050	         1.01303e+58
          1300.28680	         9.58441e+57
          1301.09310	         6.85632e+57
          1301.89940	         4.57165e+57
          1302.70570	         6.36462e+57
          1303.51200	         8.23235e+57
          1304.31830	         9.70449e+57
          1305.12460	         1.10964e+58
          1305.93090	         1.15835e+58
          1306.73720	         1.26855e+58
          1307.54350	         1.53364e+58
          1308.34980	         1.45023e+58
          1309.15610	         1.36532e+58
          1309.96240	         1.51440e+58
          1310.76870	         1.51852e+58
          1311.57500	         1.30699e+58
          1312.38130	         1.14249e+58
          1313.18760	         1.41105e+58
          1313.99390	         1.66831e+58
          1314.80020	         1.57367e+58
          1315.60650	         1.38014e+58
          1316.41280	         1.23314e+58
          1317.21910	         9.34866e+57
          1318.02540	         1.02323e+58
          1318.83170	         1.19199e+58
          1319.63800	         1.12412e+58
          1320.44430	         1.10288e+58
          1321.25060	         1.15530e+58
          1322.05690	         1.20138e+58
          1322.86320	         1.19158e+58
          1323.66950	         1.03227e+58
          1324.47580	         8.82010e+57
          1325.28210	         1.00504e+58
          1326.08840	         1.17273e+58
          1326.89470	         1.15473e+58
          1327.70100	         9.75332e+57
          1328.50730	         8.42491e+57
          1329.31360	         1.01454e+58
          1330.11990	         1.01077e+58
          1330.92620	         9.61067e+57
          1331.73250	         1.24955e+58
          1332.53880	         1.08257e+58
          1333.34510	         8.83245e+57
          1334.15140	         8.17027e+57
          1334.95770	         8.73857e+57
          1335.76400	         1.11604e+58
          1336.57030	         1.12139e+58
          1337.37660	         1.02951e+58
          1338.18290	         1.10691e+58
          1338.98920	         1.15797e+58
          1339.79550	         1.16178e+58
          1340.60180	         1.13878e+58
          1341.40810	         1.30945e+58
          1342.21440	         1.18324e+58
          1343.02070	         1.18848e+58
          1343.82700	         1.33424e+58
          1344.63330	         1.35644e+58
          1345.43960	         1.43269e+58
          1346.24590	         1.20614e+58
          1347.05220	         1.05965e+58
          1347.85850	         1.08116e+58
          1348.66480	         1.16815e+58
          1349.47110	         1.34337e+58
          1350.27740	         1.10825e+58
          1351.08370	         1.07904e+58
          1351.89000	         1.21220e+58
          1352.69630	         1.29547e+58
          1353.50260	         1.21153e+58
          1354.30890	         1.23560e+58
          1355.11520	         1.22745e+58
          1355.92150	         1.15161e+58
          1356.72780	         1.04466e+58
          1357.53410	         9.72563e+57
          1358.34040	         1.13197e+58
          1359.14670	         1.03424e+58
          1359.95300	         1.01825e+58
          1360.75930	         1.03548e+58
          1361.56560	         1.03718e+58
          1362.37190	         1.24904e+58
          1363.17820	         1.16014e+58
          1363.98450	         1.19117e+58
          1364.79080	         1.21406e+58
          1365.59710	         1.24207e+58
          1366.40340	         1.24451e+58
          1367.20970	         1.14748e+58
          1368.01600	         1.05376e+58
          1368.82230	         8.57550e+57
          1369.62860	         8.21468e+57
          1370.43490	         8.63154e+57
          1371.24120	         9.20337e+57
          1372.04750	         8.52940e+57
          1372.85380	         1.02256e+58
          1373.66010	         1.13816e+58
          1374.46640	         1.13848e+58
          1375.27270	         1.06539e+58
          1376.07900	         8.73428e+57
          1376.88530	         9.54140e+57
          1377.69160	         9.34488e+57
          1378.49790	         7.23323e+57
          1379.30420	         7.87880e+57
          1380.11050	         9.98023e+57
          1380.91680	         8.96528e+57
          1381.72310	         8.73863e+57
          1382.52940	         6.90433e+57
          1383.33570	         6.54409e+57
          1384.14200	         1.01829e+58
          1384.94830	         1.04182e+58
          1385.75460	         9.78389e+57
          1386.56090	         1.13745e+58
          1387.36720	         1.01581e+58
          1388.17350	         1.16522e+58
          1388.97980	         1.06804e+58
          1389.78610	         8.87544e+57
          1390.59240	         5.72331e+57
          1391.39870	         5.24126e+57
          1392.20500	         6.79146e+57
          1393.01130	         6.08990e+57
          1393.81760	         5.61374e+57
          1394.62390	         6.96374e+57
          1395.43020	         5.90743e+57
          1396.23650	         4.90100e+57
          1397.04280	         7.30175e+57
          1397.84910	         9.04066e+57
          1398.65540	         8.89598e+57
          1399.46170	         1.00824e+58
          1400.26800	         9.74916e+57
          1401.07430	         8.80246e+57
          1401.88060	         7.76883e+57
          1402.68690	         8.47492e+57
          1403.49320	         9.31005e+57
          1404.29950	         9.24515e+57
          1405.10580	         9.03806e+57
          1405.91210	         9.93188e+57
          1406.71840	         1.02740e+58
          1407.52470	         9.69574e+57
          1408.33100	         9.68598e+57
          1409.13730	         9.89642e+57
          1409.94360	         1.12162e+58
          1410.74990	         1.24008e+58
          1411.55620	         1.01895e+58
          1412.36250	         8.45106e+57
          1413.16880	         8.76303e+57
          1413.97510	         8.96859e+57
          1414.78140	         9.17071e+57
          1415.58770	         9.83617e+57
          1416.39400	         1.08905e+58
          1417.20030	         1.11960e+58
          1418.00660	         9.27205e+57
          1418.81290	         1.08438e+58
          1419.61920	         1.16105e+58
          1420.42550	         1.26430e+58
          1421.23180	         1.38580e+58
          1422.03810	         1.17091e+58
          1422.84440	         1.10100e+58
          1423.65070	         1.17973e+58
          1424.45700	         9.46604e+57
          1425.26330	         7.29172e+57
          1426.06960	         9.16789e+57
          1426.87590	         1.01405e+58
          1427.68220	         9.41986e+57
          1428.48850	         1.09168e+58
          1429.29480	         1.12750e+58
          1430.10110	         1.02984e+58
          1430.90740	         9.91366e+57
          1431.71370	         8.40212e+57
          1432.52000	         7.15512e+57
          1433.32630	         7.19171e+57
          1434.13260	         7.64193e+57
          1434.93890	         7.96265e+57
          1435.74520	         8.80795e+57
          1436.55150	         9.15962e+57
          1437.35780	         8.92200e+57
          1438.16410	         9.16005e+57
          1438.97040	         9.48877e+57
          1439.77670	         9.33966e+57
          1440.58300	         9.40639e+57
          1441.38930	         9.90664e+57
          1442.19560	         9.84060e+57
          1443.00190	         9.77928e+57
          1443.80820	         1.13802e+58
          1444.61450	         1.21192e+58
          1445.42080	         9.54537e+57
          1446.22710	         1.06901e+58
          1447.03340	         1.15144e+58
          1447.83970	         1.15865e+58
          1448.64600	         1.08421e+58
          1449.45230	         1.08563e+58
          1450.25860	         1.07624e+58
          1451.06490	         9.22657e+57
          1451.87120	         7.03861e+57
          1452.67750	         7.46876e+57
          1453.48380	         9.18003e+57
          1454.29010	         8.66050e+57
          1455.09640	         7.43362e+57
          1455.90270	         8.90000e+57
          1456.70900	         8.36572e+57
          1457.51530	         7.75507e+57
          1458.32160	         1.00764e+58
          1459.12790	         1.08772e+58
          1459.93420	         9.51362e+57
          1460.74050	         7.04744e+57
          1461.54680	         9.16014e+57
          1462.35310	         9.32960e+57
          1463.15940	         8.58190e+57
          1463.96570	         1.08394e+58
          1464.77200	         1.07835e+58
          1465.57830	         1.01747e+58
          1466.38460	         9.31695e+57
          1467.19090	         9.18030e+57
          1467.99720	         8.75817e+57
          1468.80350	         7.82432e+57
          1469.60980	         9.20658e+57
          1470.41610	         1.06957e+58
          1471.22240	         1.02470e+58
          1472.02870	         1.03114e+58
          1472.83500	         8.77257e+57
          1473.64130	         9.67711e+57
          1474.44760	         1.05701e+58
          1475.25390	         9.39782e+57
          1476.06020	         9.22853e+57
          1476.86650	         8.80995e+57
          1477.67280	         7.81776e+57
          1478.47910	         7.18993e+57
          1479.28540	         7.30940e+57
          1480.09170	         8.71813e+57
          1480.89800	         8.73078e+57
          1481.70430	         7.88346e+57
          1482.51060	         7.51644e+57
          1483.31690	         7.15871e+57
          1484.12320	         7.09930e+57
          1484.92950	         7.49409e+57
          1485.73580	         8.59294e+57
          1486.54210	         7.97863e+57
          1487.34840	         7.70834e+57
          1488.15470	         7.28236e+57
          1488.96100	         7.78610e+57
          1489.76730	         8.93394e+57
          1490.57360	         8.56283e+57
          1491.37990	         7.32051e+57
          1492.18620	         8.38296e+57
          1492.99250	         7.77701e+57
          1493.79880	         8.40144e+57
          1494.60510	         8.10818e+57
          1495.41140	         7.30758e+57
          1496.21770	         9.21681e+57
          1497.02400	         1.07209e+58
          1497.83030	         9.22273e+57
          1498.63660	         7.03578e+57
          1499.44290	         6.59136e+57
          1500.24920	         7.45813e+57
          1501.05550	         8.12624e+57
          1501.86180	         7.88044e+57
          1502.66810	         9.62811e+57
          1503.47440	         8.58170e+57
          1504.28070	         7.57065e+57
          1505.08700	         9.04667e+57
          1505.89330	         8.65740e+57
          1506.69960	         8.18938e+57
          1507.50590	         8.50453e+57
          1508.31220	         8.34179e+57
          1509.11850	         9.28328e+57
          1509.92480	         8.97901e+57
          1510.73110	         8.41670e+57
          1511.53740	         6.51375e+57
          1512.34370	         6.50116e+57
          1513.15000	         9.10359e+57
          1513.95630	         1.03082e+58
          1514.76260	         8.88295e+57
          1515.56890	         8.03370e+57
          1516.37520	         8.88564e+57
          1517.18150	         7.96703e+57
          1517.98780	         7.20597e+57
          1518.79410	         7.46561e+57
          1519.60040	         8.13019e+57
          1520.40670	         9.73202e+57
          1521.21300	         9.34815e+57
          1522.01930	         7.32525e+57
          1522.82560	         8.36446e+57
          1523.63190	         9.74990e+57
          1524.43820	         8.69039e+57
          1525.24450	         6.24487e+57
          1526.05080	         6.01975e+57
          1526.85710	         6.89578e+57
          1527.66340	         6.73599e+57
          1528.46970	         7.26022e+57
          1529.27600	         8.29741e+57
          1530.08230	         8.22636e+57
          1530.88860	         7.14294e+57
          1531.69490	         7.64182e+57
          1532.50120	         9.55238e+57
          1533.30750	         1.04183e+58
          1534.11380	         9.95210e+57
          1534.92010	         1.01392e+58
          1535.72640	         8.89487e+57
          1536.53270	         8.83893e+57
          1537.33900	         8.93109e+57
          1538.14530	         8.20933e+57
          1538.95160	         8.59092e+57
          1539.75790	         8.59575e+57
          1540.56420	         9.23395e+57
          1541.37050	         9.21081e+57
          1542.17680	         7.83456e+57
          1542.98310	         7.28749e+57
          1543.78940	         7.34802e+57
          1544.59570	         6.37121e+57
          1545.40200	         8.26600e+57
          1546.20830	         9.11951e+57
          1547.01460	         1.06484e+58
          1547.82090	         1.15078e+58
          1548.62720	         1.23949e+58
          1549.43350	         1.22918e+58
          1550.23980	         1.12507e+58
          1551.04610	         1.18731e+58
          1551.85240	         1.15021e+58
          1552.65870	         1.09947e+58
          1553.46500	         1.03128e+58
          1554.27130	         9.98237e+57
          1555.07760	         1.07722e+58
          1555.88390	         9.59049e+57
          1556.69020	         8.77030e+57
          1557.49650	         8.62394e+57
          1558.30280	         9.32125e+57
          1559.10910	         8.97956e+57
          1559.91540	         9.00329e+57
          1560.72170	         9.57702e+57
          1561.52800	         9.04182e+57
          1562.33430	         9.20122e+57
          1563.14060	         8.16081e+57
          1563.94690	         8.19286e+57
          1564.75320	         8.43954e+57
          1565.55950	         7.38915e+57
          1566.36580	         7.47358e+57
          1567.17210	         9.41265e+57
          1567.97840	         9.95725e+57
          1568.78470	         9.25785e+57
          1569.59100	         9.75333e+57
          1570.39730	         8.54030e+57
          1571.20360	         6.60024e+57
          1572.00990	         7.36488e+57
          1572.81620	         8.39810e+57
          1573.62250	         9.39217e+57
          1574.42880	         9.02654e+57
          1575.23510	         7.54726e+57
          1576.04140	         8.36602e+57
          1576.84770	         8.69653e+57
          1577.65400	         8.25490e+57
          1578.46030	         9.50293e+57
          1579.26660	         9.89535e+57
          1580.07290	         9.42935e+57
          1580.87920	         6.93805e+57
          1581.68550	         6.94682e+57
          1582.49180	         8.18842e+57
          1583.29810	         7.40923e+57
          1584.10440	         7.74602e+57
          1584.91070	         8.86165e+57
          1585.71700	         9.13328e+57
          1586.52330	         8.50162e+57
          1587.32960	         7.64587e+57
          1588.13590	         8.07170e+57
          1588.94220	         8.33875e+57
          1589.74850	         9.13011e+57
          1590.55480	         9.70143e+57
          1591.36110	         8.79661e+57
          1592.16740	         8.44031e+57
          1592.97370	         7.48097e+57
          1593.78000	         7.92430e+57
          1594.58630	         9.33178e+57
          1595.39260	         7.91751e+57
          1596.19890	         7.50278e+57
          1597.00520	         8.34300e+57
          1597.81150	         8.08717e+57
          1598.61780	         6.91283e+57
          1599.42410	         7.04092e+57
          1600.23040	         7.64802e+57
          1601.03670	         7.77876e+57
          1601.84300	         7.53484e+57
          1602.64930	         7.91803e+57
          1603.45560	         9.46265e+57
          1604.26190	         8.22867e+57
          1605.06820	         7.37421e+57
          1605.87450	         6.46859e+57
          1606.68080	         6.92036e+57
          1607.48710	         6.41821e+57
          1608.29340	         5.50993e+57
          1609.09970	         7.49443e+57
          1609.90600	         8.11825e+57
          1610.71230	         7.68774e+57
          1611.51860	         8.03447e+57
          1612.32490	         7.67727e+57
          1613.13120	         8.01597e+57
          1613.93750	         8.51038e+57
          1614.74380	         9.23894e+57
          1615.55010	         9.72173e+57
          1616.35640	         1.02693e+58
          1617.16270	         1.08233e+58
          1617.96900	         9.73698e+57
          1618.77530	         8.72736e+57
          1619.58160	         9.40965e+57
          1620.38790	         8.53072e+57
          1621.19420	         8.22674e+57
          1622.00050	         7.79546e+57
          1622.80680	         8.59876e+57
          1623.61310	         8.24360e+57
          1624.41940	         8.25102e+57
          1625.22570	         9.06474e+57
          1626.03200	         9.03177e+57
          1626.83830	         7.83023e+57
          1627.64460	         6.95302e+57
          1628.45090	         6.55448e+57
          1629.25720	         8.74801e+57
          1630.06350	         1.00268e+58
          1630.86980	         7.31722e+57
          1631.67610	         7.79971e+57
          1632.48240	         9.37615e+57
          1633.28870	         9.54684e+57
          1634.09500	         1.05384e+58
          1634.90130	         1.06282e+58
          1635.70760	         9.92665e+57
          1636.51390	         8.44611e+57
          1637.32020	         7.98677e+57
          1638.12650	         8.21703e+57
          1638.93280	         8.76906e+57
          1639.73910	         1.11886e+58
          1640.54540	         1.06052e+58
          1641.35170	         8.06617e+57
          1642.15800	         7.56651e+57
          1642.96430	         7.76858e+57
          1643.77060	         7.85683e+57
          1644.57690	         8.14254e+57
          1645.38320	         8.51793e+57
          1646.18950	         8.14207e+57
          1646.99580	         8.55999e+57
          1647.80210	         7.80793e+57
          1648.60840	         8.34936e+57
          1649.41470	         8.55212e+57
          1650.22100	         8.26528e+57
          1651.02730	         8.36656e+57
          1651.83360	         7.79167e+57
          1652.63990	         7.74288e+57
          1653.44620	         8.14372e+57
          1654.25250	         7.52462e+57
          1655.05880	         8.34351e+57
          1655.86510	         7.71552e+57
          1656.67140	         8.00700e+57
          1657.47770	         7.39436e+57
          1658.28400	         7.75525e+57
          1659.09030	         8.26702e+57
          1659.89660	         8.94411e+57
          1660.70290	         9.58329e+57
          1661.50920	         8.99647e+57
          1662.31550	         8.03379e+57
          1663.12180	         8.45979e+57
          1663.92810	         9.68977e+57
          1664.73440	         1.08716e+58
          1665.54070	         1.15941e+58
          1666.34700	         1.24104e+58
          1667.15330	         1.13547e+58
          1667.95960	         8.79242e+57
          1668.76590	         6.62511e+57
          1669.57220	         6.97118e+57
          1670.37850	         7.95736e+57
          1671.18480	         8.81817e+57
          1671.99110	         7.21490e+57
          1672.79740	         7.18345e+57
          1673.60370	         7.15219e+57
          1674.41000	         7.71758e+57
          1675.21630	         7.52569e+57
          1676.02260	         7.03786e+57
          1676.82890	         7.19199e+57
          1677.63520	         7.19910e+57
          1678.44150	         7.83892e+57
          1679.24780	         7.92200e+57
          1680.05410	         6.87338e+57
          1680.86040	         6.39999e+57
          1681.66670	         7.38136e+57
          1682.47300	         8.27093e+57
          1683.27930	         7.64322e+57
          1684.08560	         7.94394e+57
          1684.89190	         7.79175e+57
          1685.69820	         5.62740e+57
          1686.50450	         4.73886e+57
          1687.31080	         5.90515e+57
          1688.11710	         8.00496e+57
          1688.92340	         6.69635e+57
          1689.72970	         5.98259e+57
          1690.53600	         7.04205e+57
          1691.34230	         6.88416e+57
          1692.14860	         6.62010e+57
          1692.95490	         6.73883e+57
          1693.76120	         6.71630e+57
          1694.56750	         7.25806e+57
          1695.37380	         8.83861e+57
          1696.18010	         9.22294e+57
          1696.98640	         8.96821e+57
          1697.79270	         9.15922e+57
          1698.59900	         8.46373e+57
          1699.40530	         6.67768e+57
          1700.21160	         6.79223e+57
          1701.01790	         8.30733e+57
          1701.82420	         7.60687e+57
          1702.63050	         7.57401e+57
          1703.43680	         9.03109e+57
          1704.24310	         9.10024e+57
          1705.04940	         8.34583e+57
          1705.85570	         8.87066e+57
          1706.66200	         9.31566e+57
          1707.46830	         8.65116e+57
          1708.27460	         6.88860e+57
          1709.08090	         7.08175e+57
          1709.88720	         6.48350e+57
          1710.69350	         6.04968e+57
          1711.49980	         6.48726e+57
          1712.30610	         7.40790e+57
          1713.11240	         8.39741e+57
          1713.91870	         7.95308e+57
          1714.72500	         8.71911e+57
          1715.53130	         9.34847e+57
          1716.33760	         7.74538e+57
          1717.14390	         7.61544e+57
          1717.95020	         9.30702e+57
          1718.75650	         9.16844e+57
          1719.56280	         8.17639e+57
          1720.36910	         7.24109e+57
          1721.17540	         7.25841e+57
          1721.98170	         7.09252e+57
          1722.78800	         6.47893e+57
          1723.59430	         6.92972e+57
          1724.40060	         8.67025e+57
          1725.20690	         7.98374e+57
          1726.01320	         8.69526e+57
          1726.81950	         8.20595e+57
          1727.62580	         7.30091e+57
          1728.43210	         7.22026e+57
          1729.23840	         7.05948e+57
          1730.04470	         7.83021e+57
          1730.85100	         9.04318e+57
          1731.65730	         8.63973e+57
          1732.46360	         7.73134e+57
          1733.26990	         6.58184e+57
          1734.07620	         6.44155e+57
          1734.88250	         7.19173e+57
          1735.68880	         7.43625e+57
          1736.49510	         8.34976e+57
          1737.30140	         8.38313e+57
          1738.10770	         6.56803e+57
          1738.91400	         6.62312e+57
          1739.72030	         5.84965e+57
          1740.52660	         5.38127e+57
          1741.33290	         5.78140e+57
          1742.13920	         6.02256e+57
          1742.94550	         7.96493e+57
          1743.75180	         8.39841e+57
          1744.55810	         8.28278e+57
          1745.36440	         6.87938e+57
          1746.17070	         5.94327e+57
          1746.97700	         5.82286e+57
          1747.78330	         5.85463e+57
          1748.58960	         6.00036e+57
          1749.39590	         6.40646e+57
          1750.20220	         6.55549e+57
          1751.00850	         6.36267e+57
          1751.81480	         7.02500e+57
          1752.62110	         7.69549e+57
          1753.42740	         7.33387e+57
          1754.23370	         5.96330e+57
          1755.04000	         6.36590e+57
          1755.84630	         7.53019e+57
          1756.65260	         7.89806e+57
          1757.45890	         7.86846e+57
          1758.26520	         7.15403e+57
          1759.07150	         8.12184e+57
          1759.87780	         7.65498e+57
          1760.68410	         6.71056e+57
          1761.49040	         7.40343e+57
          1762.29670	         6.42786e+57
          1763.10300	         6.43284e+57
          1763.90930	         7.74911e+57
          1764.71560	         7.73343e+57
          1765.52190	         6.86401e+57
          1766.32820	         7.47362e+57
          1767.13450	         8.36826e+57
          1767.94080	         7.14863e+57
          1768.74710	         6.56624e+57
          1769.55340	         6.56008e+57
          1770.35970	         5.91357e+57
          1771.16600	         7.22416e+57
          1771.97230	         8.54130e+57
          1772.77860	         8.67486e+57
          1773.58490	         7.27481e+57
          1774.39120	         5.81742e+57
          1775.19750	         6.42155e+57
          1776.00380	         6.83008e+57
          1776.81010	         6.84415e+57
          1777.61640	         6.97300e+57
          1778.42270	         7.76389e+57
          1779.22900	         7.46162e+57
          1780.03530	         7.47680e+57
          1780.84160	         7.35097e+57
          1781.64790	         7.84449e+57
          1782.45420	         6.70007e+57
          1783.26050	         5.91599e+57
          1784.06680	         6.84998e+57
          1784.87310	         7.14204e+57
          1785.67940	         7.33207e+57
          1786.48570	         7.31692e+57
          1787.29200	         7.16781e+57
          1788.09830	         6.75557e+57
          1788.90460	         6.13503e+57
          1789.71090	         5.95703e+57
          1790.51720	         5.88695e+57
          1791.32350	         6.75595e+57
          1792.12980	         7.89952e+57
          1792.93610	         7.61551e+57
          1793.74240	         7.79139e+57
          1794.54870	         8.29518e+57
          1795.35500	         7.80916e+57
          1796.16130	         7.86080e+57
          1796.96760	         7.60260e+57
          1797.77390	         7.74484e+57
          1798.58020	         6.94289e+57
          1799.38650	         5.76745e+57
          1800.19280	         6.57028e+57
          1800.99910	         7.36548e+57
          1801.80540	         6.87916e+57
          1802.61170	         7.62972e+57
          1803.41800	         8.50230e+57
          1804.22430	         7.03890e+57
          1805.03060	         6.47526e+57
          1805.83690	         6.98000e+57
          1806.64320	         7.32911e+57
          1807.44950	         6.80209e+57
          1808.25580	         7.98316e+57
          1809.06210	         8.11773e+57
          1809.86840	         6.61943e+57
          1810.67470	         7.92970e+57
          1811.48100	         8.52521e+57
          1812.28730	         8.45062e+57
          1813.09360	         7.70535e+57
          1813.89990	         8.21308e+57
          1814.70620	         8.18139e+57
          1815.51250	         7.68525e+57
          1816.31880	         7.90479e+57
          1817.12510	         7.03355e+57
          1817.93140	         5.57452e+57
          1818.73770	         6.41329e+57
          1819.54400	         8.88584e+57
          1820.35030	         8.36976e+57
          1821.15660	         6.35752e+57
          1821.96290	         7.09401e+57
          1822.76920	         8.74867e+57
          1823.57550	         7.72354e+57
          1824.38180	         7.18085e+57
          1825.18810	         7.96152e+57
          1825.99440	         8.00098e+57
          1826.80070	         7.64271e+57
          1827.60700	         7.21033e+57
          1828.41330	         6.04273e+57
          1829.21960	         6.58455e+57
          1830.02590	         6.58454e+57
          1830.83220	         7.49216e+57
          1831.63850	         7.15034e+57
          1832.44480	         6.76036e+57
          1833.25110	         7.71707e+57
          1834.05740	         8.16708e+57
          1834.86370	         6.99727e+57
          1835.67000	         5.06571e+57
          1836.47630	         7.50760e+57
          1837.28260	         8.70353e+57
          1838.08890	         8.37565e+57
          1838.89520	         8.51951e+57
          1839.70150	         7.88347e+57
          1840.50780	         7.47691e+57
          1841.31410	         7.09873e+57
          1842.12040	         6.32980e+57
          1842.92670	         6.07177e+57
          1843.73300	         6.47707e+57
          1844.53930	         7.31039e+57
          1845.34560	         7.57645e+57
          1846.15190	         7.44727e+57
          1846.95820	         7.65475e+57
          1847.76450	         7.10611e+57
          1848.57080	         6.03615e+57
          1849.37710	         6.75975e+57
          1850.18340	         7.15904e+57
          1850.98970	         7.61997e+57
          1851.79600	         7.97541e+57
          1852.60230	         7.06540e+57
          1853.40860	         6.45438e+57
          1854.21490	         6.41967e+57
          1855.02120	         6.10553e+57
          1855.82750	         4.61801e+57
          1856.63380	         4.59083e+57
          1857.44010	         6.28926e+57
          1858.24640	         7.13732e+57
          1859.05270	         6.98339e+57
          1859.85900	         6.01821e+57
          1860.66530	         5.69309e+57
          1861.47160	         5.83347e+57
          1862.27790	         6.28237e+57
          1863.08420	         7.23171e+57
          1863.89050	         7.94021e+57
          1864.69680	         7.29832e+57
          1865.50310	         6.58071e+57
          1866.30940	         5.68175e+57
          1867.11570	         5.79866e+57
          1867.92200	         6.74514e+57
          1868.72830	         7.54576e+57
          1869.53460	         7.15380e+57
          1870.34090	         7.44950e+57
          1871.14720	         7.62635e+57
          1871.95350	         7.26848e+57
          1872.75980	         7.22389e+57
          1873.56610	         7.23363e+57
          1874.37240	         5.88879e+57
          1875.17870	         5.28081e+57
          1875.98500	         6.44902e+57
          1876.79130	         6.66765e+57
          1877.59760	         7.00106e+57
          1878.40390	         6.72397e+57
          1879.21020	         5.72605e+57
          1880.01650	         6.83219e+57
          1880.82280	         8.43360e+57
          1881.62910	         8.81100e+57
          1882.43540	         9.91533e+57
          1883.24170	         8.86465e+57
          1884.04800	         6.29637e+57
          1884.85430	         7.26763e+57
          1885.66060	         8.52146e+57
          1886.46690	         8.86533e+57
          1887.27320	         7.47496e+57
          1888.07950	         6.61714e+57
          1888.88580	         7.16043e+57
          1889.69210	         8.65707e+57
          1890.49840	         7.50159e+57
          1891.30470	         8.56609e+57
          1892.11100	         8.33152e+57
          1892.91730	         7.99811e+57
          1893.72360	         7.34948e+57
          1894.52990	         6.45176e+57
          1895.33620	         7.71463e+57
          1896.14250	         6.38626e+57
          1896.94880	         6.38514e+57
          1897.75510	         5.00888e+57
          1898.56140	         6.38229e+57
          1899.36770	         7.77044e+57
          1900.17400	         6.48030e+57
          1900.98030	         6.19134e+57
          1901.78660	         6.98932e+57
          1902.59290	         7.25356e+57
          1903.39920	         7.94745e+57
          1904.20550	         9.19979e+57
          1905.01180	         1.00890e+58
          1905.81810	         1.02056e+58
          1906.62440	         1.17782e+58
          1907.43070	         1.41106e+58
          1908.23700	         1.48220e+58
          1909.04330	         1.30002e+58
          1909.84960	         1.07486e+58
          1910.65590	         9.19446e+57
          1911.46220	         8.40510e+57
          1912.26850	         7.31714e+57
          1913.07480	         6.08824e+57
          1913.88110	         6.19279e+57
          1914.68740	         6.08204e+57
          1915.49370	         5.57638e+57
          1916.30000	         5.94248e+57
          1917.10630	         7.03478e+57
          1917.91260	         7.42096e+57
          1918.71890	         6.99287e+57
          1919.52520	         6.65067e+57
          1920.33150	         5.48243e+57
          1921.13780	         6.81037e+57
          1921.94410	         7.68484e+57
          1922.75040	         7.07352e+57
          1923.55670	         6.02336e+57
          1924.36300	         6.62292e+57
          1925.16930	         7.01720e+57
          1925.97560	         5.43471e+57
          1926.78190	         4.68793e+57
          1927.58820	         5.41560e+57
          1928.39450	         5.27482e+57
          1929.20080	         5.21730e+57
          1930.00710	         6.37913e+57
          1930.81340	         7.59481e+57
          1931.61970	         7.41066e+57
          1932.42600	         6.34084e+57
          1933.23230	         7.67013e+57
          1934.03860	         6.30209e+57
          1934.84490	         4.93018e+57
          1935.65120	         6.33975e+57
          1936.45750	         8.60775e+57
          1937.26380	         7.09786e+57
          1938.07010	         6.35310e+57
          1938.87640	         6.67480e+57
          1939.68270	         7.78373e+57
          1940.48900	         7.85270e+57
          1941.29530	         7.87162e+57
          1942.10160	         7.99330e+57
          1942.90790	         6.94607e+57
          1943.71420	         6.28379e+57
          1944.52050	         5.74778e+57
          1945.32680	         5.32625e+57
          1946.13310	         7.62070e+57
          1946.93940	         8.32886e+57
          1947.74570	         8.19408e+57
          1948.55200	         6.31019e+57
          1949.35830	         6.49266e+57
          1950.16460	         5.73611e+57
          1950.97090	         6.47164e+57
          1951.77720	         7.12025e+57
          1952.58350	         7.21238e+57
          1953.38980	         6.20492e+57
          1954.19610	         4.89264e+57
          1955.00240	         6.66587e+57
          1955.80870	         6.38930e+57
          1956.61500	         5.41144e+57
          1957.42130	         5.59239e+57
          1958.22760	         6.25192e+57
          1959.03390	         7.35933e+57
          1959.84020	         7.67517e+57
          1960.64650	         7.18605e+57
          1961.45280	         6.78048e+57
          1962.25910	         6.00549e+57
          1963.06540	         6.38951e+57
          1963.87170	         5.04332e+57
          1964.67800	         6.62953e+57
          1965.48430	         5.59352e+57
          1966.29060	         4.82910e+57
          1967.09690	         6.72618e+57
          1967.90320	         7.04017e+57
          1968.70950	         7.00645e+57
          1969.51580	         7.17057e+57
          1970.32210	         7.08745e+57
          1971.12840	         7.53948e+57
          1971.93470	         5.72885e+57
          1972.74100	         5.35517e+57
          1973.54730	         7.12048e+57
          1974.35360	         7.25908e+57
          1975.15990	         6.45220e+57
          1975.96620	         6.10673e+57
          1976.77250	         8.07877e+57
          1977.57880	         8.10582e+57
          1978.38510	         7.31634e+57
          1979.19140	         7.33767e+57
          1979.99770	         7.96276e+57
          1980.80400	         7.36173e+57
          1981.61030	         6.57423e+57
          1982.41660	         6.24414e+57
          1983.22290	         5.94895e+57
          1984.02920	         6.62919e+57
          1984.83550	         6.15464e+57
          1985.64180	         6.24516e+57
          1986.44810	         6.15975e+57
          1987.25440	         4.88951e+57
          1988.06070	         5.42196e+57
          1988.86700	         6.03119e+57
          1989.67330	         7.12635e+57
          1990.47960	         7.39031e+57
          1991.28590	         6.76245e+57
          1992.09220	         5.80045e+57
          1992.89850	         6.22263e+57
          1993.70480	         5.57275e+57
          1994.51110	         6.10073e+57
          1995.31740	         5.64011e+57
          1996.12370	         4.85236e+57
          1996.93000	         6.03722e+57
          1997.73630	         7.72986e+57
          1998.54260	         7.59962e+57
          1999.34890	         7.43655e+57
          2000.15520	         6.36781e+57
          2000.96150	         7.03820e+57
          2001.76780	         5.03740e+57
          2002.57410	         4.21240e+57
          2003.38040	         5.88825e+57
          2004.18670	         6.01172e+57
          2004.99300	         6.44370e+57
          2005.79930	         6.86740e+57
          2006.60560	         6.71025e+57
          2007.41190	         6.12398e+57
          2008.21820	         6.54696e+57
          2009.02450	         5.97447e+57
          2009.83080	         6.01217e+57
          2010.63710	         6.41583e+57
          2011.44340	         7.09437e+57
          2012.24970	         6.88163e+57
          2013.05600	         6.60162e+57
          2013.86230	         6.28355e+57
          2014.66860	         5.90071e+57
          2015.47490	         6.39923e+57
          2016.28120	         6.50155e+57
          2017.08750	         5.85380e+57
          2017.89380	         5.27897e+57
          2018.70010	         5.99228e+57
          2019.50640	         5.28449e+57
          2020.31270	         6.65930e+57
          2021.11900	         5.57851e+57
          2021.92530	         6.57297e+57
          2022.73160	         7.45477e+57
          2023.53790	         7.39285e+57
          2024.34420	         6.63215e+57
          2025.15050	         6.52402e+57
          2025.95680	         6.31897e+57
          2026.76310	         6.05453e+57
          2027.56940	         5.81533e+57
          2028.37570	         6.71066e+57
          2029.18200	         6.01289e+57
          2029.98830	         5.92111e+57
          2030.79460	         6.30105e+57
          2031.60090	         6.72720e+57
          2032.40720	         6.60286e+57
          2033.21350	         5.93066e+57
          2034.01980	         6.12097e+57
          2034.82610	         4.46589e+57
          2035.63240	         5.64353e+57
          2036.43870	         6.78799e+57
          2037.24500	         6.10724e+57
          2038.05130	         6.06819e+57
          2038.85760	         6.85702e+57
          2039.66390	         5.96582e+57
          2040.47020	         5.32264e+57
          2041.27650	         5.73952e+57
          2042.08280	         5.07544e+57
          2042.88910	         5.41098e+57
          2043.69540	         4.65122e+57
          2044.50170	         6.37527e+57
          2045.30800	         7.27064e+57
          2046.11430	         5.35983e+57
          2046.92060	         4.82192e+57
          2047.72690	         7.02605e+57
          2048.53320	         4.95021e+57
          2049.33950	         4.03542e+57
          2050.14580	         5.09694e+57
          2050.95210	         5.69207e+57
          2051.75840	         6.11826e+57
          2052.56470	         5.86783e+57
          2053.37100	         4.70261e+57
          2054.17730	         5.14872e+57
          2054.98360	         6.95803e+57
          2055.78990	         5.09101e+57
          2056.59620	         4.06019e+57
          2057.40250	         5.44219e+57
          2058.20880	         6.52674e+57
          2059.01510	         5.47829e+57
          2059.82140	         6.12298e+57
          2060.62770	         1.08588e+58
          2061.43400	         1.76761e+58
          2062.24030	         1.26599e+58
          2063.04660	         4.04099e+57
          2063.85290	         2.18683e+57
          2064.65920	        -7.46805e+56
          2065.46550	        -8.23466e+57
          2066.27180	        -8.30759e+57
          2067.07810	         4.13630e+57
          2067.88440	         5.25797e+57
          2068.69070	         6.79320e+57
          2069.49700	         6.17414e+57
          2070.30330	         4.95566e+57
          2071.10960	         6.68464e+57
          2071.91590	         6.81165e+57
          2072.72220	         2.88291e+57
          2073.52850	         4.38690e+57
          2074.33480	         4.80935e+57
          2075.14110	         6.17658e+57
          2075.94740	         4.95370e+57
          2076.75370	         4.07038e+57
          2077.56000	         4.31219e+57
          2078.36630	         5.42835e+57
          2079.17260	         5.23042e+57
          2079.97890	         5.29261e+57
          2080.78520	         6.51328e+57
          2081.59150	         4.89496e+57
          2082.39780	         5.13083e+57
          2083.20410	         2.52832e+57
          2084.01040	         2.42242e+57
          2084.81670	         3.29835e+57
          2085.62300	         3.47101e+57
          2086.42930	         3.26806e+57
          2087.23560	         2.81214e+57
          2088.04190	         3.44662e+57
          2088.84820	         2.93528e+57
          2089.65450	         1.72942e+57
          2090.46080	         1.51478e+57
          2091.26710	         1.51931e+57
          2092.07340	         2.63792e+57
          2092.87970	         3.29689e+57
          2093.68600	        -2.33291e+57
          2094.49230	         1.10730e+57
          2095.29860	         4.50107e+57
          2096.10490	         2.45015e+57
          2096.91120	         1.69620e+57
          2097.71750	         2.41919e+57
          2098.52380	         1.39813e+56
          2099.33010	         1.15379e+57
          2100.13640	         1.03348e+57
          2100.94270	         1.37488e+57
          2101.74900	         3.47559e+57
          2102.55530	         4.33597e+57
          2103.36160	         4.15561e+57
          2104.16790	         3.11216e+57
          2104.97420	         1.05014e+57
          2105.78050	         6.80458e+56
          2106.58680	         8.06856e+56
          2107.39310	        -5.64258e+56
          2108.19940	        -1.75540e+57
          2109.00570	        -1.52660e+57
          2109.81200	        -1.41837e+57
          2110.61830	         4.78573e+56
          2111.42460	         5.79427e+56
          2112.23090	         1.67280e+57
          2113.03720	        -9.35241e+56
          2113.84350	         5.23929e+57
          2114.64980	         5.79378e+57
          2115.45610	        -9.19453e+56
          2116.26240	        -4.34666e+56
          2117.06870	        -3.93669e+57
          2117.87500	        -1.74286e+57
          2118.68130	        -8.37401e+56
          2119.48760	        -8.78705e+56
          2120.29390	        -2.85701e+57
          2121.10020	        -5.20238e+57
          2121.90650	        -1.59216e+57
          2122.71280	         1.85537e+57
          2123.51910	         5.94694e+57
          2124.32540	         3.11569e+57
          2125.13170	         5.97238e+57
          2125.93800	         3.01459e+57
          2126.74430	        -3.55162e+57
          2127.55060	        -5.53473e+57
          2128.35690	        -2.98079e+57
          2129.16320	        -1.84464e+57
          2129.96950	        -9.76885e+57
          2130.77580	        -5.20555e+57
          2131.58210	         6.58103e+57
          2132.38840	         3.32768e+57
          2133.19470	         1.33102e+57
          2134.00100	        -4.89449e+56
          2134.80730	        -1.11491e+58
          2135.61360	        -4.10017e+57
          2136.41990	         5.27246e+57
          2137.22620	         9.46207e+57
          2138.03250	         1.05554e+57
          2138.83880	        -2.01001e+57
          2139.64510	        -3.02932e+56
          2140.45140	        -6.04585e+57
          2141.25770	        -1.40521e+58
          2142.06400	        -3.67185e+57
          2142.87030	         1.00551e+58
          2143.67660	         1.03358e+58
          2144.48290	         6.42692e+57
          2145.28920	         3.57297e+57
          2146.09550	        -8.52233e+57
          2146.90180	        -8.72903e+57
          2147.70810	        -5.90839e+57
          2148.51440	        -4.30924e+57
          2149.32070	        -8.18381e+57
          2150.12700	        -8.26111e+57
          2150.93330	        -3.52814e+57
          2151.73960	        -2.06718e+57
          2152.54590	        -4.18528e+56
          2153.35220	         1.56781e+57
          2154.15850	        -8.73245e+57
          2154.96480	        -2.25998e+57
          2155.77110	        -2.07444e+57
          2156.57740	        -1.42973e+58
          2157.38370	        -4.13894e+57
          2158.19000	         1.06770e+58
          2158.99630	         1.82437e+57
          2159.80260	        -1.96051e+58
          2160.60890	        -3.61925e+57
          2161.41520	         4.18361e+57
          2162.22150	         1.98743e+57
          2163.02780	        -5.36391e+56
          2163.83410	        -1.04428e+58
          2164.64040	        -1.57997e+58
          2165.44670	        -9.31113e+57
          2166.25300	        -5.74257e+57
          2167.05930	         6.16186e+57
          2167.86560	         1.27122e+57
          2168.67190	        -2.31865e+57
          2169.47820	        -1.46768e+58
          2170.28450	        -3.01603e+57
          2171.09080	        -7.51356e+56
          2171.89710	         2.05271e+57
          2172.70340	        -9.25317e+57
          2173.50970	        -7.79017e+57
          2174.31600	        -3.76744e+57
          2175.12230	        -1.32408e+58
          2175.92860	        -6.37475e+57
          2176.73490	        -5.68632e+57
          2177.54120	        -1.73694e+57
          2178.34750	        -3.77133e+57
          2179.15380	                 nan
          2179.96010	                 nan
          2180.76640	                 nan
          2181.57270	                 nan
          2182.37900	                 nan
          2183.18530	                 nan
          2183.99160	                 nan
          2184.79790	                 nan
          2185.60420	                 nan
          2186.41050	                 nan
          2187.21680	                 nan
          2188.02310	                 nan
          2188.82940	                 nan
          2189.63570	                 nan
          2190.44200	                 nan
          2191.24830	                 nan
          2192.05460	                 nan
          2192.86090	                 nan
          2193.66720	                 nan
          2194.47350	                 nan
          2195.27980	                 nan
          2196.08610	                 nan
          2196.89240	                 nan
          2197.69870	                 nan
          2198.50500	                 nan
          2199.31130	                 nan
          2200.11760	                 nan
          2200.92390	                 nan
          2201.73020	                 nan
          2202.53650	                 nan
          2203.34280	                 nan
          2204.14910	                 nan
          2204.95540	                 nan
          2205.76170	                 nan
          2206.56800	                 nan
          2207.37430	                 nan
          2208.18060	                 nan
          2208.98690	                 nan
          2209.79320	                 nan
          2210.59950	                 nan
          2211.40580	                 nan
          2212.21210	                 nan
          2213.01840	                 nan
          2213.82470	                 nan
          2214.63100	                 nan
          2215.43730	         0.00000e+00
