#sample_252_stacked_spectrum_rest_UV-bands_median_H-alpha_noDC.txt
#median Lum: 1.68315e+42
#Rest-frame wavelength (A) | Luminosity (erg/s/A)
#
          1110.00000	         0.00000e+00
          1110.80630	        -4.24743e+59
          1111.61260	         9.41872e+58
          1112.41890	         1.48515e+59
          1113.22520	         2.81951e+59
          1114.03150	         1.09487e+59
          1114.83780	         4.86321e+58
          1115.64410	         2.78331e+57
          1116.45040	         1.48789e+59
          1117.25670	         6.19560e+58
          1118.06300	         1.61092e+59
          1118.86930	        -3.52202e+58
          1119.67560	         1.01772e+59
          1120.48190	        -8.90600e+58
          1121.28820	        -1.97006e+59
          1122.09450	         2.41280e+58
          1122.90080	        -9.46786e+57
          1123.70710	         2.10148e+58
          1124.51340	         7.55321e+58
          1125.31970	         7.60167e+57
          1126.12600	         2.41791e+57
          1126.93230	        -4.53605e+58
          1127.73860	        -6.88969e+58
          1128.54490	        -1.97884e+58
          1129.35120	         1.00025e+58
          1130.15750	        -2.73870e+58
          1130.96380	         3.66736e+57
          1131.77010	         6.74532e+58
          1132.57640	         1.38779e+58
          1133.38270	         2.57494e+58
          1134.18900	         1.63177e+58
          1134.99530	         1.92820e+58
          1135.80160	         2.99214e+58
          1136.60790	         1.47561e+58
          1137.41420	        -1.25872e+58
          1138.22050	         4.14847e+58
          1139.02680	         4.85452e+58
          1139.83310	         2.02020e+58
          1140.63940	         3.50295e+58
          1141.44570	        -9.44689e+57
          1142.25200	        -1.72942e+57
          1143.05830	         3.12275e+58
          1143.86460	         3.67238e+58
          1144.67090	         3.51131e+58
          1145.47720	         2.24232e+58
          1146.28350	         1.88446e+58
          1147.08980	         1.95341e+57
          1147.89610	         1.77317e+58
          1148.70240	         2.51462e+58
          1149.50870	         2.88625e+58
          1150.31500	         1.67535e+58
          1151.12130	         9.49538e+56
          1151.92760	         1.60801e+58
          1152.73390	         1.15263e+57
          1153.54020	        -7.36869e+57
          1154.34650	         1.72037e+58
          1155.15280	         2.26908e+58
          1155.95910	         9.76480e+57
          1156.76540	         1.39884e+58
          1157.57170	         3.62241e+57
          1158.37800	        -2.34418e+57
          1159.18430	         1.41485e+56
          1159.99060	         2.56162e+57
          1160.79690	         1.48741e+57
          1161.60320	         3.52862e+57
          1162.40950	         1.51197e+58
          1163.21580	         1.97225e+58
          1164.02210	         1.15789e+58
          1164.82840	         1.92203e+58
          1165.63470	         2.76097e+58
          1166.44100	         2.89541e+58
          1167.24730	         1.87153e+58
          1168.05360	         5.31220e+57
          1168.85990	         1.38674e+58
          1169.66620	         9.52426e+57
          1170.47250	         1.06547e+58
          1171.27880	         1.15989e+58
          1172.08510	         2.17577e+58
          1172.89140	         9.42855e+57
          1173.69770	         1.48355e+58
          1174.50400	         1.08036e+58
          1175.31030	         1.61724e+58
          1176.11660	         2.25205e+58
          1176.92290	         1.84156e+58
          1177.72920	         1.15317e+58
          1178.53550	         5.23393e+57
          1179.34180	         2.18928e+57
          1180.14810	         7.01464e+57
          1180.95440	         1.29734e+58
          1181.76070	         5.92684e+57
          1182.56700	         5.35221e+57
          1183.37330	         5.71279e+57
          1184.17960	         1.22676e+58
          1184.98590	         1.07233e+58
          1185.79220	         8.46616e+57
          1186.59850	         1.02360e+58
          1187.40480	         9.31170e+57
          1188.21110	         9.16559e+57
          1189.01740	         8.08987e+57
          1189.82370	         9.18528e+57
          1190.63000	         7.75314e+57
          1191.43630	         1.09208e+58
          1192.24260	         1.18778e+58
          1193.04890	         1.40414e+58
          1193.85520	         1.21189e+58
          1194.66150	         5.79643e+57
          1195.46780	         1.41995e+58
          1196.27410	         1.56971e+58
          1197.08040	         7.39742e+57
          1197.88670	         1.31630e+58
          1198.69300	         1.43342e+58
          1199.49930	         1.78584e+58
          1200.30560	         1.30853e+58
          1201.11190	         7.54797e+57
          1201.91820	         1.24735e+58
          1202.72450	         6.91059e+57
          1203.53080	         1.27997e+58
          1204.33710	         7.76582e+57
          1205.14340	         5.47147e+57
          1205.94970	         6.79293e+57
          1206.75600	         6.98321e+57
          1207.56230	         7.55257e+57
          1208.36860	         6.39531e+57
          1209.17490	         8.62754e+57
          1209.98120	         9.35735e+57
          1210.78750	         1.10672e+58
          1211.59380	         1.45130e+58
          1212.40010	         1.83355e+58
          1213.20640	         2.07782e+58
          1214.01270	         2.13389e+58
          1214.81900	         2.47490e+58
          1215.62530	         4.47222e+58
          1216.43160	         9.09004e+58
          1217.23790	         1.53921e+59
          1218.04420	         1.17399e+59
          1218.85050	         8.63709e+58
          1219.65680	         5.96315e+58
          1220.46310	         3.77232e+58
          1221.26940	         2.40343e+58
          1222.07570	         1.27143e+58
          1222.88200	         1.27899e+58
          1223.68830	         1.25317e+58
          1224.49460	         8.07931e+57
          1225.30090	         4.17751e+57
          1226.10720	         6.14544e+57
          1226.91350	         8.11346e+57
          1227.71980	         9.69892e+57
          1228.52610	         1.20622e+58
          1229.33240	         7.27186e+57
          1230.13870	         6.89129e+57
          1230.94500	         8.72943e+57
          1231.75130	         7.25737e+57
          1232.55760	         8.63242e+57
          1233.36390	         8.38804e+57
          1234.17020	         8.33261e+57
          1234.97650	         7.28915e+57
          1235.78280	         6.22715e+57
          1236.58910	         7.44127e+57
          1237.39540	         1.00810e+58
          1238.20170	         1.12379e+58
          1239.00800	         1.30432e+58
          1239.81430	         1.55956e+58
          1240.62060	         1.04665e+58
          1241.42690	         1.12864e+58
          1242.23320	         1.16637e+58
          1243.03950	         7.69217e+57
          1243.84580	         8.89002e+57
          1244.65210	         1.07563e+58
          1245.45840	         9.61537e+57
          1246.26470	         9.26678e+57
          1247.07100	         7.43988e+57
          1247.87730	         5.79447e+57
          1248.68360	         3.38300e+57
          1249.48990	         6.82729e+57
          1250.29620	         9.98797e+57
          1251.10250	         7.12139e+57
          1251.90880	         5.94919e+57
          1252.71510	         7.61032e+57
          1253.52140	         6.90742e+57
          1254.32770	         8.40571e+57
          1255.13400	         1.28095e+58
          1255.94030	         1.25477e+58
          1256.74660	         1.13011e+58
          1257.55290	         1.20008e+58
          1258.35920	         9.96612e+57
          1259.16550	         8.97882e+57
          1259.97180	         5.92333e+57
          1260.77810	         7.57373e+57
          1261.58440	         1.26643e+58
          1262.39070	         1.18628e+58
          1263.19700	         9.37453e+57
          1264.00330	         9.91944e+57
          1264.80960	         1.12044e+58
          1265.61590	         1.21355e+58
          1266.42220	         1.24985e+58
          1267.22850	         1.22974e+58
          1268.03480	         1.32175e+58
          1268.84110	         1.37018e+58
          1269.64740	         1.26267e+58
          1270.45370	         1.33108e+58
          1271.26000	         9.56638e+57
          1272.06630	         9.54326e+57
          1272.87260	         1.22460e+58
          1273.67890	         1.38653e+58
          1274.48520	         1.11083e+58
          1275.29150	         1.03353e+58
          1276.09780	         1.01760e+58
          1276.90410	         1.44951e+58
          1277.71040	         1.32979e+58
          1278.51670	         1.32533e+58
          1279.32300	         1.37495e+58
          1280.12930	         1.10747e+58
          1280.93560	         8.55824e+57
          1281.74190	         1.11216e+58
          1282.54820	         1.30963e+58
          1283.35450	         1.16153e+58
          1284.16080	         1.15216e+58
          1284.96710	         1.25878e+58
          1285.77340	         9.57158e+57
          1286.57970	         1.03227e+58
          1287.38600	         1.48093e+58
          1288.19230	         1.86141e+58
          1288.99860	         1.69491e+58
          1289.80490	         1.09118e+58
          1290.61120	         1.40506e+58
          1291.41750	         1.42891e+58
          1292.22380	         1.19385e+58
          1293.03010	         9.54887e+57
          1293.83640	         1.12365e+58
          1294.64270	         1.17054e+58
          1295.44900	         7.79213e+57
          1296.25530	         7.07755e+57
          1297.06160	         1.08251e+58
          1297.86790	         1.14086e+58
          1298.67420	         9.11987e+57
          1299.48050	         1.12740e+58
          1300.28680	         1.21470e+58
          1301.09310	         8.13907e+57
          1301.89940	         3.19592e+57
          1302.70570	         4.48269e+57
          1303.51200	         6.84751e+57
          1304.31830	         1.06119e+58
          1305.12460	         1.20371e+58
          1305.93090	         1.13359e+58
          1306.73720	         1.25625e+58
          1307.54350	         1.51209e+58
          1308.34980	         1.62229e+58
          1309.15610	         1.72699e+58
          1309.96240	         1.37980e+58
          1310.76870	         1.06050e+58
          1311.57500	         1.03000e+58
          1312.38130	         8.22052e+57
          1313.18760	         1.35012e+58
          1313.99390	         1.78671e+58
          1314.80020	         1.65973e+58
          1315.60650	         1.39431e+58
          1316.41280	         1.19853e+58
          1317.21910	         1.19164e+58
          1318.02540	         1.07473e+58
          1318.83170	         1.23599e+58
          1319.63800	         1.15267e+58
          1320.44430	         9.87870e+57
          1321.25060	         1.07286e+58
          1322.05690	         1.10876e+58
          1322.86320	         1.29206e+58
          1323.66950	         1.14132e+58
          1324.47580	         8.70374e+57
          1325.28210	         9.28378e+57
          1326.08840	         1.19160e+58
          1326.89470	         1.49127e+58
          1327.70100	         1.28481e+58
          1328.50730	         7.52913e+57
          1329.31360	         8.78114e+57
          1330.11990	         1.01567e+58
          1330.92620	         1.00077e+58
          1331.73250	         1.12698e+58
          1332.53880	         9.88529e+57
          1333.34510	         8.37185e+57
          1334.15140	         7.89632e+57
          1334.95770	         8.08194e+57
          1335.76400	         9.42730e+57
          1336.57030	         1.14335e+58
          1337.37660	         1.12286e+58
          1338.18290	         1.19962e+58
          1338.98920	         1.30225e+58
          1339.79550	         1.10780e+58
          1340.60180	         1.17465e+58
          1341.40810	         1.31125e+58
          1342.21440	         1.19153e+58
          1343.02070	         1.13509e+58
          1343.82700	         1.28123e+58
          1344.63330	         1.22553e+58
          1345.43960	         1.25790e+58
          1346.24590	         8.65655e+57
          1347.05220	         8.70208e+57
          1347.85850	         1.01943e+58
          1348.66480	         1.15156e+58
          1349.47110	         1.19516e+58
          1350.27740	         1.02369e+58
          1351.08370	         1.01101e+58
          1351.89000	         8.79592e+57
          1352.69630	         1.10544e+58
          1353.50260	         1.20118e+58
          1354.30890	         1.22994e+58
          1355.11520	         1.22097e+58
          1355.92150	         1.09069e+58
          1356.72780	         9.65845e+57
          1357.53410	         1.04849e+58
          1358.34040	         1.03635e+58
          1359.14670	         9.31318e+57
          1359.95300	         1.00615e+58
          1360.75930	         1.09337e+58
          1361.56560	         1.12596e+58
          1362.37190	         1.23870e+58
          1363.17820	         1.17684e+58
          1363.98450	         1.31660e+58
          1364.79080	         1.34397e+58
          1365.59710	         1.28496e+58
          1366.40340	         1.14729e+58
          1367.20970	         9.06459e+57
          1368.01600	         8.71076e+57
          1368.82230	         1.00481e+58
          1369.62860	         1.11584e+58
          1370.43490	         9.13515e+57
          1371.24120	         8.50938e+57
          1372.04750	         8.31775e+57
          1372.85380	         1.11982e+58
          1373.66010	         1.24570e+58
          1374.46640	         1.14416e+58
          1375.27270	         1.12368e+58
          1376.07900	         8.54022e+57
          1376.88530	         7.44318e+57
          1377.69160	         8.27549e+57
          1378.49790	         8.29990e+57
          1379.30420	         8.22699e+57
          1380.11050	         8.70080e+57
          1380.91680	         8.18378e+57
          1381.72310	         8.96892e+57
          1382.52940	         8.84102e+57
          1383.33570	         9.23226e+57
          1384.14200	         1.04586e+58
          1384.94830	         1.15371e+58
          1385.75460	         1.05902e+58
          1386.56090	         1.07955e+58
          1387.36720	         1.15858e+58
          1388.17350	         1.21904e+58
          1388.97980	         1.04759e+58
          1389.78610	         8.98774e+57
          1390.59240	         8.40089e+57
          1391.39870	         6.83016e+57
          1392.20500	         8.14538e+57
          1393.01130	         6.33993e+57
          1393.81760	         5.95088e+57
          1394.62390	         7.72616e+57
          1395.43020	         7.78438e+57
          1396.23650	         7.75258e+57
          1397.04280	         7.37492e+57
          1397.84910	         9.06483e+57
          1398.65540	         8.36360e+57
          1399.46170	         9.34904e+57
          1400.26800	         8.72596e+57
          1401.07430	         7.24162e+57
          1401.88060	         8.44107e+57
          1402.68690	         1.03736e+58
          1403.49320	         1.11028e+58
          1404.29950	         1.10600e+58
          1405.10580	         1.12946e+58
          1405.91210	         1.01637e+58
          1406.71840	         1.06107e+58
          1407.52470	         1.06870e+58
          1408.33100	         1.02146e+58
          1409.13730	         1.17736e+58
          1409.94360	         1.14844e+58
          1410.74990	         1.11709e+58
          1411.55620	         1.06617e+58
          1412.36250	         8.18305e+57
          1413.16880	         7.20540e+57
          1413.97510	         8.62230e+57
          1414.78140	         9.73345e+57
          1415.58770	         1.07850e+58
          1416.39400	         1.14619e+58
          1417.20030	         1.23383e+58
          1418.00660	         1.05311e+58
          1418.81290	         1.02302e+58
          1419.61920	         9.58672e+57
          1420.42550	         1.14460e+58
          1421.23180	         1.39038e+58
          1422.03810	         1.19443e+58
          1422.84440	         1.11482e+58
          1423.65070	         1.25184e+58
          1424.45700	         1.11231e+58
          1425.26330	         1.01471e+58
          1426.06960	         9.26064e+57
          1426.87590	         1.01157e+58
          1427.68220	         1.10881e+58
          1428.48850	         1.05441e+58
          1429.29480	         9.28606e+57
          1430.10110	         1.02812e+58
          1430.90740	         8.88587e+57
          1431.71370	         8.39671e+57
          1432.52000	         8.37215e+57
          1433.32630	         8.57901e+57
          1434.13260	         8.51534e+57
          1434.93890	         8.32755e+57
          1435.74520	         9.43600e+57
          1436.55150	         9.41942e+57
          1437.35780	         9.04978e+57
          1438.16410	         8.87971e+57
          1438.97040	         8.41463e+57
          1439.77670	         9.08990e+57
          1440.58300	         1.04102e+58
          1441.38930	         9.76534e+57
          1442.19560	         9.47508e+57
          1443.00190	         9.53154e+57
          1443.80820	         1.04905e+58
          1444.61450	         9.84616e+57
          1445.42080	         9.47243e+57
          1446.22710	         1.09557e+58
          1447.03340	         9.76754e+57
          1447.83970	         1.08872e+58
          1448.64600	         1.16670e+58
          1449.45230	         1.11675e+58
          1450.25860	         9.96218e+57
          1451.06490	         8.33402e+57
          1451.87120	         7.40596e+57
          1452.67750	         7.08349e+57
          1453.48380	         8.90084e+57
          1454.29010	         8.96023e+57
          1455.09640	         8.01743e+57
          1455.90270	         9.24121e+57
          1456.70900	         8.29295e+57
          1457.51530	         7.69889e+57
          1458.32160	         1.06711e+58
          1459.12790	         1.11661e+58
          1459.93420	         9.92077e+57
          1460.74050	         9.02494e+57
          1461.54680	         8.02233e+57
          1462.35310	         7.44887e+57
          1463.15940	         1.09430e+58
          1463.96570	         1.24114e+58
          1464.77200	         1.15483e+58
          1465.57830	         1.05598e+58
          1466.38460	         9.21344e+57
          1467.19090	         7.58425e+57
          1467.99720	         8.14313e+57
          1468.80350	         9.16204e+57
          1469.60980	         9.03766e+57
          1470.41610	         9.76376e+57
          1471.22240	         9.70449e+57
          1472.02870	         9.51332e+57
          1472.83500	         9.37482e+57
          1473.64130	         9.99468e+57
          1474.44760	         9.88975e+57
          1475.25390	         8.70191e+57
          1476.06020	         9.12071e+57
          1476.86650	         8.57117e+57
          1477.67280	         7.05210e+57
          1478.47910	         6.86886e+57
          1479.28540	         8.28596e+57
          1480.09170	         9.88844e+57
          1480.89800	         9.05289e+57
          1481.70430	         8.08712e+57
          1482.51060	         7.78161e+57
          1483.31690	         7.18984e+57
          1484.12320	         6.84045e+57
          1484.92950	         6.81704e+57
          1485.73580	         7.94561e+57
          1486.54210	         9.19529e+57
          1487.34840	         8.13912e+57
          1488.15470	         8.48636e+57
          1488.96100	         9.56322e+57
          1489.76730	         9.48486e+57
          1490.57360	         8.54008e+57
          1491.37990	         8.22870e+57
          1492.18620	         9.40240e+57
          1492.99250	         8.68982e+57
          1493.79880	         8.31571e+57
          1494.60510	         8.17622e+57
          1495.41140	         6.70198e+57
          1496.21770	         8.37378e+57
          1497.02400	         1.08643e+58
          1497.83030	         8.50534e+57
          1498.63660	         7.82239e+57
          1499.44290	         7.32354e+57
          1500.24920	         7.02748e+57
          1501.05550	         9.30714e+57
          1501.86180	         9.34580e+57
          1502.66810	         9.93328e+57
          1503.47440	         9.33574e+57
          1504.28070	         8.34132e+57
          1505.08700	         8.62028e+57
          1505.89330	         8.61727e+57
          1506.69960	         8.20518e+57
          1507.50590	         8.68472e+57
          1508.31220	         9.26880e+57
          1509.11850	         9.39565e+57
          1509.92480	         8.57580e+57
          1510.73110	         8.83040e+57
          1511.53740	         8.02829e+57
          1512.34370	         7.08221e+57
          1513.15000	         7.95939e+57
          1513.95630	         9.48528e+57
          1514.76260	         8.61341e+57
          1515.56890	         8.44745e+57
          1516.37520	         1.01183e+58
          1517.18150	         9.04142e+57
          1517.98780	         7.28169e+57
          1518.79410	         7.62829e+57
          1519.60040	         8.62846e+57
          1520.40670	         9.38208e+57
          1521.21300	         9.18422e+57
          1522.01930	         8.19538e+57
          1522.82560	         8.17466e+57
          1523.63190	         1.00291e+58
          1524.43820	         8.65067e+57
          1525.24450	         6.73569e+57
          1526.05080	         6.79925e+57
          1526.85710	         6.62827e+57
          1527.66340	         7.33273e+57
          1528.46970	         7.37417e+57
          1529.27600	         7.06225e+57
          1530.08230	         7.32442e+57
          1530.88860	         7.73426e+57
          1531.69490	         9.18932e+57
          1532.50120	         9.22882e+57
          1533.30750	         9.20318e+57
          1534.11380	         9.27772e+57
          1534.92010	         8.85434e+57
          1535.72640	         9.21149e+57
          1536.53270	         9.73787e+57
          1537.33900	         9.41425e+57
          1538.14530	         9.67487e+57
          1538.95160	         9.75904e+57
          1539.75790	         9.59725e+57
          1540.56420	         8.95342e+57
          1541.37050	         7.93710e+57
          1542.17680	         7.55802e+57
          1542.98310	         8.37292e+57
          1543.78940	         8.04644e+57
          1544.59570	         7.62102e+57
          1545.40200	         8.61690e+57
          1546.20830	         9.70283e+57
          1547.01460	         1.10975e+58
          1547.82090	         1.06738e+58
          1548.62720	         1.22730e+58
          1549.43350	         1.14084e+58
          1550.23980	         1.07297e+58
          1551.04610	         1.24744e+58
          1551.85240	         1.16727e+58
          1552.65870	         1.13655e+58
          1553.46500	         1.05918e+58
          1554.27130	         1.06335e+58
          1555.07760	         1.08046e+58
          1555.88390	         8.62909e+57
          1556.69020	         8.16370e+57
          1557.49650	         8.68816e+57
          1558.30280	         8.18798e+57
          1559.10910	         8.88304e+57
          1559.91540	         9.58698e+57
          1560.72170	         8.14961e+57
          1561.52800	         8.22685e+57
          1562.33430	         9.45683e+57
          1563.14060	         8.43744e+57
          1563.94690	         8.45063e+57
          1564.75320	         8.46691e+57
          1565.55950	         7.39613e+57
          1566.36580	         7.64981e+57
          1567.17210	         9.49499e+57
          1567.97840	         9.54210e+57
          1568.78470	         8.85174e+57
          1569.59100	         8.88607e+57
          1570.39730	         8.42067e+57
          1571.20360	         7.25294e+57
          1572.00990	         7.87309e+57
          1572.81620	         8.76793e+57
          1573.62250	         9.73815e+57
          1574.42880	         9.53655e+57
          1575.23510	         8.79816e+57
          1576.04140	         8.78663e+57
          1576.84770	         8.93616e+57
          1577.65400	         9.05917e+57
          1578.46030	         9.50357e+57
          1579.26660	         1.02977e+58
          1580.07290	         9.29177e+57
          1580.87920	         8.24362e+57
          1581.68550	         7.64130e+57
          1582.49180	         8.02481e+57
          1583.29810	         8.52577e+57
          1584.10440	         8.70593e+57
          1584.91070	         8.92617e+57
          1585.71700	         9.13398e+57
          1586.52330	         8.77641e+57
          1587.32960	         9.16636e+57
          1588.13590	         9.58323e+57
          1588.94220	         8.71992e+57
          1589.74850	         9.16506e+57
          1590.55480	         9.41074e+57
          1591.36110	         8.51327e+57
          1592.16740	         8.68460e+57
          1592.97370	         8.28934e+57
          1593.78000	         8.85294e+57
          1594.58630	         9.45106e+57
          1595.39260	         8.50292e+57
          1596.19890	         8.93450e+57
          1597.00520	         1.00381e+58
          1597.81150	         9.37471e+57
          1598.61780	         7.67447e+57
          1599.42410	         6.60812e+57
          1600.23040	         6.50131e+57
          1601.03670	         7.97064e+57
          1601.84300	         7.37128e+57
          1602.64930	         8.20396e+57
          1603.45560	         8.52836e+57
          1604.26190	         7.55010e+57
          1605.06820	         7.37130e+57
          1605.87450	         7.04107e+57
          1606.68080	         6.18086e+57
          1607.48710	         5.09898e+57
          1608.29340	         5.17104e+57
          1609.09970	         7.05087e+57
          1609.90600	         7.05471e+57
          1610.71230	         7.11916e+57
          1611.51860	         7.44932e+57
          1612.32490	         7.48618e+57
          1613.13120	         7.87113e+57
          1613.93750	         8.07316e+57
          1614.74380	         8.46747e+57
          1615.55010	         8.56206e+57
          1616.35640	         1.03879e+58
          1617.16270	         1.13713e+58
          1617.96900	         1.03524e+58
          1618.77530	         9.18146e+57
          1619.58160	         8.41537e+57
          1620.38790	         8.46313e+57
          1621.19420	         9.52988e+57
          1622.00050	         8.27992e+57
          1622.80680	         8.53211e+57
          1623.61310	         8.14178e+57
          1624.41940	         8.55433e+57
          1625.22570	         9.83692e+57
          1626.03200	         8.46345e+57
          1626.83830	         7.59692e+57
          1627.64460	         7.65113e+57
          1628.45090	         7.11927e+57
          1629.25720	         9.06385e+57
          1630.06350	         9.72806e+57
          1630.86980	         7.23268e+57
          1631.67610	         7.58927e+57
          1632.48240	         8.18382e+57
          1633.28870	         7.79874e+57
          1634.09500	         9.43330e+57
          1634.90130	         1.15624e+58
          1635.70760	         8.61229e+57
          1636.51390	         5.99110e+57
          1637.32020	         6.50653e+57
          1638.12650	         8.21295e+57
          1638.93280	         8.86542e+57
          1639.73910	         9.68971e+57
          1640.54540	         9.92540e+57
          1641.35170	         9.66183e+57
          1642.15800	         9.05897e+57
          1642.96430	         8.45816e+57
          1643.77060	         8.50976e+57
          1644.57690	         8.02569e+57
          1645.38320	         8.69511e+57
          1646.18950	         7.92193e+57
          1646.99580	         9.23693e+57
          1647.80210	         8.40293e+57
          1648.60840	         7.44065e+57
          1649.41470	         7.76543e+57
          1650.22100	         6.70389e+57
          1651.02730	         7.06065e+57
          1651.83360	         7.10040e+57
          1652.63990	         7.08943e+57
          1653.44620	         8.18092e+57
          1654.25250	         7.48516e+57
          1655.05880	         7.34683e+57
          1655.86510	         8.71735e+57
          1656.67140	         8.87841e+57
          1657.47770	         7.91890e+57
          1658.28400	         8.45205e+57
          1659.09030	         8.92732e+57
          1659.89660	         8.75931e+57
          1660.70290	         9.47618e+57
          1661.50920	         9.56914e+57
          1662.31550	         8.64166e+57
          1663.12180	         8.55085e+57
          1663.92810	         9.71176e+57
          1664.73440	         1.06485e+58
          1665.54070	         1.14467e+58
          1666.34700	         1.23206e+58
          1667.15330	         1.21440e+58
          1667.95960	         1.06731e+58
          1668.76590	         7.64739e+57
          1669.57220	         6.37960e+57
          1670.37850	         6.83570e+57
          1671.18480	         7.81100e+57
          1671.99110	         7.39732e+57
          1672.79740	         7.58707e+57
          1673.60370	         7.09117e+57
          1674.41000	         7.09042e+57
          1675.21630	         6.36651e+57
          1676.02260	         6.17937e+57
          1676.82890	         6.63600e+57
          1677.63520	         6.53863e+57
          1678.44150	         7.20426e+57
          1679.24780	         8.38193e+57
          1680.05410	         7.45400e+57
          1680.86040	         6.73998e+57
          1681.66670	         7.47198e+57
          1682.47300	         8.38242e+57
          1683.27930	         8.24853e+57
          1684.08560	         8.80987e+57
          1684.89190	         8.26205e+57
          1685.69820	         5.08325e+57
          1686.50450	         5.33533e+57
          1687.31080	         7.17081e+57
          1688.11710	         8.54271e+57
          1688.92340	         7.83177e+57
          1689.72970	         6.71367e+57
          1690.53600	         6.79457e+57
          1691.34230	         7.19525e+57
          1692.14860	         7.46078e+57
          1692.95490	         7.49685e+57
          1693.76120	         6.98971e+57
          1694.56750	         6.29705e+57
          1695.37380	         8.98848e+57
          1696.18010	         9.57938e+57
          1696.98640	         9.20343e+57
          1697.79270	         9.30203e+57
          1698.59900	         7.97030e+57
          1699.40530	         7.89525e+57
          1700.21160	         7.51988e+57
          1701.01790	         8.27551e+57
          1701.82420	         8.16682e+57
          1702.63050	         6.96334e+57
          1703.43680	         7.80487e+57
          1704.24310	         9.24007e+57
          1705.04940	         8.91264e+57
          1705.85570	         8.09028e+57
          1706.66200	         8.57779e+57
          1707.46830	         8.76318e+57
          1708.27460	         7.46203e+57
          1709.08090	         5.86343e+57
          1709.88720	         5.26234e+57
          1710.69350	         5.19195e+57
          1711.49980	         5.11588e+57
          1712.30610	         6.85392e+57
          1713.11240	         9.15421e+57
          1713.91870	         7.97038e+57
          1714.72500	         7.56429e+57
          1715.53130	         8.41485e+57
          1716.33760	         7.86702e+57
          1717.14390	         7.24583e+57
          1717.95020	         8.17392e+57
          1718.75650	         8.89716e+57
          1719.56280	         8.86537e+57
          1720.36910	         7.60797e+57
          1721.17540	         7.48202e+57
          1721.98170	         6.33493e+57
          1722.78800	         6.14601e+57
          1723.59430	         6.99400e+57
          1724.40060	         8.51689e+57
          1725.20690	         8.34138e+57
          1726.01320	         7.73759e+57
          1726.81950	         7.19498e+57
          1727.62580	         7.81153e+57
          1728.43210	         7.42853e+57
          1729.23840	         6.70756e+57
          1730.04470	         8.05976e+57
          1730.85100	         9.13711e+57
          1731.65730	         8.15787e+57
          1732.46360	         7.60806e+57
          1733.26990	         7.37087e+57
          1734.07620	         7.20813e+57
          1734.88250	         6.94981e+57
          1735.68880	         6.86171e+57
          1736.49510	         7.31122e+57
          1737.30140	         7.81328e+57
          1738.10770	         7.68046e+57
          1738.91400	         7.67436e+57
          1739.72030	         7.82227e+57
          1740.52660	         6.58090e+57
          1741.33290	         6.19446e+57
          1742.13920	         5.77531e+57
          1742.94550	         6.63507e+57
          1743.75180	         7.35240e+57
          1744.55810	         7.36072e+57
          1745.36440	         7.18736e+57
          1746.17070	         5.20398e+57
          1746.97700	         4.68844e+57
          1747.78330	         6.79162e+57
          1748.58960	         7.27800e+57
          1749.39590	         7.26977e+57
          1750.20220	         6.67916e+57
          1751.00850	         6.12238e+57
          1751.81480	         5.87916e+57
          1752.62110	         7.55738e+57
          1753.42740	         8.39790e+57
          1754.23370	         6.97772e+57
          1755.04000	         7.74995e+57
          1755.84630	         8.03721e+57
          1756.65260	         8.61831e+57
          1757.45890	         8.91465e+57
          1758.26520	         6.51527e+57
          1759.07150	         8.32279e+57
          1759.87780	         8.11098e+57
          1760.68410	         8.30950e+57
          1761.49040	         9.73695e+57
          1762.29670	         7.63117e+57
          1763.10300	         7.12822e+57
          1763.90930	         7.60177e+57
          1764.71560	         8.13635e+57
          1765.52190	         7.94482e+57
          1766.32820	         8.37841e+57
          1767.13450	         7.65802e+57
          1767.94080	         7.10897e+57
          1768.74710	         6.99595e+57
          1769.55340	         7.23335e+57
          1770.35970	         6.35557e+57
          1771.16600	         6.84816e+57
          1771.97230	         8.67664e+57
          1772.77860	         8.91462e+57
          1773.58490	         7.02913e+57
          1774.39120	         6.46875e+57
          1775.19750	         6.57853e+57
          1776.00380	         6.67256e+57
          1776.81010	         6.66299e+57
          1777.61640	         6.78966e+57
          1778.42270	         7.68891e+57
          1779.22900	         7.59334e+57
          1780.03530	         6.88773e+57
          1780.84160	         6.11301e+57
          1781.64790	         7.83835e+57
          1782.45420	         7.47523e+57
          1783.26050	         6.48818e+57
          1784.06680	         7.65959e+57
          1784.87310	         7.92500e+57
          1785.67940	         7.63375e+57
          1786.48570	         7.48023e+57
          1787.29200	         7.48359e+57
          1788.09830	         6.70722e+57
          1788.90460	         5.47203e+57
          1789.71090	         4.96015e+57
          1790.51720	         5.28592e+57
          1791.32350	         7.05807e+57
          1792.12980	         8.51056e+57
          1792.93610	         7.52361e+57
          1793.74240	         6.71999e+57
          1794.54870	         8.34117e+57
          1795.35500	         8.97788e+57
          1796.16130	         8.15226e+57
          1796.96760	         5.86338e+57
          1797.77390	         6.87586e+57
          1798.58020	         8.47852e+57
          1799.38650	         7.60984e+57
          1800.19280	         8.06676e+57
          1800.99910	         8.20766e+57
          1801.80540	         7.65718e+57
          1802.61170	         8.56266e+57
          1803.41800	         7.49672e+57
          1804.22430	         6.19049e+57
          1805.03060	         6.61726e+57
          1805.83690	         8.28780e+57
          1806.64320	         6.98096e+57
          1807.44950	         7.14223e+57
          1808.25580	         7.25692e+57
          1809.06210	         6.47800e+57
          1809.86840	         7.06061e+57
          1810.67470	         7.98497e+57
          1811.48100	         8.17347e+57
          1812.28730	         8.23467e+57
          1813.09360	         7.72636e+57
          1813.89990	         7.74425e+57
          1814.70620	         7.97286e+57
          1815.51250	         8.56275e+57
          1816.31880	         7.53905e+57
          1817.12510	         6.45287e+57
          1817.93140	         6.96102e+57
          1818.73770	         7.10207e+57
          1819.54400	         6.84588e+57
          1820.35030	         7.96845e+57
          1821.15660	         7.04060e+57
          1821.96290	         6.75254e+57
          1822.76920	         8.22388e+57
          1823.57550	         7.27124e+57
          1824.38180	         6.79418e+57
          1825.18810	         7.39824e+57
          1825.99440	         8.24687e+57
          1826.80070	         7.50940e+57
          1827.60700	         6.43682e+57
          1828.41330	         5.98294e+57
          1829.21960	         6.13741e+57
          1830.02590	         7.08372e+57
          1830.83220	         7.77085e+57
          1831.63850	         6.73331e+57
          1832.44480	         7.01364e+57
          1833.25110	         8.94340e+57
          1834.05740	         8.23670e+57
          1834.86370	         6.75778e+57
          1835.67000	         5.84138e+57
          1836.47630	         7.48926e+57
          1837.28260	         8.90805e+57
          1838.08890	         8.76330e+57
          1838.89520	         8.50523e+57
          1839.70150	         8.04612e+57
          1840.50780	         7.23077e+57
          1841.31410	         6.08290e+57
          1842.12040	         6.08090e+57
          1842.92670	         6.61398e+57
          1843.73300	         6.51161e+57
          1844.53930	         7.32443e+57
          1845.34560	         6.99824e+57
          1846.15190	         6.97912e+57
          1846.95820	         7.78595e+57
          1847.76450	         7.86542e+57
          1848.57080	         6.15079e+57
          1849.37710	         7.80596e+57
          1850.18340	         8.80860e+57
          1850.98970	         8.98277e+57
          1851.79600	         8.41085e+57
          1852.60230	         6.02681e+57
          1853.40860	         6.26679e+57
          1854.21490	         6.18423e+57
          1855.02120	         4.62028e+57
          1855.82750	         4.72340e+57
          1856.63380	         5.74486e+57
          1857.44010	         7.63144e+57
          1858.24640	         7.48698e+57
          1859.05270	         6.66901e+57
          1859.85900	         6.34923e+57
          1860.66530	         7.52634e+57
          1861.47160	         7.63837e+57
          1862.27790	         6.64586e+57
          1863.08420	         6.83896e+57
          1863.89050	         8.17886e+57
          1864.69680	         7.94456e+57
          1865.50310	         7.21864e+57
          1866.30940	         6.10280e+57
          1867.11570	         6.35584e+57
          1867.92200	         6.65942e+57
          1868.72830	         6.39973e+57
          1869.53460	         6.84236e+57
          1870.34090	         7.97311e+57
          1871.14720	         8.45170e+57
          1871.95350	         7.52616e+57
          1872.75980	         7.02410e+57
          1873.56610	         6.53625e+57
          1874.37240	         5.88096e+57
          1875.17870	         5.41124e+57
          1875.98500	         6.80527e+57
          1876.79130	         7.04136e+57
          1877.59760	         6.98316e+57
          1878.40390	         5.99311e+57
          1879.21020	         5.71802e+57
          1880.01650	         7.17239e+57
          1880.82280	         7.82388e+57
          1881.62910	         8.59518e+57
          1882.43540	         9.88600e+57
          1883.24170	         9.28403e+57
          1884.04800	         7.91551e+57
          1884.85430	         6.98243e+57
          1885.66060	         7.60763e+57
          1886.46690	         8.25617e+57
          1887.27320	         7.05182e+57
          1888.07950	         6.25741e+57
          1888.88580	         6.79918e+57
          1889.69210	         9.49717e+57
          1890.49840	         9.27872e+57
          1891.30470	         7.91368e+57
          1892.11100	         9.19941e+57
          1892.91730	         8.16552e+57
          1893.72360	         7.19655e+57
          1894.52990	         7.96858e+57
          1895.33620	         8.62582e+57
          1896.14250	         6.64640e+57
          1896.94880	         5.85123e+57
          1897.75510	         4.55955e+57
          1898.56140	         5.42600e+57
          1899.36770	         6.80168e+57
          1900.17400	         6.47704e+57
          1900.98030	         6.75774e+57
          1901.78660	         6.95052e+57
          1902.59290	         6.81653e+57
          1903.39920	         7.99804e+57
          1904.20550	         7.94543e+57
          1905.01180	         8.61113e+57
          1905.81810	         1.00210e+58
          1906.62440	         1.16248e+58
          1907.43070	         1.40398e+58
          1908.23700	         1.59475e+58
          1909.04330	         1.30372e+58
          1909.84960	         1.05505e+58
          1910.65590	         9.71951e+57
          1911.46220	         9.41153e+57
          1912.26850	         8.07327e+57
          1913.07480	         6.70999e+57
          1913.88110	         5.86069e+57
          1914.68740	         5.78181e+57
          1915.49370	         5.62053e+57
          1916.30000	         6.84731e+57
          1917.10630	         7.37341e+57
          1917.91260	         7.13675e+57
          1918.71890	         7.00719e+57
          1919.52520	         6.65253e+57
          1920.33150	         6.82735e+57
          1921.13780	         7.04103e+57
          1921.94410	         8.98797e+57
          1922.75040	         8.33703e+57
          1923.55670	         7.35981e+57
          1924.36300	         6.77172e+57
          1925.16930	         5.03471e+57
          1925.97560	         5.03062e+57
          1926.78190	         4.93352e+57
          1927.58820	         5.59212e+57
          1928.39450	         5.71326e+57
          1929.20080	         4.56085e+57
          1930.00710	         5.71178e+57
          1930.81340	         7.43598e+57
          1931.61970	         7.39412e+57
          1932.42600	         7.96807e+57
          1933.23230	         8.56468e+57
          1934.03860	         8.60902e+57
          1934.84490	         6.17210e+57
          1935.65120	         7.84177e+57
          1936.45750	         9.64100e+57
          1937.26380	         8.02658e+57
          1938.07010	         8.13955e+57
          1938.87640	         7.48135e+57
          1939.68270	         7.93910e+57
          1940.48900	         8.20434e+57
          1941.29530	         7.97482e+57
          1942.10160	         7.33386e+57
          1942.90790	         6.58503e+57
          1943.71420	         6.28398e+57
          1944.52050	         5.93349e+57
          1945.32680	         4.69227e+57
          1946.13310	         6.25415e+57
          1946.93940	         8.56485e+57
          1947.74570	         8.05369e+57
          1948.55200	         6.50321e+57
          1949.35830	         5.61841e+57
          1950.16460	         6.28301e+57
          1950.97090	         7.65975e+57
          1951.77720	         7.57570e+57
          1952.58350	         7.17042e+57
          1953.38980	         5.51680e+57
          1954.19610	         5.10585e+57
          1955.00240	         6.03665e+57
          1955.80870	         5.98472e+57
          1956.61500	         5.90357e+57
          1957.42130	         6.28966e+57
          1958.22760	         7.92887e+57
          1959.03390	         7.85978e+57
          1959.84020	         7.85961e+57
          1960.64650	         7.28296e+57
          1961.45280	         6.43740e+57
          1962.25910	         5.71258e+57
          1963.06540	         6.07158e+57
          1963.87170	         6.58361e+57
          1964.67800	         6.99090e+57
          1965.48430	         6.38417e+57
          1966.29060	         7.17367e+57
          1967.09690	         7.09490e+57
          1967.90320	         6.42733e+57
          1968.70950	         6.36350e+57
          1969.51580	         6.19556e+57
          1970.32210	         7.73997e+57
          1971.12840	         6.82884e+57
          1971.93470	         4.09825e+57
          1972.74100	         4.50640e+57
          1973.54730	         5.58649e+57
          1974.35360	         7.50084e+57
          1975.15990	         8.24385e+57
          1975.96620	         7.59682e+57
          1976.77250	         7.97440e+57
          1977.57880	         7.31311e+57
          1978.38510	         6.33700e+57
          1979.19140	         7.13726e+57
          1979.99770	         7.69680e+57
          1980.80400	         8.25336e+57
          1981.61030	         7.62218e+57
          1982.41660	         5.83011e+57
          1983.22290	         5.93461e+57
          1984.02920	         6.29131e+57
          1984.83550	         6.91433e+57
          1985.64180	         7.45771e+57
          1986.44810	         5.97843e+57
          1987.25440	         5.36790e+57
          1988.06070	         4.74475e+57
          1988.86700	         5.67324e+57
          1989.67330	         7.06445e+57
          1990.47960	         7.10474e+57
          1991.28590	         6.63438e+57
          1992.09220	         5.48728e+57
          1992.89850	         5.28650e+57
          1993.70480	         4.58752e+57
          1994.51110	         4.80490e+57
          1995.31740	         5.20627e+57
          1996.12370	         5.90119e+57
          1996.93000	         5.76787e+57
          1997.73630	         7.56389e+57
          1998.54260	         8.42748e+57
          1999.34890	         7.39878e+57
          2000.15520	         6.98906e+57
          2000.96150	         7.48238e+57
          2001.76780	         6.36973e+57
          2002.57410	         4.35870e+57
          2003.38040	         5.92688e+57
          2004.18670	         5.83156e+57
          2004.99300	         5.45523e+57
          2005.79930	         7.13702e+57
          2006.60560	         7.34072e+57
          2007.41190	         6.48772e+57
          2008.21820	         6.48406e+57
          2009.02450	         6.71033e+57
          2009.83080	         7.23394e+57
          2010.63710	         7.44183e+57
          2011.44340	         6.95551e+57
          2012.24970	         7.63972e+57
          2013.05600	         6.37623e+57
          2013.86230	         5.88872e+57
          2014.66860	         5.22122e+57
          2015.47490	         6.14956e+57
          2016.28120	         5.21830e+57
          2017.08750	         4.64080e+57
          2017.89380	         5.75677e+57
          2018.70010	         7.26401e+57
          2019.50640	         6.65490e+57
          2020.31270	         6.74601e+57
          2021.11900	         6.16858e+57
          2021.92530	         6.84134e+57
          2022.73160	         6.30939e+57
          2023.53790	         6.98796e+57
          2024.34420	         6.20154e+57
          2025.15050	         6.62517e+57
          2025.95680	         6.01640e+57
          2026.76310	         6.31076e+57
          2027.56940	         7.18389e+57
          2028.37570	         6.27727e+57
          2029.18200	         4.74528e+57
          2029.98830	         5.84533e+57
          2030.79460	         6.52001e+57
          2031.60090	         6.89631e+57
          2032.40720	         5.23926e+57
          2033.21350	         5.06803e+57
          2034.01980	         4.89278e+57
          2034.82610	         3.61141e+57
          2035.63240	         3.91426e+57
          2036.43870	         5.13441e+57
          2037.24500	         5.46745e+57
          2038.05130	         7.55355e+57
          2038.85760	         6.79141e+57
          2039.66390	         6.48360e+57
          2040.47020	         5.83376e+57
          2041.27650	         5.79108e+57
          2042.08280	         4.64275e+57
          2042.88910	         4.10441e+57
          2043.69540	         5.51610e+57
          2044.50170	         5.69964e+57
          2045.30800	         4.88559e+57
          2046.11430	         3.47005e+57
          2046.92060	         4.93901e+57
          2047.72690	         6.11032e+57
          2048.53320	         6.35671e+57
          2049.33950	         4.94378e+57
          2050.14580	         6.49548e+57
          2050.95210	         6.41122e+57
          2051.75840	         6.30379e+57
          2052.56470	         6.83863e+57
          2053.37100	         4.44462e+57
          2054.17730	         4.66765e+57
          2054.98360	         5.98265e+57
          2055.78990	         3.80832e+57
          2056.59620	         3.26770e+57
          2057.40250	         5.94497e+57
          2058.20880	         6.94730e+57
          2059.01510	         6.73765e+57
          2059.82140	         6.85235e+57
          2060.62770	         9.52517e+57
          2061.43400	         1.43332e+58
          2062.24030	         1.25723e+58
          2063.04660	         6.80252e+57
          2063.85290	         2.27161e+57
          2064.65920	        -3.30334e+57
          2065.46550	        -8.01580e+57
          2066.27180	        -7.92446e+57
          2067.07810	         2.95113e+57
          2067.88440	         5.84904e+57
          2068.69070	         5.81661e+57
          2069.49700	         6.32904e+57
          2070.30330	         5.44218e+57
          2071.10960	         4.27962e+57
          2071.91590	         5.56883e+57
          2072.72220	         4.18838e+57
          2073.52850	         5.10555e+57
          2074.33480	         5.60449e+57
          2075.14110	         5.99221e+57
          2075.94740	         5.36309e+57
          2076.75370	         5.49024e+57
          2077.56000	         4.67423e+57
          2078.36630	         5.21882e+57
          2079.17260	         4.99876e+57
          2079.97890	         4.76190e+57
          2080.78520	         4.43288e+57
          2081.59150	         4.66824e+57
          2082.39780	         4.00243e+57
          2083.20410	         3.60238e+57
          2084.01040	         1.50829e+57
          2084.81670	         1.86683e+57
          2085.62300	         3.77169e+57
          2086.42930	         2.56154e+57
          2087.23560	         2.90560e+57
          2088.04190	         3.67565e+57
          2088.84820	         1.49227e+57
          2089.65450	         2.94022e+57
          2090.46080	         2.61739e+57
          2091.26710	         3.95075e+57
          2092.07340	         3.80342e+57
          2092.87970	         4.94867e+57
          2093.68600	         6.56214e+56
          2094.49230	         5.89597e+55
          2095.29860	         3.07222e+57
          2096.10490	         2.69858e+57
          2096.91120	         9.79028e+56
          2097.71750	         2.62285e+57
          2098.52380	         1.38186e+57
          2099.33010	         8.55297e+56
          2100.13640	         5.20576e+56
          2100.94270	         3.57340e+57
          2101.74900	         4.43192e+57
          2102.55530	         2.67121e+57
          2103.36160	         1.92135e+57
          2104.16790	         3.95108e+57
          2104.97420	         4.18599e+57
          2105.78050	         2.29256e+57
          2106.58680	         1.82216e+57
          2107.39310	        -8.09901e+56
          2108.19940	         2.31446e+57
          2109.00570	         5.87193e+56
          2109.81200	        -2.45987e+56
          2110.61830	         2.18383e+57
          2111.42460	         3.11296e+57
          2112.23090	        -2.57026e+56
          2113.03720	        -1.00068e+57
          2113.84350	         2.04924e+56
          2114.64980	         5.50631e+57
          2115.45610	         5.15889e+56
          2116.26240	         1.33444e+57
          2117.06870	        -1.47452e+57
          2117.87500	        -1.24202e+57
          2118.68130	        -1.19561e+57
          2119.48760	         2.44769e+57
          2120.29390	         1.26863e+56
          2121.10020	        -5.53519e+57
          2121.90650	        -8.42551e+56
          2122.71280	         1.10407e+57
          2123.51910	         6.42194e+57
          2124.32540	         3.56953e+57
          2125.13170	        -3.46926e+57
          2125.93800	        -1.47816e+57
          2126.74430	         2.45641e+57
          2127.55060	        -6.03866e+57
          2128.35690	        -4.14230e+57
          2129.16320	        -1.03658e+57
          2129.96950	         1.08860e+57
          2130.77580	        -2.79245e+57
          2131.58210	        -3.94842e+57
          2132.38840	        -3.86442e+57
          2133.19470	        -2.44268e+57
          2134.00100	        -1.06659e+57
          2134.80730	        -5.76972e+57
          2135.61360	         5.28268e+57
          2136.41990	         7.11699e+57
          2137.22620	         5.71831e+57
          2138.03250	         1.05923e+58
          2138.83880	        -2.45367e+57
          2139.64510	        -3.36200e+57
          2140.45140	        -4.14752e+57
          2141.25770	        -1.22418e+58
          2142.06400	         2.22024e+56
          2142.87030	         3.69228e+57
          2143.67660	         5.76566e+57
          2144.48290	         1.27630e+58
          2145.28920	         9.62312e+57
          2146.09550	        -1.42248e+58
          2146.90180	        -1.09896e+58
          2147.70810	        -8.75501e+57
          2148.51440	        -6.51589e+57
          2149.32070	        -8.15266e+57
          2150.12700	        -7.43868e+57
          2150.93330	        -2.43822e+57
          2151.73960	        -5.15007e+57
          2152.54590	         4.12525e+56
          2153.35220	        -6.73071e+57
          2154.15850	        -6.96797e+57
          2154.96480	        -5.03086e+57
          2155.77110	         4.31418e+57
          2156.57740	         1.30470e+57
          2157.38370	        -4.88616e+56
          2158.19000	         7.88961e+55
          2158.99630	        -4.68431e+57
          2159.80260	        -1.21729e+58
          2160.60890	        -1.11313e+58
          2161.41520	         5.76964e+57
          2162.22150	        -1.10175e+58
          2163.02780	        -2.31057e+57
          2163.83410	         1.38144e+57
          2164.64040	        -8.66451e+57
          2165.44670	        -9.74056e+57
          2166.25300	        -1.01045e+58
          2167.05930	        -7.99638e+57
          2167.86560	        -1.15004e+58
          2168.67190	        -1.36487e+58
          2169.47820	        -2.91410e+57
          2170.28450	        -1.18183e+58
          2171.09080	        -3.24037e+57
          2171.89710	         1.99813e+57
          2172.70340	         1.68413e+57
          2173.50970	        -3.84573e+57
          2174.31600	        -3.75615e+57
          2175.12230	        -9.42023e+57
          2175.92860	        -2.40373e+57
          2176.73490	        -3.03170e+57
          2177.54120	        -9.26284e+57
          2178.34750	        -4.70590e+57
          2179.15380	                 nan
          2179.96010	                 nan
          2180.76640	                 nan
          2181.57270	                 nan
          2182.37900	                 nan
          2183.18530	                 nan
          2183.99160	                 nan
          2184.79790	                 nan
          2185.60420	                 nan
          2186.41050	                 nan
          2187.21680	                 nan
          2188.02310	                 nan
          2188.82940	                 nan
          2189.63570	                 nan
          2190.44200	                 nan
          2191.24830	                 nan
          2192.05460	                 nan
          2192.86090	                 nan
          2193.66720	                 nan
          2194.47350	                 nan
          2195.27980	                 nan
          2196.08610	                 nan
          2196.89240	                 nan
          2197.69870	                 nan
          2198.50500	                 nan
          2199.31130	                 nan
          2200.11760	                 nan
          2200.92390	                 nan
          2201.73020	                 nan
          2202.53650	                 nan
          2203.34280	                 nan
          2204.14910	                 nan
          2204.95540	                 nan
          2205.76170	                 nan
          2206.56800	                 nan
          2207.37430	                 nan
          2208.18060	                 nan
          2208.98690	                 nan
          2209.79320	                 nan
          2210.59950	                 nan
          2211.40580	                 nan
          2212.21210	                 nan
          2213.01840	                 nan
          2213.82470	                 nan
          2214.63100	                 nan
          2215.43730	         0.00000e+00
