#sample_191_stacked_spectrum_rest_UV-bands_median_H-alpha_noDC.txt
#median Lum: 1.68987e+42
#Rest-frame wavelength (A) | Luminosity (erg/s/A)
#
          1110.00000	         0.00000e+00
          1110.80630	         1.18391e+59
          1111.61260	         7.62482e+58
          1112.41890	         1.44780e+59
          1113.22520	        -1.42914e+59
          1114.03150	        -1.28004e+59
          1114.83780	         1.60721e+59
          1115.64410	         1.04715e+59
          1116.45040	        -1.03681e+59
          1117.25670	         3.98868e+58
          1118.06300	         2.61620e+58
          1118.86930	         2.40359e+58
          1119.67560	         5.23121e+56
          1120.48190	        -5.44772e+58
          1121.28820	        -1.29607e+59
          1122.09450	        -1.75778e+58
          1122.90080	        -2.07164e+58
          1123.70710	         2.76705e+58
          1124.51340	         3.46693e+58
          1125.31970	        -2.79942e+58
          1126.12600	         7.07935e+57
          1126.93230	        -5.43125e+58
          1127.73860	        -8.95046e+58
          1128.54490	        -2.49304e+58
          1129.35120	         1.52321e+58
          1130.15750	        -3.05852e+57
          1130.96380	        -3.38975e+58
          1131.77010	         4.95584e+58
          1132.57640	         5.27177e+58
          1133.38270	         2.87710e+58
          1134.18900	        -8.78099e+57
          1134.99530	         1.23850e+58
          1135.80160	         2.28917e+58
          1136.60790	         2.64404e+58
          1137.41420	         1.23841e+58
          1138.22050	         4.42289e+58
          1139.02680	         5.11787e+58
          1139.83310	         4.26389e+58
          1140.63940	         1.79952e+58
          1141.44570	        -2.01250e+58
          1142.25200	        -8.70728e+57
          1143.05830	         2.45760e+58
          1143.86460	         4.03880e+58
          1144.67090	         2.39824e+58
          1145.47720	         1.09178e+58
          1146.28350	        -2.57653e+57
          1147.08980	         1.16694e+58
          1147.89610	         6.46262e+57
          1148.70240	         1.93220e+58
          1149.50870	         1.92428e+58
          1150.31500	         1.07974e+58
          1151.12130	         1.62771e+58
          1151.92760	         1.82358e+58
          1152.73390	         1.58339e+58
          1153.54020	         9.35817e+57
          1154.34650	         2.60266e+58
          1155.15280	         2.41749e+58
          1155.95910	         1.79435e+58
          1156.76540	         1.23407e+58
          1157.57170	         7.31146e+56
          1158.37800	         5.60203e+57
          1159.18430	        -2.61567e+57
          1159.99060	         7.06221e+57
          1160.79690	         8.15071e+57
          1161.60320	         1.34030e+58
          1162.40950	         1.28601e+58
          1163.21580	         1.07565e+58
          1164.02210	         1.52827e+58
          1164.82840	         9.50068e+57
          1165.63470	         1.91790e+58
          1166.44100	         2.53046e+58
          1167.24730	         1.83557e+58
          1168.05360	         9.61720e+57
          1168.85990	         3.32939e+57
          1169.66620	         4.82746e+57
          1170.47250	         1.16575e+58
          1171.27880	        -1.63838e+57
          1172.08510	         2.21893e+56
          1172.89140	         1.28715e+58
          1173.69770	         3.18268e+57
          1174.50400	         8.88434e+57
          1175.31030	         1.29513e+58
          1176.11660	         8.78518e+57
          1176.92290	         1.44309e+58
          1177.72920	         1.36990e+58
          1178.53550	         5.45476e+57
          1179.34180	         2.81794e+57
          1180.14810	         9.25511e+57
          1180.95440	         1.00257e+58
          1181.76070	         6.69868e+57
          1182.56700	         9.02597e+57
          1183.37330	         7.28922e+57
          1184.17960	         1.03508e+58
          1184.98590	         1.24728e+58
          1185.79220	         7.65466e+57
          1186.59850	         8.33832e+57
          1187.40480	         1.15071e+58
          1188.21110	         1.37368e+58
          1189.01740	         6.44551e+57
          1189.82370	         7.23171e+57
          1190.63000	         1.02037e+58
          1191.43630	         9.79506e+57
          1192.24260	         7.95695e+57
          1193.04890	         1.38902e+58
          1193.85520	         1.32697e+58
          1194.66150	         5.69778e+57
          1195.46780	         1.41384e+58
          1196.27410	         1.71298e+58
          1197.08040	         1.36262e+58
          1197.88670	         1.61467e+58
          1198.69300	         1.39515e+58
          1199.49930	         1.33779e+58
          1200.30560	         9.45621e+57
          1201.11190	         1.12119e+58
          1201.91820	         1.04821e+58
          1202.72450	         7.61682e+57
          1203.53080	         1.69101e+58
          1204.33710	         1.19690e+58
          1205.14340	         8.68060e+57
          1205.94970	         5.11371e+57
          1206.75600	         8.34741e+57
          1207.56230	         5.31699e+57
          1208.36860	         5.70191e+57
          1209.17490	         3.56037e+57
          1209.98120	         6.49498e+57
          1210.78750	         4.19794e+57
          1211.59380	         1.13839e+58
          1212.40010	         2.08085e+58
          1213.20640	         1.97621e+58
          1214.01270	         1.78699e+58
          1214.81900	         2.25624e+58
          1215.62530	         4.56164e+58
          1216.43160	         8.96853e+58
          1217.23790	         1.47504e+59
          1218.04420	         1.17448e+59
          1218.85050	         8.57515e+58
          1219.65680	         5.31038e+58
          1220.46310	         3.08974e+58
          1221.26940	         2.46233e+58
          1222.07570	         1.74069e+58
          1222.88200	         1.21167e+58
          1223.68830	         1.05863e+58
          1224.49460	         6.50451e+57
          1225.30090	         3.75264e+57
          1226.10720	         6.59591e+57
          1226.91350	         6.17317e+57
          1227.71980	         7.40544e+57
          1228.52610	         1.29588e+58
          1229.33240	         8.84377e+57
          1230.13870	         8.14261e+57
          1230.94500	         9.39073e+57
          1231.75130	         4.94442e+57
          1232.55760	         6.63126e+57
          1233.36390	         9.08291e+57
          1234.17020	         8.00079e+57
          1234.97650	         6.18859e+57
          1235.78280	         6.70614e+57
          1236.58910	         8.51756e+57
          1237.39540	         1.10439e+58
          1238.20170	         1.05384e+58
          1239.00800	         1.28191e+58
          1239.81430	         1.72989e+58
          1240.62060	         1.39861e+58
          1241.42690	         9.65890e+57
          1242.23320	         1.16791e+58
          1243.03950	         9.32394e+57
          1243.84580	         9.26485e+57
          1244.65210	         1.05564e+58
          1245.45840	         8.91070e+57
          1246.26470	         9.01940e+57
          1247.07100	         5.50288e+57
          1247.87730	         5.79088e+57
          1248.68360	         6.54377e+57
          1249.48990	         7.93642e+57
          1250.29620	         8.20537e+57
          1251.10250	         7.65299e+57
          1251.90880	         3.97430e+57
          1252.71510	         4.07500e+57
          1253.52140	         7.38712e+57
          1254.32770	         1.12869e+58
          1255.13400	         1.26591e+58
          1255.94030	         1.04602e+58
          1256.74660	         7.93010e+57
          1257.55290	         8.48322e+57
          1258.35920	         8.53475e+57
          1259.16550	         4.22303e+57
          1259.97180	         3.60635e+57
          1260.77810	         7.83607e+57
          1261.58440	         9.99756e+57
          1262.39070	         7.24715e+57
          1263.19700	         7.32549e+57
          1264.00330	         9.01795e+57
          1264.80960	         1.08397e+58
          1265.61590	         1.30881e+58
          1266.42220	         1.19233e+58
          1267.22850	         9.86341e+57
          1268.03480	         1.35615e+58
          1268.84110	         1.43370e+58
          1269.64740	         1.49005e+58
          1270.45370	         1.42745e+58
          1271.26000	         1.16457e+58
          1272.06630	         1.17440e+58
          1272.87260	         1.40157e+58
          1273.67890	         1.37417e+58
          1274.48520	         1.16522e+58
          1275.29150	         1.32923e+58
          1276.09780	         1.29610e+58
          1276.90410	         1.36247e+58
          1277.71040	         1.39274e+58
          1278.51670	         1.20679e+58
          1279.32300	         1.29320e+58
          1280.12930	         1.26193e+58
          1280.93560	         1.16056e+58
          1281.74190	         1.27128e+58
          1282.54820	         1.37521e+58
          1283.35450	         1.14471e+58
          1284.16080	         1.04849e+58
          1284.96710	         1.27266e+58
          1285.77340	         1.26121e+58
          1286.57970	         1.20581e+58
          1287.38600	         1.43783e+58
          1288.19230	         1.59183e+58
          1288.99860	         1.40289e+58
          1289.80490	         1.09650e+58
          1290.61120	         1.23127e+58
          1291.41750	         1.33100e+58
          1292.22380	         1.19446e+58
          1293.03010	         9.92888e+57
          1293.83640	         1.04305e+58
          1294.64270	         1.04188e+58
          1295.44900	         7.30247e+57
          1296.25530	         8.13573e+57
          1297.06160	         9.57448e+57
          1297.86790	         1.08941e+58
          1298.67420	         1.01602e+58
          1299.48050	         8.92937e+57
          1300.28680	         8.89058e+57
          1301.09310	         6.32822e+57
          1301.89940	         3.82350e+57
          1302.70570	         6.75474e+57
          1303.51200	         8.24892e+57
          1304.31830	         1.00012e+58
          1305.12460	         1.11336e+58
          1305.93090	         1.11727e+58
          1306.73720	         1.09378e+58
          1307.54350	         1.23700e+58
          1308.34980	         1.39372e+58
          1309.15610	         1.39673e+58
          1309.96240	         1.30950e+58
          1310.76870	         1.11125e+58
          1311.57500	         1.24092e+58
          1312.38130	         1.28992e+58
          1313.18760	         1.30669e+58
          1313.99390	         1.52392e+58
          1314.80020	         1.43589e+58
          1315.60650	         1.38248e+58
          1316.41280	         1.38866e+58
          1317.21910	         1.12799e+58
          1318.02540	         1.17402e+58
          1318.83170	         1.18914e+58
          1319.63800	         1.10243e+58
          1320.44430	         1.01089e+58
          1321.25060	         1.13618e+58
          1322.05690	         1.11894e+58
          1322.86320	         1.09393e+58
          1323.66950	         1.01172e+58
          1324.47580	         8.08153e+57
          1325.28210	         1.04087e+58
          1326.08840	         1.24896e+58
          1326.89470	         1.17273e+58
          1327.70100	         1.12348e+58
          1328.50730	         8.54695e+57
          1329.31360	         9.44635e+57
          1330.11990	         1.03211e+58
          1330.92620	         8.76820e+57
          1331.73250	         1.00174e+58
          1332.53880	         1.08479e+58
          1333.34510	         1.01597e+58
          1334.15140	         9.60521e+57
          1334.95770	         1.00529e+58
          1335.76400	         1.07532e+58
          1336.57030	         1.02386e+58
          1337.37660	         1.08369e+58
          1338.18290	         1.07332e+58
          1338.98920	         1.23215e+58
          1339.79550	         1.33482e+58
          1340.60180	         1.26848e+58
          1341.40810	         1.48638e+58
          1342.21440	         1.39721e+58
          1343.02070	         1.39849e+58
          1343.82700	         1.54946e+58
          1344.63330	         1.35868e+58
          1345.43960	         1.30343e+58
          1346.24590	         1.03531e+58
          1347.05220	         1.22408e+58
          1347.85850	         1.02027e+58
          1348.66480	         9.81375e+57
          1349.47110	         1.28989e+58
          1350.27740	         1.43421e+58
          1351.08370	         1.20923e+58
          1351.89000	         1.10926e+58
          1352.69630	         1.17435e+58
          1353.50260	         1.21883e+58
          1354.30890	         1.23062e+58
          1355.11520	         1.11520e+58
          1355.92150	         9.73074e+57
          1356.72780	         1.00863e+58
          1357.53410	         1.02990e+58
          1358.34040	         1.10859e+58
          1359.14670	         1.06713e+58
          1359.95300	         1.14142e+58
          1360.75930	         1.29339e+58
          1361.56560	         1.22694e+58
          1362.37190	         1.12400e+58
          1363.17820	         1.04983e+58
          1363.98450	         1.13922e+58
          1364.79080	         1.28508e+58
          1365.59710	         1.33209e+58
          1366.40340	         1.20688e+58
          1367.20970	         1.05896e+58
          1368.01600	         9.75642e+57
          1368.82230	         9.28311e+57
          1369.62860	         8.31172e+57
          1370.43490	         7.01392e+57
          1371.24120	         8.42866e+57
          1372.04750	         8.24853e+57
          1372.85380	         1.04956e+58
          1373.66010	         1.06933e+58
          1374.46640	         9.50643e+57
          1375.27270	         1.00188e+58
          1376.07900	         9.45748e+57
          1376.88530	         8.09912e+57
          1377.69160	         6.52299e+57
          1378.49790	         6.59629e+57
          1379.30420	         6.99708e+57
          1380.11050	         8.12365e+57
          1380.91680	         9.02117e+57
          1381.72310	         7.89977e+57
          1382.52940	         9.09029e+57
          1383.33570	         8.45727e+57
          1384.14200	         9.09886e+57
          1384.94830	         1.17062e+58
          1385.75460	         1.28710e+58
          1386.56090	         1.25173e+58
          1387.36720	         9.80126e+57
          1388.17350	         1.16952e+58
          1388.97980	         1.23451e+58
          1389.78610	         9.66074e+57
          1390.59240	         6.71689e+57
          1391.39870	         6.21596e+57
          1392.20500	         7.89911e+57
          1393.01130	         7.61789e+57
          1393.81760	         8.42705e+57
          1394.62390	         7.85425e+57
          1395.43020	         6.12991e+57
          1396.23650	         6.44210e+57
          1397.04280	         7.07357e+57
          1397.84910	         8.78766e+57
          1398.65540	         9.02889e+57
          1399.46170	         1.10584e+58
          1400.26800	         9.79198e+57
          1401.07430	         8.39429e+57
          1401.88060	         7.56789e+57
          1402.68690	         8.66612e+57
          1403.49320	         8.97522e+57
          1404.29950	         1.00471e+58
          1405.10580	         1.10132e+58
          1405.91210	         1.04999e+58
          1406.71840	         1.04053e+58
          1407.52470	         1.10095e+58
          1408.33100	         1.03834e+58
          1409.13730	         1.10026e+58
          1409.94360	         1.11195e+58
          1410.74990	         1.07947e+58
          1411.55620	         1.00409e+58
          1412.36250	         9.40562e+57
          1413.16880	         8.72621e+57
          1413.97510	         8.15072e+57
          1414.78140	         8.38729e+57
          1415.58770	         9.87186e+57
          1416.39400	         1.02579e+58
          1417.20030	         1.02274e+58
          1418.00660	         9.01217e+57
          1418.81290	         9.75752e+57
          1419.61920	         1.17465e+58
          1420.42550	         1.36861e+58
          1421.23180	         1.49375e+58
          1422.03810	         1.25265e+58
          1422.84440	         1.19561e+58
          1423.65070	         1.34101e+58
          1424.45700	         1.16661e+58
          1425.26330	         8.94563e+57
          1426.06960	         8.84796e+57
          1426.87590	         1.04019e+58
          1427.68220	         1.08134e+58
          1428.48850	         1.18648e+58
          1429.29480	         1.14379e+58
          1430.10110	         1.07373e+58
          1430.90740	         9.79068e+57
          1431.71370	         9.82238e+57
          1432.52000	         9.40067e+57
          1433.32630	         8.74455e+57
          1434.13260	         8.28282e+57
          1434.93890	         8.57249e+57
          1435.74520	         8.54303e+57
          1436.55150	         9.54673e+57
          1437.35780	         9.74721e+57
          1438.16410	         1.01723e+58
          1438.97040	         1.05147e+58
          1439.77670	         9.43759e+57
          1440.58300	         9.89136e+57
          1441.38930	         9.98175e+57
          1442.19560	         9.38437e+57
          1443.00190	         9.05161e+57
          1443.80820	         1.05940e+58
          1444.61450	         9.59218e+57
          1445.42080	         7.38998e+57
          1446.22710	         8.69449e+57
          1447.03340	         9.61346e+57
          1447.83970	         1.11001e+58
          1448.64600	         1.16391e+58
          1449.45230	         1.05594e+58
          1450.25860	         1.01151e+58
          1451.06490	         8.65530e+57
          1451.87120	         7.56430e+57
          1452.67750	         7.18165e+57
          1453.48380	         8.59131e+57
          1454.29010	         8.51468e+57
          1455.09640	         7.52235e+57
          1455.90270	         7.96941e+57
          1456.70900	         9.19271e+57
          1457.51530	         1.01560e+58
          1458.32160	         1.20686e+58
          1459.12790	         1.26883e+58
          1459.93420	         1.10972e+58
          1460.74050	         8.30934e+57
          1461.54680	         7.37296e+57
          1462.35310	         8.00677e+57
          1463.15940	         1.01091e+58
          1463.96570	         1.18852e+58
          1464.77200	         1.23296e+58
          1465.57830	         1.07427e+58
          1466.38460	         9.32724e+57
          1467.19090	         8.20198e+57
          1467.99720	         8.90254e+57
          1468.80350	         8.60085e+57
          1469.60980	         7.88089e+57
          1470.41610	         9.40309e+57
          1471.22240	         9.66642e+57
          1472.02870	         9.71851e+57
          1472.83500	         9.78178e+57
          1473.64130	         9.10443e+57
          1474.44760	         9.51526e+57
          1475.25390	         9.80372e+57
          1476.06020	         9.32236e+57
          1476.86650	         8.77072e+57
          1477.67280	         6.96418e+57
          1478.47910	         6.74611e+57
          1479.28540	         7.62606e+57
          1480.09170	         8.79741e+57
          1480.89800	         8.64487e+57
          1481.70430	         9.39242e+57
          1482.51060	         8.84824e+57
          1483.31690	         7.87030e+57
          1484.12320	         7.44951e+57
          1484.92950	         7.59828e+57
          1485.73580	         8.54298e+57
          1486.54210	         8.79438e+57
          1487.34840	         7.96125e+57
          1488.15470	         7.56786e+57
          1488.96100	         8.86338e+57
          1489.76730	         9.80810e+57
          1490.57360	         8.36878e+57
          1491.37990	         7.32583e+57
          1492.18620	         7.95350e+57
          1492.99250	         8.01821e+57
          1493.79880	         7.88055e+57
          1494.60510	         9.19642e+57
          1495.41140	         9.18258e+57
          1496.21770	         9.30578e+57
          1497.02400	         1.04845e+58
          1497.83030	         8.55193e+57
          1498.63660	         6.30441e+57
          1499.44290	         5.09647e+57
          1500.24920	         6.25919e+57
          1501.05550	         7.17714e+57
          1501.86180	         7.24060e+57
          1502.66810	         9.26153e+57
          1503.47440	         9.75128e+57
          1504.28070	         9.37841e+57
          1505.08700	         9.93757e+57
          1505.89330	         7.77682e+57
          1506.69960	         7.01394e+57
          1507.50590	         8.98119e+57
          1508.31220	         8.76911e+57
          1509.11850	         8.04262e+57
          1509.92480	         9.82883e+57
          1510.73110	         9.86532e+57
          1511.53740	         8.09441e+57
          1512.34370	         7.74691e+57
          1513.15000	         9.05519e+57
          1513.95630	         1.07447e+58
          1514.76260	         9.72660e+57
          1515.56890	         7.33881e+57
          1516.37520	         7.71209e+57
          1517.18150	         7.64253e+57
          1517.98780	         6.90234e+57
          1518.79410	         6.61612e+57
          1519.60040	         6.95854e+57
          1520.40670	         9.32917e+57
          1521.21300	         9.53289e+57
          1522.01930	         8.37710e+57
          1522.82560	         9.38108e+57
          1523.63190	         1.02168e+58
          1524.43820	         8.60245e+57
          1525.24450	         6.95452e+57
          1526.05080	         6.22219e+57
          1526.85710	         6.08153e+57
          1527.66340	         7.10782e+57
          1528.46970	         7.92577e+57
          1529.27600	         7.63509e+57
          1530.08230	         7.48966e+57
          1530.88860	         7.35391e+57
          1531.69490	         8.77083e+57
          1532.50120	         9.52739e+57
          1533.30750	         1.00121e+58
          1534.11380	         9.57905e+57
          1534.92010	         8.68088e+57
          1535.72640	         8.78018e+57
          1536.53270	         9.23773e+57
          1537.33900	         9.05971e+57
          1538.14530	         8.68707e+57
          1538.95160	         8.78185e+57
          1539.75790	         9.11355e+57
          1540.56420	         9.22009e+57
          1541.37050	         8.18678e+57
          1542.17680	         7.50417e+57
          1542.98310	         6.67043e+57
          1543.78940	         7.01626e+57
          1544.59570	         7.45323e+57
          1545.40200	         9.06752e+57
          1546.20830	         9.51984e+57
          1547.01460	         9.78248e+57
          1547.82090	         1.16187e+58
          1548.62720	         1.19440e+58
          1549.43350	         1.19800e+58
          1550.23980	         1.05167e+58
          1551.04610	         1.25532e+58
          1551.85240	         1.20830e+58
          1552.65870	         1.15421e+58
          1553.46500	         9.86675e+57
          1554.27130	         9.89811e+57
          1555.07760	         9.97011e+57
          1555.88390	         9.44091e+57
          1556.69020	         9.57889e+57
          1557.49650	         8.80571e+57
          1558.30280	         8.79302e+57
          1559.10910	         9.15806e+57
          1559.91540	         9.45297e+57
          1560.72170	         9.30747e+57
          1561.52800	         9.00373e+57
          1562.33430	         8.69933e+57
          1563.14060	         7.88058e+57
          1563.94690	         7.92802e+57
          1564.75320	         8.04222e+57
          1565.55950	         6.40133e+57
          1566.36580	         7.10074e+57
          1567.17210	         9.16136e+57
          1567.97840	         9.07660e+57
          1568.78470	         8.69002e+57
          1569.59100	         9.66404e+57
          1570.39730	         8.72979e+57
          1571.20360	         8.26141e+57
          1572.00990	         8.59942e+57
          1572.81620	         8.65353e+57
          1573.62250	         8.49070e+57
          1574.42880	         8.62186e+57
          1575.23510	         8.96514e+57
          1576.04140	         9.21464e+57
          1576.84770	         8.59932e+57
          1577.65400	         8.74543e+57
          1578.46030	         1.00900e+58
          1579.26660	         1.06565e+58
          1580.07290	         9.24574e+57
          1580.87920	         8.30514e+57
          1581.68550	         8.96336e+57
          1582.49180	         8.88485e+57
          1583.29810	         8.04214e+57
          1584.10440	         8.17884e+57
          1584.91070	         8.98090e+57
          1585.71700	         9.99097e+57
          1586.52330	         9.41807e+57
          1587.32960	         8.26064e+57
          1588.13590	         8.58859e+57
          1588.94220	         8.89049e+57
          1589.74850	         8.95413e+57
          1590.55480	         9.44449e+57
          1591.36110	         9.11617e+57
          1592.16740	         8.77073e+57
          1592.97370	         8.49381e+57
          1593.78000	         8.78536e+57
          1594.58630	         9.54337e+57
          1595.39260	         8.54506e+57
          1596.19890	         8.21664e+57
          1597.00520	         9.05387e+57
          1597.81150	         8.17777e+57
          1598.61780	         6.98629e+57
          1599.42410	         7.04441e+57
          1600.23040	         7.18261e+57
          1601.03670	         7.38792e+57
          1601.84300	         7.24299e+57
          1602.64930	         7.83307e+57
          1603.45560	         8.39429e+57
          1604.26190	         7.56115e+57
          1605.06820	         7.44193e+57
          1605.87450	         6.75984e+57
          1606.68080	         7.24506e+57
          1607.48710	         6.00533e+57
          1608.29340	         4.76866e+57
          1609.09970	         6.93927e+57
          1609.90600	         7.26017e+57
          1610.71230	         6.58258e+57
          1611.51860	         6.90280e+57
          1612.32490	         6.85234e+57
          1613.13120	         8.73880e+57
          1613.93750	         8.84856e+57
          1614.74380	         8.38618e+57
          1615.55010	         8.68052e+57
          1616.35640	         9.87806e+57
          1617.16270	         1.10241e+58
          1617.96900	         9.98946e+57
          1618.77530	         8.88720e+57
          1619.58160	         9.11544e+57
          1620.38790	         8.70927e+57
          1621.19420	         9.18026e+57
          1622.00050	         8.60627e+57
          1622.80680	         9.33127e+57
          1623.61310	         9.37962e+57
          1624.41940	         8.28673e+57
          1625.22570	         9.18118e+57
          1626.03200	         8.71746e+57
          1626.83830	         7.61924e+57
          1627.64460	         8.07090e+57
          1628.45090	         7.26327e+57
          1629.25720	         9.51284e+57
          1630.06350	         9.13483e+57
          1630.86980	         6.73058e+57
          1631.67610	         7.98540e+57
          1632.48240	         8.77864e+57
          1633.28870	         7.92777e+57
          1634.09500	         8.83774e+57
          1634.90130	         1.08723e+58
          1635.70760	         8.09683e+57
          1636.51390	         6.77695e+57
          1637.32020	         7.28550e+57
          1638.12650	         8.59341e+57
          1638.93280	         8.37319e+57
          1639.73910	         1.04908e+58
          1640.54540	         1.04317e+58
          1641.35170	         8.41285e+57
          1642.15800	         8.69152e+57
          1642.96430	         7.70796e+57
          1643.77060	         8.03156e+57
          1644.57690	         8.50973e+57
          1645.38320	         7.89360e+57
          1646.18950	         7.18676e+57
          1646.99580	         8.62656e+57
          1647.80210	         8.16877e+57
          1648.60840	         7.36395e+57
          1649.41470	         7.79483e+57
          1650.22100	         6.39769e+57
          1651.02730	         7.26637e+57
          1651.83360	         7.68152e+57
          1652.63990	         8.51332e+57
          1653.44620	         9.12989e+57
          1654.25250	         8.02242e+57
          1655.05880	         7.51806e+57
          1655.86510	         9.18706e+57
          1656.67140	         9.38334e+57
          1657.47770	         8.01929e+57
          1658.28400	         8.26121e+57
          1659.09030	         9.11578e+57
          1659.89660	         9.78976e+57
          1660.70290	         9.21197e+57
          1661.50920	         9.47546e+57
          1662.31550	         8.32238e+57
          1663.12180	         7.80753e+57
          1663.92810	         8.71224e+57
          1664.73440	         1.07002e+58
          1665.54070	         1.20904e+58
          1666.34700	         1.21996e+58
          1667.15330	         1.22903e+58
          1667.95960	         1.03901e+58
          1668.76590	         7.60542e+57
          1669.57220	         6.55003e+57
          1670.37850	         7.45460e+57
          1671.18480	         8.67190e+57
          1671.99110	         7.95216e+57
          1672.79740	         7.60676e+57
          1673.60370	         7.33769e+57
          1674.41000	         6.93779e+57
          1675.21630	         6.06580e+57
          1676.02260	         6.00275e+57
          1676.82890	         6.71223e+57
          1677.63520	         6.97334e+57
          1678.44150	         7.51086e+57
          1679.24780	         8.92799e+57
          1680.05410	         8.08610e+57
          1680.86040	         5.66347e+57
          1681.66670	         6.88981e+57
          1682.47300	         7.69575e+57
          1683.27930	         7.77514e+57
          1684.08560	         9.18557e+57
          1684.89190	         8.54153e+57
          1685.69820	         5.87820e+57
          1686.50450	         5.61139e+57
          1687.31080	         6.77285e+57
          1688.11710	         7.86649e+57
          1688.92340	         6.58384e+57
          1689.72970	         6.43117e+57
          1690.53600	         7.16315e+57
          1691.34230	         7.54418e+57
          1692.14860	         7.81836e+57
          1692.95490	         6.87441e+57
          1693.76120	         6.36385e+57
          1694.56750	         7.23293e+57
          1695.37380	         8.74103e+57
          1696.18010	         8.12473e+57
          1696.98640	         6.69312e+57
          1697.79270	         7.89705e+57
          1698.59900	         8.88555e+57
          1699.40530	         7.97478e+57
          1700.21160	         7.84016e+57
          1701.01790	         9.91237e+57
          1701.82420	         9.09381e+57
          1702.63050	         8.09861e+57
          1703.43680	         7.66367e+57
          1704.24310	         8.30813e+57
          1705.04940	         9.12306e+57
          1705.85570	         9.71367e+57
          1706.66200	         9.40237e+57
          1707.46830	         9.13704e+57
          1708.27460	         8.36956e+57
          1709.08090	         6.41687e+57
          1709.88720	         6.02460e+57
          1710.69350	         6.15154e+57
          1711.49980	         6.21303e+57
          1712.30610	         7.10891e+57
          1713.11240	         9.33164e+57
          1713.91870	         8.14758e+57
          1714.72500	         8.51597e+57
          1715.53130	         9.84384e+57
          1716.33760	         7.71362e+57
          1717.14390	         7.16987e+57
          1717.95020	         8.28261e+57
          1718.75650	         7.73255e+57
          1719.56280	         7.01428e+57
          1720.36910	         6.23135e+57
          1721.17540	         6.64574e+57
          1721.98170	         7.10722e+57
          1722.78800	         7.59164e+57
          1723.59430	         7.18691e+57
          1724.40060	         7.93730e+57
          1725.20690	         7.74367e+57
          1726.01320	         7.08996e+57
          1726.81950	         7.22846e+57
          1727.62580	         7.77503e+57
          1728.43210	         7.30734e+57
          1729.23840	         7.02921e+57
          1730.04470	         7.62235e+57
          1730.85100	         8.22834e+57
          1731.65730	         8.68138e+57
          1732.46360	         8.03051e+57
          1733.26990	         6.73286e+57
          1734.07620	         7.19005e+57
          1734.88250	         7.59590e+57
          1735.68880	         7.95962e+57
          1736.49510	         8.16458e+57
          1737.30140	         7.66676e+57
          1738.10770	         7.14986e+57
          1738.91400	         7.62694e+57
          1739.72030	         7.36789e+57
          1740.52660	         5.89155e+57
          1741.33290	         5.20229e+57
          1742.13920	         5.34935e+57
          1742.94550	         6.31605e+57
          1743.75180	         6.81637e+57
          1744.55810	         7.31412e+57
          1745.36440	         7.50832e+57
          1746.17070	         5.90716e+57
          1746.97700	         5.76967e+57
          1747.78330	         6.67792e+57
          1748.58960	         7.11590e+57
          1749.39590	         7.20220e+57
          1750.20220	         7.18827e+57
          1751.00850	         5.86053e+57
          1751.81480	         5.77303e+57
          1752.62110	         7.04289e+57
          1753.42740	         7.79282e+57
          1754.23370	         6.51456e+57
          1755.04000	         6.94270e+57
          1755.84630	         8.12608e+57
          1756.65260	         8.14021e+57
          1757.45890	         8.16815e+57
          1758.26520	         8.27241e+57
          1759.07150	         8.95519e+57
          1759.87780	         8.61804e+57
          1760.68410	         8.48007e+57
          1761.49040	         8.81052e+57
          1762.29670	         6.50870e+57
          1763.10300	         7.55688e+57
          1763.90930	         7.85078e+57
          1764.71560	         6.86394e+57
          1765.52190	         7.05113e+57
          1766.32820	         8.53806e+57
          1767.13450	         8.49708e+57
          1767.94080	         7.51141e+57
          1768.74710	         7.56394e+57
          1769.55340	         6.94766e+57
          1770.35970	         6.18851e+57
          1771.16600	         7.42301e+57
          1771.97230	         7.46163e+57
          1772.77860	         7.69739e+57
          1773.58490	         8.19316e+57
          1774.39120	         5.99780e+57
          1775.19750	         6.15642e+57
          1776.00380	         6.88006e+57
          1776.81010	         6.22988e+57
          1777.61640	         5.94113e+57
          1778.42270	         6.86267e+57
          1779.22900	         6.87978e+57
          1780.03530	         6.68192e+57
          1780.84160	         7.49147e+57
          1781.64790	         8.29454e+57
          1782.45420	         7.78917e+57
          1783.26050	         6.75849e+57
          1784.06680	         7.10515e+57
          1784.87310	         7.26308e+57
          1785.67940	         8.21834e+57
          1786.48570	         7.47989e+57
          1787.29200	         6.00662e+57
          1788.09830	         6.35033e+57
          1788.90460	         6.17645e+57
          1789.71090	         6.00141e+57
          1790.51720	         5.76834e+57
          1791.32350	         8.00225e+57
          1792.12980	         9.23150e+57
          1792.93610	         7.71218e+57
          1793.74240	         6.67445e+57
          1794.54870	         8.13528e+57
          1795.35500	         8.21569e+57
          1796.16130	         8.28210e+57
          1796.96760	         6.79583e+57
          1797.77390	         6.95732e+57
          1798.58020	         7.15304e+57
          1799.38650	         6.00461e+57
          1800.19280	         6.98114e+57
          1800.99910	         7.76281e+57
          1801.80540	         7.60729e+57
          1802.61170	         8.11850e+57
          1803.41800	         9.16854e+57
          1804.22430	         7.32536e+57
          1805.03060	         5.71833e+57
          1805.83690	         6.91738e+57
          1806.64320	         8.13948e+57
          1807.44950	         7.40807e+57
          1808.25580	         7.61780e+57
          1809.06210	         8.88494e+57
          1809.86840	         7.67939e+57
          1810.67470	         7.81942e+57
          1811.48100	         7.72299e+57
          1812.28730	         7.55500e+57
          1813.09360	         7.28248e+57
          1813.89990	         8.20667e+57
          1814.70620	         8.24587e+57
          1815.51250	         8.23977e+57
          1816.31880	         7.66531e+57
          1817.12510	         6.32340e+57
          1817.93140	         6.68035e+57
          1818.73770	         7.64035e+57
          1819.54400	         8.92530e+57
          1820.35030	         8.87785e+57
          1821.15660	         6.06294e+57
          1821.96290	         5.97969e+57
          1822.76920	         7.21739e+57
          1823.57550	         7.85993e+57
          1824.38180	         6.89903e+57
          1825.18810	         6.91397e+57
          1825.99440	         7.70311e+57
          1826.80070	         7.36155e+57
          1827.60700	         6.65468e+57
          1828.41330	         5.94350e+57
          1829.21960	         5.51686e+57
          1830.02590	         6.12812e+57
          1830.83220	         6.87167e+57
          1831.63850	         7.48385e+57
          1832.44480	         7.26052e+57
          1833.25110	         7.51628e+57
          1834.05740	         8.16667e+57
          1834.86370	         7.72017e+57
          1835.67000	         6.32385e+57
          1836.47630	         6.49975e+57
          1837.28260	         7.97477e+57
          1838.08890	         8.37909e+57
          1838.89520	         8.88811e+57
          1839.70150	         8.69807e+57
          1840.50780	         7.89015e+57
          1841.31410	         6.24573e+57
          1842.12040	         6.12635e+57
          1842.92670	         6.80768e+57
          1843.73300	         6.84208e+57
          1844.53930	         7.25728e+57
          1845.34560	         7.79668e+57
          1846.15190	         7.48111e+57
          1846.95820	         7.15100e+57
          1847.76450	         7.44546e+57
          1848.57080	         5.84039e+57
          1849.37710	         6.20671e+57
          1850.18340	         7.14350e+57
          1850.98970	         8.34981e+57
          1851.79600	         7.28491e+57
          1852.60230	         6.03660e+57
          1853.40860	         6.19600e+57
          1854.21490	         6.12254e+57
          1855.02120	         6.57452e+57
          1855.82750	         5.49397e+57
          1856.63380	         6.26156e+57
          1857.44010	         8.08495e+57
          1858.24640	         7.47352e+57
          1859.05270	         7.11262e+57
          1859.85900	         4.94979e+57
          1860.66530	         6.29542e+57
          1861.47160	         6.72692e+57
          1862.27790	         6.69537e+57
          1863.08420	         7.07091e+57
          1863.89050	         8.86813e+57
          1864.69680	         8.02135e+57
          1865.50310	         7.30707e+57
          1866.30940	         6.53300e+57
          1867.11570	         7.03271e+57
          1867.92200	         7.55861e+57
          1868.72830	         7.58319e+57
          1869.53460	         6.79698e+57
          1870.34090	         6.78268e+57
          1871.14720	         8.40119e+57
          1871.95350	         7.67789e+57
          1872.75980	         7.14102e+57
          1873.56610	         6.62853e+57
          1874.37240	         6.05489e+57
          1875.17870	         5.92866e+57
          1875.98500	         7.02962e+57
          1876.79130	         7.34328e+57
          1877.59760	         6.55498e+57
          1878.40390	         6.00699e+57
          1879.21020	         6.53610e+57
          1880.01650	         7.56467e+57
          1880.82280	         9.43764e+57
          1881.62910	         9.26782e+57
          1882.43540	         8.99780e+57
          1883.24170	         8.10104e+57
          1884.04800	         6.73159e+57
          1884.85430	         7.02620e+57
          1885.66060	         8.03886e+57
          1886.46690	         8.04738e+57
          1887.27320	         7.72462e+57
          1888.07950	         6.09369e+57
          1888.88580	         6.13712e+57
          1889.69210	         8.69353e+57
          1890.49840	         9.04168e+57
          1891.30470	         8.56396e+57
          1892.11100	         8.33991e+57
          1892.91730	         8.22630e+57
          1893.72360	         7.54255e+57
          1894.52990	         6.93012e+57
          1895.33620	         7.14356e+57
          1896.14250	         6.87293e+57
          1896.94880	         7.04933e+57
          1897.75510	         4.67613e+57
          1898.56140	         5.72831e+57
          1899.36770	         7.58498e+57
          1900.17400	         6.47883e+57
          1900.98030	         6.31561e+57
          1901.78660	         7.58542e+57
          1902.59290	         7.58349e+57
          1903.39920	         8.91484e+57
          1904.20550	         9.11825e+57
          1905.01180	         8.24378e+57
          1905.81810	         9.16296e+57
          1906.62440	         1.20663e+58
          1907.43070	         1.46169e+58
          1908.23700	         1.63502e+58
          1909.04330	         1.29197e+58
          1909.84960	         1.09921e+58
          1910.65590	         9.26412e+57
          1911.46220	         9.05381e+57
          1912.26850	         8.09038e+57
          1913.07480	         6.23963e+57
          1913.88110	         6.08309e+57
          1914.68740	         5.43550e+57
          1915.49370	         5.72533e+57
          1916.30000	         5.75554e+57
          1917.10630	         5.54886e+57
          1917.91260	         5.92155e+57
          1918.71890	         7.13374e+57
          1919.52520	         6.48825e+57
          1920.33150	         5.42733e+57
          1921.13780	         5.95849e+57
          1921.94410	         8.27679e+57
          1922.75040	         8.02706e+57
          1923.55670	         7.94696e+57
          1924.36300	         8.12724e+57
          1925.16930	         6.61867e+57
          1925.97560	         5.72664e+57
          1926.78190	         5.23780e+57
          1927.58820	         5.35497e+57
          1928.39450	         5.46561e+57
          1929.20080	         5.32518e+57
          1930.00710	         5.74345e+57
          1930.81340	         6.87556e+57
          1931.61970	         6.58653e+57
          1932.42600	         7.97074e+57
          1933.23230	         8.53188e+57
          1934.03860	         8.27771e+57
          1934.84490	         5.63516e+57
          1935.65120	         6.50660e+57
          1936.45750	         8.25953e+57
          1937.26380	         8.06936e+57
          1938.07010	         8.08509e+57
          1938.87640	         6.50510e+57
          1939.68270	         7.06560e+57
          1940.48900	         8.50673e+57
          1941.29530	         8.08533e+57
          1942.10160	         8.77113e+57
          1942.90790	         7.31601e+57
          1943.71420	         6.85435e+57
          1944.52050	         6.44467e+57
          1945.32680	         6.75599e+57
          1946.13310	         7.79392e+57
          1946.93940	         8.05077e+57
          1947.74570	         7.23096e+57
          1948.55200	         6.63755e+57
          1949.35830	         6.69418e+57
          1950.16460	         5.96131e+57
          1950.97090	         6.06948e+57
          1951.77720	         6.57827e+57
          1952.58350	         7.19645e+57
          1953.38980	         5.88746e+57
          1954.19610	         4.05440e+57
          1955.00240	         6.09316e+57
          1955.80870	         5.68302e+57
          1956.61500	         6.59082e+57
          1957.42130	         6.38471e+57
          1958.22760	         6.75092e+57
          1959.03390	         6.82653e+57
          1959.84020	         7.95701e+57
          1960.64650	         7.60591e+57
          1961.45280	         6.40770e+57
          1962.25910	         6.05443e+57
          1963.06540	         6.16442e+57
          1963.87170	         6.39903e+57
          1964.67800	         6.36177e+57
          1965.48430	         6.63999e+57
          1966.29060	         5.60642e+57
          1967.09690	         6.70811e+57
          1967.90320	         6.22665e+57
          1968.70950	         5.45663e+57
          1969.51580	         5.68571e+57
          1970.32210	         7.65277e+57
          1971.12840	         6.91987e+57
          1971.93470	         4.42754e+57
          1972.74100	         4.48125e+57
          1973.54730	         7.45265e+57
          1974.35360	         7.04366e+57
          1975.15990	         7.30865e+57
          1975.96620	         6.00343e+57
          1976.77250	         7.18695e+57
          1977.57880	         7.10649e+57
          1978.38510	         5.74129e+57
          1979.19140	         5.83401e+57
          1979.99770	         6.91034e+57
          1980.80400	         7.21583e+57
          1981.61030	         6.81724e+57
          1982.41660	         5.62991e+57
          1983.22290	         5.83015e+57
          1984.02920	         6.18610e+57
          1984.83550	         6.29473e+57
          1985.64180	         6.47012e+57
          1986.44810	         6.07504e+57
          1987.25440	         6.04471e+57
          1988.06070	         5.09152e+57
          1988.86700	         5.55133e+57
          1989.67330	         6.60152e+57
          1990.47960	         5.94244e+57
          1991.28590	         6.21497e+57
          1992.09220	         5.96491e+57
          1992.89850	         5.68061e+57
          1993.70480	         6.12697e+57
          1994.51110	         4.42852e+57
          1995.31740	         3.97723e+57
          1996.12370	         4.43966e+57
          1996.93000	         5.90078e+57
          1997.73630	         7.84137e+57
          1998.54260	         7.73021e+57
          1999.34890	         6.61378e+57
          2000.15520	         6.90003e+57
          2000.96150	         5.19667e+57
          2001.76780	         4.65212e+57
          2002.57410	         4.67207e+57
          2003.38040	         6.25094e+57
          2004.18670	         5.99086e+57
          2004.99300	         6.26684e+57
          2005.79930	         6.96219e+57
          2006.60560	         6.45869e+57
          2007.41190	         6.58915e+57
          2008.21820	         6.29055e+57
          2009.02450	         6.98299e+57
          2009.83080	         6.09690e+57
          2010.63710	         5.97306e+57
          2011.44340	         6.74540e+57
          2012.24970	         6.48807e+57
          2013.05600	         5.77361e+57
          2013.86230	         4.65423e+57
          2014.66860	         5.46101e+57
          2015.47490	         6.04074e+57
          2016.28120	         5.59814e+57
          2017.08750	         6.14677e+57
          2017.89380	         6.96359e+57
          2018.70010	         7.40824e+57
          2019.50640	         5.33093e+57
          2020.31270	         5.85781e+57
          2021.11900	         6.81458e+57
          2021.92530	         7.51604e+57
          2022.73160	         8.17710e+57
          2023.53790	         7.77601e+57
          2024.34420	         6.08011e+57
          2025.15050	         5.14233e+57
          2025.95680	         5.14082e+57
          2026.76310	         5.63266e+57
          2027.56940	         5.62782e+57
          2028.37570	         5.87149e+57
          2029.18200	         5.89406e+57
          2029.98830	         5.35236e+57
          2030.79460	         6.13805e+57
          2031.60090	         7.28900e+57
          2032.40720	         7.30827e+57
          2033.21350	         5.61091e+57
          2034.01980	         5.02975e+57
          2034.82610	         4.50888e+57
          2035.63240	         4.86213e+57
          2036.43870	         5.22951e+57
          2037.24500	         5.33149e+57
          2038.05130	         6.66933e+57
          2038.85760	         6.61612e+57
          2039.66390	         6.00749e+57
          2040.47020	         5.64513e+57
          2041.27650	         5.73573e+57
          2042.08280	         6.22192e+57
          2042.88910	         6.52952e+57
          2043.69540	         6.16433e+57
          2044.50170	         5.59489e+57
          2045.30800	         4.93989e+57
          2046.11430	         2.82829e+57
          2046.92060	         5.60037e+57
          2047.72690	         7.87568e+57
          2048.53320	         7.11163e+57
          2049.33950	         4.27425e+57
          2050.14580	         4.46104e+57
          2050.95210	         6.03865e+57
          2051.75840	         6.37969e+57
          2052.56470	         5.39801e+57
          2053.37100	         5.47857e+57
          2054.17730	         5.80986e+57
          2054.98360	         7.22306e+57
          2055.78990	         4.02222e+57
          2056.59620	         2.01836e+57
          2057.40250	         5.33061e+57
          2058.20880	         6.27434e+57
          2059.01510	         6.20664e+57
          2059.82140	         6.23409e+57
          2060.62770	         8.57897e+57
          2061.43400	         1.07845e+58
          2062.24030	         9.00662e+57
          2063.04660	         4.70542e+57
          2063.85290	         2.70136e+57
          2064.65920	        -7.71454e+56
          2065.46550	        -8.63197e+57
          2066.27180	        -8.97564e+57
          2067.07810	         1.81528e+57
          2067.88440	         4.09463e+57
          2068.69070	         5.89414e+57
          2069.49700	         6.28586e+57
          2070.30330	         5.22637e+57
          2071.10960	         6.14103e+57
          2071.91590	         6.85617e+57
          2072.72220	         4.90579e+57
          2073.52850	         4.77882e+57
          2074.33480	         5.43140e+57
          2075.14110	         5.42509e+57
          2075.94740	         5.29336e+57
          2076.75370	         4.48877e+57
          2077.56000	         5.53317e+57
          2078.36630	         6.01311e+57
          2079.17260	         5.73115e+57
          2079.97890	         6.92751e+57
          2080.78520	         6.86593e+57
          2081.59150	         5.71522e+57
          2082.39780	         5.05454e+57
          2083.20410	         2.99499e+57
          2084.01040	         1.24160e+57
          2084.81670	         4.83801e+57
          2085.62300	         3.80120e+57
          2086.42930	         3.38865e+57
          2087.23560	         4.33291e+57
          2088.04190	         5.23627e+57
          2088.84820	         3.28758e+57
          2089.65450	         2.79337e+57
          2090.46080	         2.30885e+57
          2091.26710	         3.17899e+57
          2092.07340	         4.38594e+57
          2092.87970	         3.50050e+57
          2093.68600	         3.76387e+56
          2094.49230	         7.43187e+56
          2095.29860	         5.41154e+57
          2096.10490	         4.10483e+57
          2096.91120	         1.51631e+57
          2097.71750	         2.85247e+57
          2098.52380	         2.50228e+57
          2099.33010	         1.29184e+57
          2100.13640	         1.04454e+57
          2100.94270	         3.57709e+56
          2101.74900	         2.25087e+56
          2102.55530	         2.07488e+57
          2103.36160	         2.28118e+57
          2104.16790	         3.09874e+57
          2104.97420	         1.09838e+57
          2105.78050	        -1.31220e+57
          2106.58680	         1.38968e+57
          2107.39310	         4.32521e+56
          2108.19940	        -3.79708e+56
          2109.00570	         3.65374e+56
          2109.81200	         4.96950e+56
          2110.61830	         5.84075e+56
          2111.42460	         3.83105e+56
          2112.23090	         1.24039e+57
          2113.03720	         1.95583e+57
          2113.84350	         3.80327e+57
          2114.64980	         3.88847e+57
          2115.45610	         3.45031e+56
          2116.26240	        -1.26984e+57
          2117.06870	         6.83087e+56
          2117.87500	        -3.78018e+57
          2118.68130	        -2.60767e+57
          2119.48760	        -1.09757e+57
          2120.29390	         1.35319e+57
          2121.10020	        -1.33297e+57
          2121.90650	        -3.39045e+57
          2122.71280	        -2.71136e+56
          2123.51910	         2.71560e+57
          2124.32540	        -1.25487e+57
          2125.13170	         1.51383e+57
          2125.93800	         4.17532e+57
          2126.74430	         2.53286e+57
          2127.55060	        -4.88883e+57
          2128.35690	        -5.31049e+57
          2129.16320	        -1.66464e+57
          2129.96950	        -6.13100e+57
          2130.77580	        -2.32344e+57
          2131.58210	         3.85102e+56
          2132.38840	        -6.97330e+56
          2133.19470	        -3.35102e+57
          2134.00100	        -1.99782e+56
          2134.80730	        -1.21492e+57
          2135.61360	         7.75168e+57
          2136.41990	         7.67490e+57
          2137.22620	         4.95837e+57
          2138.03250	         5.53793e+57
          2138.83880	        -6.20589e+57
          2139.64510	         1.77661e+57
          2140.45140	        -2.52409e+57
          2141.25770	        -1.15604e+58
          2142.06400	        -8.79493e+57
          2142.87030	         7.32331e+56
          2143.67660	         1.01558e+58
          2144.48290	         7.00112e+57
          2145.28920	         7.26817e+57
          2146.09550	        -8.33703e+57
          2146.90180	        -8.61945e+57
          2147.70810	        -1.19411e+58
          2148.51440	        -7.88769e+57
          2149.32070	         1.12060e+56
          2150.12700	        -8.21194e+57
          2150.93330	        -6.86628e+57
          2151.73960	        -2.24420e+57
          2152.54590	        -6.63043e+57
          2153.35220	        -6.71464e+57
          2154.15850	        -6.47415e+57
          2154.96480	        -8.60024e+57
          2155.77110	        -3.40904e+57
          2156.57740	        -9.17525e+57
          2157.38370	         3.51890e+57
          2158.19000	         4.05602e+57
          2158.99630	        -4.24752e+57
          2159.80260	        -1.95726e+58
          2160.60890	        -1.55623e+58
          2161.41520	        -3.89730e+57
          2162.22150	        -6.13756e+57
          2163.02780	        -4.77963e+57
          2163.83410	        -7.16648e+57
          2164.64040	        -9.22602e+57
          2165.44670	        -1.03467e+58
          2166.25300	        -9.92824e+57
          2167.05930	        -1.16723e+58
          2167.86560	        -1.29968e+58
          2168.67190	        -9.09820e+57
          2169.47820	        -8.32774e+57
          2170.28450	        -1.27903e+57
          2171.09080	        -3.71185e+57
          2171.89710	        -5.39860e+57
          2172.70340	         1.98764e+57
          2173.50970	        -6.34434e+57
          2174.31600	        -7.37332e+57
          2175.12230	        -2.10660e+57
          2175.92860	        -1.70810e+57
          2176.73490	        -1.31694e+57
          2177.54120	        -1.01990e+58
          2178.34750	        -5.38208e+57
          2179.15380	                 nan
          2179.96010	                 nan
          2180.76640	                 nan
          2181.57270	                 nan
          2182.37900	                 nan
          2183.18530	                 nan
          2183.99160	                 nan
          2184.79790	                 nan
          2185.60420	                 nan
          2186.41050	                 nan
          2187.21680	                 nan
          2188.02310	                 nan
          2188.82940	                 nan
          2189.63570	                 nan
          2190.44200	                 nan
          2191.24830	                 nan
          2192.05460	                 nan
          2192.86090	                 nan
          2193.66720	                 nan
          2194.47350	                 nan
          2195.27980	                 nan
          2196.08610	                 nan
          2196.89240	                 nan
          2197.69870	                 nan
          2198.50500	                 nan
          2199.31130	                 nan
          2200.11760	                 nan
          2200.92390	                 nan
          2201.73020	                 nan
          2202.53650	                 nan
          2203.34280	                 nan
          2204.14910	                 nan
          2204.95540	                 nan
          2205.76170	                 nan
          2206.56800	                 nan
          2207.37430	                 nan
          2208.18060	                 nan
          2208.98690	                 nan
          2209.79320	                 nan
          2210.59950	                 nan
          2211.40580	                 nan
          2212.21210	                 nan
          2213.01840	                 nan
          2213.82470	                 nan
          2214.63100	                 nan
          2215.43730	         0.00000e+00
