#sample_208_stacked_spectrum_rest_UV-bands_median_H-alpha_noDC.txt
#median Lum: 1.69386e+42
#Rest-frame wavelength (A) | Luminosity (erg/s/A)
#
          1110.00000	         0.00000e+00
          1110.80630	         2.12388e+59
          1111.61260	         6.80311e+58
          1112.41890	        -9.16945e+58
          1113.22520	        -1.56206e+59
          1114.03150	         1.65960e+58
          1114.83780	         1.31763e+59
          1115.64410	         8.81255e+58
          1116.45040	         5.61914e+58
          1117.25670	         2.54848e+58
          1118.06300	         1.35335e+59
          1118.86930	        -7.06511e+58
          1119.67560	         5.58151e+57
          1120.48190	        -5.69029e+58
          1121.28820	        -1.54859e+59
          1122.09450	         1.40519e+58
          1122.90080	         1.17802e+59
          1123.70710	         1.73212e+59
          1124.51340	         5.25272e+58
          1125.31970	        -1.42332e+58
          1126.12600	        -7.28063e+56
          1126.93230	        -2.71495e+58
          1127.73860	        -4.89278e+58
          1128.54490	        -2.80980e+58
          1129.35120	        -2.52452e+58
          1130.15750	        -2.76283e+58
          1130.96380	        -5.51463e+58
          1131.77010	         2.25086e+58
          1132.57640	         5.28804e+58
          1133.38270	         2.71810e+58
          1134.18900	        -1.57891e+58
          1134.99530	        -9.50089e+56
          1135.80160	         2.78744e+58
          1136.60790	         2.43779e+56
          1137.41420	        -8.03940e+57
          1138.22050	         4.19363e+58
          1139.02680	        -1.02157e+58
          1139.83310	         4.92125e+57
          1140.63940	         1.94851e+58
          1141.44570	        -2.13850e+58
          1142.25200	        -4.76732e+57
          1143.05830	        -1.08990e+57
          1143.86460	         2.14599e+58
          1144.67090	         1.97793e+58
          1145.47720	         2.02250e+58
          1146.28350	         1.30127e+58
          1147.08980	         2.40796e+58
          1147.89610	         3.36443e+58
          1148.70240	         2.31046e+58
          1149.50870	         2.56544e+58
          1150.31500	         1.44062e+58
          1151.12130	         1.01346e+58
          1151.92760	         1.42488e+57
          1152.73390	         7.18524e+57
          1153.54020	         9.91978e+57
          1154.34650	         2.61468e+58
          1155.15280	         2.41443e+58
          1155.95910	         1.38051e+58
          1156.76540	         4.36979e+57
          1157.57170	         4.13743e+57
          1158.37800	         2.49665e+57
          1159.18430	        -8.13662e+57
          1159.99060	        -3.58294e+57
          1160.79690	         8.66689e+56
          1161.60320	         1.37495e+58
          1162.40950	         1.97965e+58
          1163.21580	         1.87702e+58
          1164.02210	         1.47096e+58
          1164.82840	         1.22542e+58
          1165.63470	         2.38092e+58
          1166.44100	         2.23565e+58
          1167.24730	         1.61965e+58
          1168.05360	         8.48943e+57
          1168.85990	         5.46798e+57
          1169.66620	         6.73167e+57
          1170.47250	         1.12694e+58
          1171.27880	         1.31919e+58
          1172.08510	         2.07740e+58
          1172.89140	         1.05226e+58
          1173.69770	         8.09738e+57
          1174.50400	         8.22994e+57
          1175.31030	         1.44662e+58
          1176.11660	         1.84178e+58
          1176.92290	         1.55948e+58
          1177.72920	         1.71408e+58
          1178.53550	         6.36407e+57
          1179.34180	         2.09973e+57
          1180.14810	         7.93186e+57
          1180.95440	         9.79601e+57
          1181.76070	         7.02453e+57
          1182.56700	         9.29773e+57
          1183.37330	         7.24480e+57
          1184.17960	         1.26842e+58
          1184.98590	         1.24416e+58
          1185.79220	         8.02034e+57
          1186.59850	         7.29102e+57
          1187.40480	         5.51922e+57
          1188.21110	         1.58337e+58
          1189.01740	         9.49304e+57
          1189.82370	         6.83972e+57
          1190.63000	         1.11351e+58
          1191.43630	         1.43674e+58
          1192.24260	         1.25152e+58
          1193.04890	         8.93900e+57
          1193.85520	         1.04961e+58
          1194.66150	         3.50541e+57
          1195.46780	         9.36477e+57
          1196.27410	         1.36162e+58
          1197.08040	         9.47919e+57
          1197.88670	         1.35643e+58
          1198.69300	         1.59963e+58
          1199.49930	         1.79641e+58
          1200.30560	         1.34764e+58
          1201.11190	         1.14004e+58
          1201.91820	         1.25401e+58
          1202.72450	         1.14961e+58
          1203.53080	         1.06666e+58
          1204.33710	         9.29996e+57
          1205.14340	         9.70376e+57
          1205.94970	         6.51867e+57
          1206.75600	         9.89459e+57
          1207.56230	         5.75444e+57
          1208.36860	         1.16696e+58
          1209.17490	         9.80852e+57
          1209.98120	         8.34793e+57
          1210.78750	         9.87865e+57
          1211.59380	         1.23100e+58
          1212.40010	         1.53395e+58
          1213.20640	         2.00308e+58
          1214.01270	         2.01538e+58
          1214.81900	         2.81240e+58
          1215.62530	         4.98022e+58
          1216.43160	         9.65079e+58
          1217.23790	         1.50109e+59
          1218.04420	         1.09112e+59
          1218.85050	         8.70870e+58
          1219.65680	         5.64788e+58
          1220.46310	         3.34904e+58
          1221.26940	         2.16305e+58
          1222.07570	         1.28082e+58
          1222.88200	         1.27505e+58
          1223.68830	         7.11500e+57
          1224.49460	         5.40179e+57
          1225.30090	         4.44385e+57
          1226.10720	         4.72384e+57
          1226.91350	         4.46803e+57
          1227.71980	         6.92275e+57
          1228.52610	         1.14242e+58
          1229.33240	         1.13528e+58
          1230.13870	         9.19310e+57
          1230.94500	         8.54038e+57
          1231.75130	         7.60727e+57
          1232.55760	         7.42561e+57
          1233.36390	         9.31361e+57
          1234.17020	         9.20492e+57
          1234.97650	         8.91077e+57
          1235.78280	         9.53939e+57
          1236.58910	         7.43964e+57
          1237.39540	         9.69021e+57
          1238.20170	         9.92791e+57
          1239.00800	         1.01466e+58
          1239.81430	         1.52138e+58
          1240.62060	         1.36333e+58
          1241.42690	         1.03348e+58
          1242.23320	         1.01478e+58
          1243.03950	         9.11817e+57
          1243.84580	         9.84362e+57
          1244.65210	         9.93127e+57
          1245.45840	         1.06640e+58
          1246.26470	         1.00560e+58
          1247.07100	         7.61450e+57
          1247.87730	         5.27212e+57
          1248.68360	         5.56598e+57
          1249.48990	         8.69832e+57
          1250.29620	         9.75343e+57
          1251.10250	         8.34512e+57
          1251.90880	         5.03933e+57
          1252.71510	         6.15437e+57
          1253.52140	         8.72908e+57
          1254.32770	         8.86671e+57
          1255.13400	         1.39771e+58
          1255.94030	         1.24423e+58
          1256.74660	         1.12928e+58
          1257.55290	         1.23535e+58
          1258.35920	         1.02150e+58
          1259.16550	         5.25121e+57
          1259.97180	         5.77545e+57
          1260.77810	         8.39067e+57
          1261.58440	         1.08658e+58
          1262.39070	         7.20901e+57
          1263.19700	         7.45071e+57
          1264.00330	         1.03856e+58
          1264.80960	         1.14035e+58
          1265.61590	         1.29424e+58
          1266.42220	         1.18506e+58
          1267.22850	         9.02906e+57
          1268.03480	         1.39732e+58
          1268.84110	         1.57193e+58
          1269.64740	         1.32069e+58
          1270.45370	         1.27033e+58
          1271.26000	         1.17111e+58
          1272.06630	         1.33759e+58
          1272.87260	         1.32397e+58
          1273.67890	         9.54287e+57
          1274.48520	         1.04424e+58
          1275.29150	         1.32555e+58
          1276.09780	         1.09984e+58
          1276.90410	         1.34185e+58
          1277.71040	         1.37766e+58
          1278.51670	         1.26813e+58
          1279.32300	         1.46042e+58
          1280.12930	         1.43416e+58
          1280.93560	         1.06365e+58
          1281.74190	         1.12686e+58
          1282.54820	         1.43406e+58
          1283.35450	         1.25120e+58
          1284.16080	         1.24901e+58
          1284.96710	         1.24842e+58
          1285.77340	         1.02848e+58
          1286.57970	         1.27165e+58
          1287.38600	         1.65041e+58
          1288.19230	         1.73333e+58
          1288.99860	         1.25358e+58
          1289.80490	         1.11473e+58
          1290.61120	         1.44040e+58
          1291.41750	         1.43713e+58
          1292.22380	         1.13518e+58
          1293.03010	         1.10173e+58
          1293.83640	         1.28874e+58
          1294.64270	         1.14558e+58
          1295.44900	         6.55937e+57
          1296.25530	         7.91959e+57
          1297.06160	         1.02815e+58
          1297.86790	         8.28138e+57
          1298.67420	         7.67385e+57
          1299.48050	         8.50620e+57
          1300.28680	         1.18945e+58
          1301.09310	         9.70949e+57
          1301.89940	         3.81221e+57
          1302.70570	         6.71089e+57
          1303.51200	         8.50792e+57
          1304.31830	         8.83180e+57
          1305.12460	         1.06230e+58
          1305.93090	         1.17856e+58
          1306.73720	         1.31765e+58
          1307.54350	         1.44463e+58
          1308.34980	         1.38703e+58
          1309.15610	         1.56913e+58
          1309.96240	         1.58356e+58
          1310.76870	         1.28111e+58
          1311.57500	         1.21645e+58
          1312.38130	         1.10226e+58
          1313.18760	         1.25425e+58
          1313.99390	         1.80633e+58
          1314.80020	         1.76870e+58
          1315.60650	         1.42541e+58
          1316.41280	         1.17608e+58
          1317.21910	         1.05381e+58
          1318.02540	         1.08807e+58
          1318.83170	         1.09215e+58
          1319.63800	         1.01714e+58
          1320.44430	         1.09363e+58
          1321.25060	         1.23798e+58
          1322.05690	         1.14307e+58
          1322.86320	         1.15277e+58
          1323.66950	         1.10386e+58
          1324.47580	         9.90438e+57
          1325.28210	         1.02708e+58
          1326.08840	         1.09269e+58
          1326.89470	         1.20441e+58
          1327.70100	         1.04141e+58
          1328.50730	         1.00786e+58
          1329.31360	         1.11906e+58
          1330.11990	         9.74175e+57
          1330.92620	         8.95395e+57
          1331.73250	         1.07706e+58
          1332.53880	         8.40272e+57
          1333.34510	         7.22340e+57
          1334.15140	         9.92917e+57
          1334.95770	         9.57785e+57
          1335.76400	         9.22132e+57
          1336.57030	         1.03070e+58
          1337.37660	         1.00119e+58
          1338.18290	         1.02807e+58
          1338.98920	         1.16601e+58
          1339.79550	         1.14864e+58
          1340.60180	         1.08632e+58
          1341.40810	         1.25970e+58
          1342.21440	         1.19426e+58
          1343.02070	         1.05974e+58
          1343.82700	         1.21033e+58
          1344.63330	         1.04243e+58
          1345.43960	         1.08773e+58
          1346.24590	         9.22625e+57
          1347.05220	         1.01375e+58
          1347.85850	         1.03678e+58
          1348.66480	         1.12107e+58
          1349.47110	         1.08856e+58
          1350.27740	         1.10926e+58
          1351.08370	         1.09088e+58
          1351.89000	         1.11687e+58
          1352.69630	         1.19508e+58
          1353.50260	         1.19975e+58
          1354.30890	         1.11899e+58
          1355.11520	         1.14686e+58
          1355.92150	         1.15431e+58
          1356.72780	         1.02782e+58
          1357.53410	         9.67399e+57
          1358.34040	         1.09871e+58
          1359.14670	         1.12026e+58
          1359.95300	         1.02869e+58
          1360.75930	         1.11634e+58
          1361.56560	         1.05294e+58
          1362.37190	         9.91135e+57
          1363.17820	         1.01047e+58
          1363.98450	         1.21453e+58
          1364.79080	         1.22940e+58
          1365.59710	         1.13434e+58
          1366.40340	         1.06129e+58
          1367.20970	         9.07396e+57
          1368.01600	         9.42541e+57
          1368.82230	         1.02131e+58
          1369.62860	         1.09832e+58
          1370.43490	         1.11814e+58
          1371.24120	         1.06935e+58
          1372.04750	         9.44356e+57
          1372.85380	         1.24150e+58
          1373.66010	         1.17731e+58
          1374.46640	         1.12837e+58
          1375.27270	         1.12951e+58
          1376.07900	         8.48999e+57
          1376.88530	         7.89623e+57
          1377.69160	         8.17182e+57
          1378.49790	         7.91043e+57
          1379.30420	         9.43477e+57
          1380.11050	         9.46911e+57
          1380.91680	         8.56461e+57
          1381.72310	         7.99726e+57
          1382.52940	         7.35690e+57
          1383.33570	         7.49076e+57
          1384.14200	         1.07809e+58
          1384.94830	         1.14371e+58
          1385.75460	         1.17176e+58
          1386.56090	         1.18921e+58
          1387.36720	         1.00148e+58
          1388.17350	         1.24591e+58
          1388.97980	         1.25740e+58
          1389.78610	         9.62888e+57
          1390.59240	         8.98523e+57
          1391.39870	         7.59027e+57
          1392.20500	         8.44384e+57
          1393.01130	         7.02756e+57
          1393.81760	         5.82077e+57
          1394.62390	         6.57178e+57
          1395.43020	         5.95863e+57
          1396.23650	         6.05870e+57
          1397.04280	         7.86051e+57
          1397.84910	         9.15067e+57
          1398.65540	         9.27093e+57
          1399.46170	         1.06278e+58
          1400.26800	         8.66508e+57
          1401.07430	         6.96105e+57
          1401.88060	         8.27205e+57
          1402.68690	         9.47644e+57
          1403.49320	         8.27121e+57
          1404.29950	         9.05243e+57
          1405.10580	         1.02348e+58
          1405.91210	         1.10164e+58
          1406.71840	         1.03717e+58
          1407.52470	         1.06677e+58
          1408.33100	         9.73438e+57
          1409.13730	         9.67869e+57
          1409.94360	         1.15152e+58
          1410.74990	         1.18301e+58
          1411.55620	         8.83865e+57
          1412.36250	         8.30398e+57
          1413.16880	         9.18875e+57
          1413.97510	         7.96178e+57
          1414.78140	         7.87559e+57
          1415.58770	         9.24857e+57
          1416.39400	         1.05372e+58
          1417.20030	         9.08619e+57
          1418.00660	         8.31837e+57
          1418.81290	         1.04633e+58
          1419.61920	         1.01452e+58
          1420.42550	         1.13065e+58
          1421.23180	         1.18326e+58
          1422.03810	         1.13464e+58
          1422.84440	         1.05227e+58
          1423.65070	         1.18273e+58
          1424.45700	         1.12367e+58
          1425.26330	         9.22625e+57
          1426.06960	         8.34088e+57
          1426.87590	         9.09641e+57
          1427.68220	         1.00828e+58
          1428.48850	         1.09124e+58
          1429.29480	         1.01534e+58
          1430.10110	         9.69634e+57
          1430.90740	         9.05640e+57
          1431.71370	         8.97942e+57
          1432.52000	         8.83086e+57
          1433.32630	         7.47783e+57
          1434.13260	         7.38598e+57
          1434.93890	         8.40453e+57
          1435.74520	         9.16978e+57
          1436.55150	         8.95055e+57
          1437.35780	         8.58716e+57
          1438.16410	         9.57267e+57
          1438.97040	         9.14663e+57
          1439.77670	         8.25327e+57
          1440.58300	         8.52409e+57
          1441.38930	         8.68439e+57
          1442.19560	         8.41097e+57
          1443.00190	         8.28095e+57
          1443.80820	         9.53206e+57
          1444.61450	         1.02335e+58
          1445.42080	         9.84805e+57
          1446.22710	         1.03240e+58
          1447.03340	         1.04202e+58
          1447.83970	         1.10033e+58
          1448.64600	         1.06889e+58
          1449.45230	         1.01419e+58
          1450.25860	         9.99440e+57
          1451.06490	         8.68892e+57
          1451.87120	         7.96645e+57
          1452.67750	         7.62293e+57
          1453.48380	         8.91989e+57
          1454.29010	         7.93534e+57
          1455.09640	         7.59020e+57
          1455.90270	         8.90482e+57
          1456.70900	         8.52585e+57
          1457.51530	         9.23744e+57
          1458.32160	         1.26655e+58
          1459.12790	         1.18102e+58
          1459.93420	         9.23424e+57
          1460.74050	         8.49633e+57
          1461.54680	         8.42662e+57
          1462.35310	         8.47399e+57
          1463.15940	         9.61524e+57
          1463.96570	         1.09711e+58
          1464.77200	         1.22891e+58
          1465.57830	         1.13851e+58
          1466.38460	         9.17037e+57
          1467.19090	         8.03473e+57
          1467.99720	         8.83016e+57
          1468.80350	         8.96991e+57
          1469.60980	         8.65356e+57
          1470.41610	         9.60095e+57
          1471.22240	         9.70016e+57
          1472.02870	         8.84668e+57
          1472.83500	         9.77980e+57
          1473.64130	         1.02937e+58
          1474.44760	         1.01095e+58
          1475.25390	         9.65773e+57
          1476.06020	         9.06852e+57
          1476.86650	         8.02260e+57
          1477.67280	         8.37614e+57
          1478.47910	         7.28658e+57
          1479.28540	         6.58914e+57
          1480.09170	         8.54746e+57
          1480.89800	         9.49312e+57
          1481.70430	         8.43180e+57
          1482.51060	         8.47374e+57
          1483.31690	         8.16104e+57
          1484.12320	         6.88805e+57
          1484.92950	         7.18542e+57
          1485.73580	         8.52171e+57
          1486.54210	         9.39200e+57
          1487.34840	         9.47996e+57
          1488.15470	         8.69752e+57
          1488.96100	         8.62474e+57
          1489.76730	         8.73530e+57
          1490.57360	         8.97195e+57
          1491.37990	         7.37870e+57
          1492.18620	         6.99044e+57
          1492.99250	         7.34633e+57
          1493.79880	         8.68016e+57
          1494.60510	         9.55156e+57
          1495.41140	         8.68206e+57
          1496.21770	         8.68888e+57
          1497.02400	         1.08697e+58
          1497.83030	         9.29643e+57
          1498.63660	         7.00745e+57
          1499.44290	         7.22215e+57
          1500.24920	         6.87603e+57
          1501.05550	         7.73610e+57
          1501.86180	         8.65133e+57
          1502.66810	         9.17841e+57
          1503.47440	         9.38612e+57
          1504.28070	         8.90450e+57
          1505.08700	         9.96024e+57
          1505.89330	         9.67048e+57
          1506.69960	         8.35831e+57
          1507.50590	         8.53019e+57
          1508.31220	         8.34100e+57
          1509.11850	         8.06815e+57
          1509.92480	         9.35823e+57
          1510.73110	         8.76968e+57
          1511.53740	         7.63183e+57
          1512.34370	         7.80722e+57
          1513.15000	         9.57398e+57
          1513.95630	         1.02908e+58
          1514.76260	         9.24943e+57
          1515.56890	         8.83575e+57
          1516.37520	         8.86015e+57
          1517.18150	         8.39358e+57
          1517.98780	         7.68707e+57
          1518.79410	         7.57969e+57
          1519.60040	         8.32922e+57
          1520.40670	         9.28616e+57
          1521.21300	         9.53826e+57
          1522.01930	         8.84731e+57
          1522.82560	         9.14983e+57
          1523.63190	         9.53519e+57
          1524.43820	         8.69479e+57
          1525.24450	         6.63442e+57
          1526.05080	         6.68030e+57
          1526.85710	         7.07133e+57
          1527.66340	         7.17620e+57
          1528.46970	         7.87624e+57
          1529.27600	         8.23259e+57
          1530.08230	         8.72415e+57
          1530.88860	         8.60123e+57
          1531.69490	         9.29678e+57
          1532.50120	         9.16258e+57
          1533.30750	         9.71886e+57
          1534.11380	         9.54232e+57
          1534.92010	         8.97467e+57
          1535.72640	         9.62290e+57
          1536.53270	         9.70345e+57
          1537.33900	         9.43778e+57
          1538.14530	         8.60088e+57
          1538.95160	         8.60857e+57
          1539.75790	         8.85379e+57
          1540.56420	         8.58211e+57
          1541.37050	         8.92935e+57
          1542.17680	         8.52163e+57
          1542.98310	         7.68802e+57
          1543.78940	         7.78281e+57
          1544.59570	         7.09473e+57
          1545.40200	         7.13987e+57
          1546.20830	         9.08976e+57
          1547.01460	         1.04759e+58
          1547.82090	         1.19838e+58
          1548.62720	         1.25704e+58
          1549.43350	         1.27255e+58
          1550.23980	         1.15413e+58
          1551.04610	         1.21288e+58
          1551.85240	         1.20408e+58
          1552.65870	         1.08058e+58
          1553.46500	         9.63673e+57
          1554.27130	         9.39925e+57
          1555.07760	         9.63140e+57
          1555.88390	         8.33960e+57
          1556.69020	         8.33833e+57
          1557.49650	         8.40143e+57
          1558.30280	         8.43959e+57
          1559.10910	         8.99778e+57
          1559.91540	         9.12016e+57
          1560.72170	         8.98724e+57
          1561.52800	         8.19221e+57
          1562.33430	         8.32109e+57
          1563.14060	         7.42793e+57
          1563.94690	         7.27078e+57
          1564.75320	         8.16752e+57
          1565.55950	         7.37877e+57
          1566.36580	         7.50681e+57
          1567.17210	         9.03012e+57
          1567.97840	         9.14878e+57
          1568.78470	         7.65474e+57
          1569.59100	         8.69776e+57
          1570.39730	         8.85895e+57
          1571.20360	         7.02709e+57
          1572.00990	         7.90421e+57
          1572.81620	         9.39290e+57
          1573.62250	         9.85321e+57
          1574.42880	         1.01012e+58
          1575.23510	         7.93738e+57
          1576.04140	         8.43471e+57
          1576.84770	         9.18307e+57
          1577.65400	         8.60882e+57
          1578.46030	         9.52516e+57
          1579.26660	         1.02136e+58
          1580.07290	         9.54293e+57
          1580.87920	         8.03132e+57
          1581.68550	         7.63409e+57
          1582.49180	         7.91723e+57
          1583.29810	         8.03367e+57
          1584.10440	         8.73063e+57
          1584.91070	         8.43424e+57
          1585.71700	         7.47638e+57
          1586.52330	         8.44208e+57
          1587.32960	         8.49517e+57
          1588.13590	         8.43891e+57
          1588.94220	         7.74260e+57
          1589.74850	         8.52525e+57
          1590.55480	         8.90042e+57
          1591.36110	         7.66923e+57
          1592.16740	         7.18297e+57
          1592.97370	         7.35088e+57
          1593.78000	         8.42253e+57
          1594.58630	         9.01188e+57
          1595.39260	         8.21295e+57
          1596.19890	         9.30166e+57
          1597.00520	         9.39209e+57
          1597.81150	         8.49864e+57
          1598.61780	         7.04047e+57
          1599.42410	         6.23280e+57
          1600.23040	         6.09961e+57
          1601.03670	         6.95507e+57
          1601.84300	         7.01878e+57
          1602.64930	         8.06354e+57
          1603.45560	         7.91845e+57
          1604.26190	         7.35495e+57
          1605.06820	         7.81815e+57
          1605.87450	         7.70877e+57
          1606.68080	         6.91460e+57
          1607.48710	         7.29247e+57
          1608.29340	         6.40765e+57
          1609.09970	         6.50103e+57
          1609.90600	         7.99495e+57
          1610.71230	         7.44612e+57
          1611.51860	         6.17888e+57
          1612.32490	         6.34005e+57
          1613.13120	         6.92395e+57
          1613.93750	         7.81439e+57
          1614.74380	         8.92851e+57
          1615.55010	         9.32503e+57
          1616.35640	         9.90222e+57
          1617.16270	         9.82136e+57
          1617.96900	         9.88194e+57
          1618.77530	         8.52305e+57
          1619.58160	         8.31041e+57
          1620.38790	         8.50267e+57
          1621.19420	         9.45212e+57
          1622.00050	         8.25467e+57
          1622.80680	         8.34695e+57
          1623.61310	         8.90066e+57
          1624.41940	         8.60660e+57
          1625.22570	         9.88523e+57
          1626.03200	         9.32921e+57
          1626.83830	         8.53303e+57
          1627.64460	         7.36539e+57
          1628.45090	         7.71636e+57
          1629.25720	         9.32602e+57
          1630.06350	         9.89411e+57
          1630.86980	         7.44239e+57
          1631.67610	         6.93978e+57
          1632.48240	         8.49709e+57
          1633.28870	         9.20691e+57
          1634.09500	         9.18817e+57
          1634.90130	         1.06232e+58
          1635.70760	         8.91948e+57
          1636.51390	         7.81773e+57
          1637.32020	         8.33466e+57
          1638.12650	         8.63710e+57
          1638.93280	         9.63794e+57
          1639.73910	         1.11932e+58
          1640.54540	         1.09868e+58
          1641.35170	         9.31773e+57
          1642.15800	         9.26222e+57
          1642.96430	         9.52328e+57
          1643.77060	         8.94251e+57
          1644.57690	         7.67657e+57
          1645.38320	         8.11985e+57
          1646.18950	         7.11779e+57
          1646.99580	         7.51230e+57
          1647.80210	         7.46206e+57
          1648.60840	         7.37666e+57
          1649.41470	         7.74871e+57
          1650.22100	         6.44409e+57
          1651.02730	         6.20675e+57
          1651.83360	         7.22043e+57
          1652.63990	         6.71289e+57
          1653.44620	         7.44545e+57
          1654.25250	         6.70401e+57
          1655.05880	         6.84859e+57
          1655.86510	         7.69589e+57
          1656.67140	         8.00363e+57
          1657.47770	         7.89241e+57
          1658.28400	         9.00324e+57
          1659.09030	         9.06808e+57
          1659.89660	         8.73252e+57
          1660.70290	         9.46163e+57
          1661.50920	         8.96912e+57
          1662.31550	         8.70749e+57
          1663.12180	         8.78352e+57
          1663.92810	         9.13321e+57
          1664.73440	         9.77075e+57
          1665.54070	         1.18823e+58
          1666.34700	         1.16989e+58
          1667.15330	         1.09220e+58
          1667.95960	         9.45279e+57
          1668.76590	         8.07510e+57
          1669.57220	         6.47612e+57
          1670.37850	         7.07169e+57
          1671.18480	         8.17409e+57
          1671.99110	         8.44434e+57
          1672.79740	         7.41637e+57
          1673.60370	         6.29739e+57
          1674.41000	         5.95359e+57
          1675.21630	         7.13961e+57
          1676.02260	         6.38266e+57
          1676.82890	         6.14042e+57
          1677.63520	         6.62334e+57
          1678.44150	         8.03204e+57
          1679.24780	         9.38879e+57
          1680.05410	         7.90715e+57
          1680.86040	         6.23416e+57
          1681.66670	         7.94001e+57
          1682.47300	         8.37014e+57
          1683.27930	         7.85560e+57
          1684.08560	         9.02277e+57
          1684.89190	         8.00036e+57
          1685.69820	         5.34683e+57
          1686.50450	         5.06403e+57
          1687.31080	         7.11870e+57
          1688.11710	         8.73789e+57
          1688.92340	         6.24108e+57
          1689.72970	         5.72186e+57
          1690.53600	         6.07308e+57
          1691.34230	         7.03173e+57
          1692.14860	         8.46675e+57
          1692.95490	         8.17159e+57
          1693.76120	         7.34427e+57
          1694.56750	         6.15308e+57
          1695.37380	         7.71365e+57
          1696.18010	         8.66764e+57
          1696.98640	         8.21134e+57
          1697.79270	         8.24226e+57
          1698.59900	         8.55129e+57
          1699.40530	         8.60451e+57
          1700.21160	         7.53649e+57
          1701.01790	         7.92208e+57
          1701.82420	         6.87048e+57
          1702.63050	         7.20931e+57
          1703.43680	         8.07762e+57
          1704.24310	         8.00295e+57
          1705.04940	         8.61368e+57
          1705.85570	         8.39706e+57
          1706.66200	         7.52666e+57
          1707.46830	         7.79734e+57
          1708.27460	         7.44110e+57
          1709.08090	         6.95800e+57
          1709.88720	         6.04553e+57
          1710.69350	         6.21405e+57
          1711.49980	         7.39320e+57
          1712.30610	         8.02538e+57
          1713.11240	         9.18227e+57
          1713.91870	         8.17388e+57
          1714.72500	         7.80949e+57
          1715.53130	         8.12513e+57
          1716.33760	         8.02513e+57
          1717.14390	         8.04948e+57
          1717.95020	         8.21152e+57
          1718.75650	         8.18816e+57
          1719.56280	         7.99074e+57
          1720.36910	         6.71472e+57
          1721.17540	         6.73643e+57
          1721.98170	         6.68075e+57
          1722.78800	         7.35143e+57
          1723.59430	         8.12404e+57
          1724.40060	         7.83003e+57
          1725.20690	         7.65857e+57
          1726.01320	         7.43162e+57
          1726.81950	         7.70545e+57
          1727.62580	         7.98085e+57
          1728.43210	         7.53345e+57
          1729.23840	         7.94005e+57
          1730.04470	         8.63565e+57
          1730.85100	         7.94266e+57
          1731.65730	         7.27057e+57
          1732.46360	         7.27980e+57
          1733.26990	         7.39708e+57
          1734.07620	         7.04786e+57
          1734.88250	         6.92114e+57
          1735.68880	         7.30329e+57
          1736.49510	         8.27132e+57
          1737.30140	         8.42903e+57
          1738.10770	         7.46103e+57
          1738.91400	         7.55093e+57
          1739.72030	         6.83233e+57
          1740.52660	         5.70597e+57
          1741.33290	         6.04564e+57
          1742.13920	         5.87451e+57
          1742.94550	         7.21163e+57
          1743.75180	         8.56318e+57
          1744.55810	         7.54257e+57
          1745.36440	         6.86600e+57
          1746.17070	         5.86747e+57
          1746.97700	         5.48178e+57
          1747.78330	         6.69256e+57
          1748.58960	         6.26436e+57
          1749.39590	         7.07650e+57
          1750.20220	         6.24825e+57
          1751.00850	         5.51791e+57
          1751.81480	         5.75197e+57
          1752.62110	         7.52839e+57
          1753.42740	         8.39636e+57
          1754.23370	         6.29314e+57
          1755.04000	         6.37449e+57
          1755.84630	         7.15384e+57
          1756.65260	         7.44779e+57
          1757.45890	         7.74954e+57
          1758.26520	         6.74333e+57
          1759.07150	         8.99549e+57
          1759.87780	         8.85625e+57
          1760.68410	         7.75169e+57
          1761.49040	         7.28609e+57
          1762.29670	         7.02300e+57
          1763.10300	         7.25549e+57
          1763.90930	         7.39462e+57
          1764.71560	         7.15737e+57
          1765.52190	         6.51702e+57
          1766.32820	         7.57564e+57
          1767.13450	         7.33917e+57
          1767.94080	         5.91627e+57
          1768.74710	         6.49277e+57
          1769.55340	         7.00831e+57
          1770.35970	         6.22134e+57
          1771.16600	         5.83214e+57
          1771.97230	         7.10382e+57
          1772.77860	         8.38547e+57
          1773.58490	         7.89025e+57
          1774.39120	         6.04341e+57
          1775.19750	         5.70118e+57
          1776.00380	         6.99863e+57
          1776.81010	         7.17705e+57
          1777.61640	         6.61895e+57
          1778.42270	         6.16988e+57
          1779.22900	         5.99957e+57
          1780.03530	         6.56076e+57
          1780.84160	         7.13527e+57
          1781.64790	         7.97893e+57
          1782.45420	         7.16256e+57
          1783.26050	         6.31186e+57
          1784.06680	         7.37056e+57
          1784.87310	         8.33036e+57
          1785.67940	         7.36582e+57
          1786.48570	         5.99105e+57
          1787.29200	         5.44514e+57
          1788.09830	         5.77804e+57
          1788.90460	         6.22829e+57
          1789.71090	         6.46189e+57
          1790.51720	         5.92669e+57
          1791.32350	         7.37537e+57
          1792.12980	         8.48199e+57
          1792.93610	         7.69337e+57
          1793.74240	         7.36947e+57
          1794.54870	         7.63261e+57
          1795.35500	         9.01170e+57
          1796.16130	         8.62242e+57
          1796.96760	         7.21975e+57
          1797.77390	         6.99168e+57
          1798.58020	         7.10728e+57
          1799.38650	         6.64983e+57
          1800.19280	         6.45746e+57
          1800.99910	         6.49013e+57
          1801.80540	         7.15346e+57
          1802.61170	         8.06653e+57
          1803.41800	         7.69808e+57
          1804.22430	         7.15636e+57
          1805.03060	         7.31067e+57
          1805.83690	         7.53065e+57
          1806.64320	         7.23322e+57
          1807.44950	         8.23653e+57
          1808.25580	         6.92107e+57
          1809.06210	         7.63199e+57
          1809.86840	         7.41566e+57
          1810.67470	         6.39265e+57
          1811.48100	         8.97736e+57
          1812.28730	         8.70808e+57
          1813.09360	         7.29964e+57
          1813.89990	         8.11124e+57
          1814.70620	         7.71102e+57
          1815.51250	         8.29340e+57
          1816.31880	         6.89431e+57
          1817.12510	         6.36032e+57
          1817.93140	         5.80689e+57
          1818.73770	         7.25646e+57
          1819.54400	         8.56086e+57
          1820.35030	         7.93196e+57
          1821.15660	         6.61394e+57
          1821.96290	         6.76083e+57
          1822.76920	         7.65690e+57
          1823.57550	         7.79207e+57
          1824.38180	         6.66388e+57
          1825.18810	         7.32651e+57
          1825.99440	         8.43317e+57
          1826.80070	         8.41516e+57
          1827.60700	         7.04189e+57
          1828.41330	         5.21172e+57
          1829.21960	         6.11905e+57
          1830.02590	         6.86132e+57
          1830.83220	         6.79202e+57
          1831.63850	         6.46522e+57
          1832.44480	         6.30036e+57
          1833.25110	         7.79573e+57
          1834.05740	         8.49679e+57
          1834.86370	         6.78878e+57
          1835.67000	         4.89890e+57
          1836.47630	         6.16833e+57
          1837.28260	         8.59495e+57
          1838.08890	         8.89515e+57
          1838.89520	         8.03531e+57
          1839.70150	         8.42439e+57
          1840.50780	         7.96723e+57
          1841.31410	         7.26739e+57
          1842.12040	         7.04218e+57
          1842.92670	         6.73633e+57
          1843.73300	         6.78687e+57
          1844.53930	         6.73800e+57
          1845.34560	         6.64919e+57
          1846.15190	         6.98974e+57
          1846.95820	         7.77812e+57
          1847.76450	         6.56213e+57
          1848.57080	         5.24308e+57
          1849.37710	         6.66733e+57
          1850.18340	         7.39966e+57
          1850.98970	         7.55292e+57
          1851.79600	         8.13572e+57
          1852.60230	         6.41024e+57
          1853.40860	         6.46931e+57
          1854.21490	         7.51460e+57
          1855.02120	         5.81796e+57
          1855.82750	         5.31015e+57
          1856.63380	         6.03363e+57
          1857.44010	         6.95110e+57
          1858.24640	         7.56434e+57
          1859.05270	         7.31706e+57
          1859.85900	         6.17118e+57
          1860.66530	         6.84976e+57
          1861.47160	         8.54695e+57
          1862.27790	         8.68978e+57
          1863.08420	         7.79402e+57
          1863.89050	         7.64176e+57
          1864.69680	         7.80148e+57
          1865.50310	         8.04553e+57
          1866.30940	         6.27640e+57
          1867.11570	         5.92365e+57
          1867.92200	         6.99301e+57
          1868.72830	         7.56299e+57
          1869.53460	         7.50987e+57
          1870.34090	         7.89432e+57
          1871.14720	         8.38931e+57
          1871.95350	         7.93637e+57
          1872.75980	         7.96636e+57
          1873.56610	         6.79013e+57
          1874.37240	         5.79667e+57
          1875.17870	         5.76023e+57
          1875.98500	         7.40172e+57
          1876.79130	         7.65726e+57
          1877.59760	         6.34283e+57
          1878.40390	         5.08765e+57
          1879.21020	         6.16631e+57
          1880.01650	         7.31918e+57
          1880.82280	         8.16689e+57
          1881.62910	         9.54223e+57
          1882.43540	         1.02150e+58
          1883.24170	         7.99889e+57
          1884.04800	         6.79719e+57
          1884.85430	         7.63301e+57
          1885.66060	         8.07185e+57
          1886.46690	         8.17261e+57
          1887.27320	         6.76688e+57
          1888.07950	         5.81695e+57
          1888.88580	         6.54216e+57
          1889.69210	         8.49975e+57
          1890.49840	         7.65657e+57
          1891.30470	         7.09890e+57
          1892.11100	         8.65880e+57
          1892.91730	         8.17225e+57
          1893.72360	         7.46595e+57
          1894.52990	         7.29373e+57
          1895.33620	         7.20982e+57
          1896.14250	         5.47913e+57
          1896.94880	         4.65584e+57
          1897.75510	         4.68368e+57
          1898.56140	         5.75708e+57
          1899.36770	         6.75079e+57
          1900.17400	         5.99863e+57
          1900.98030	         7.01524e+57
          1901.78660	         7.98828e+57
          1902.59290	         7.55497e+57
          1903.39920	         9.07083e+57
          1904.20550	         9.00120e+57
          1905.01180	         9.35954e+57
          1905.81810	         1.06944e+58
          1906.62440	         1.26906e+58
          1907.43070	         1.50807e+58
          1908.23700	         1.56319e+58
          1909.04330	         1.37375e+58
          1909.84960	         1.11247e+58
          1910.65590	         9.41717e+57
          1911.46220	         9.11609e+57
          1912.26850	         7.91617e+57
          1913.07480	         6.46746e+57
          1913.88110	         6.19151e+57
          1914.68740	         5.39888e+57
          1915.49370	         4.72735e+57
          1916.30000	         6.39980e+57
          1917.10630	         7.30261e+57
          1917.91260	         6.58179e+57
          1918.71890	         6.17743e+57
          1919.52520	         5.72637e+57
          1920.33150	         5.34871e+57
          1921.13780	         6.37579e+57
          1921.94410	         8.21713e+57
          1922.75040	         8.37617e+57
          1923.55670	         8.84598e+57
          1924.36300	         7.79322e+57
          1925.16930	         6.22288e+57
          1925.97560	         5.41171e+57
          1926.78190	         4.69765e+57
          1927.58820	         5.93900e+57
          1928.39450	         6.06525e+57
          1929.20080	         5.54802e+57
          1930.00710	         6.63969e+57
          1930.81340	         7.27996e+57
          1931.61970	         6.63684e+57
          1932.42600	         6.57124e+57
          1933.23230	         7.74312e+57
          1934.03860	         7.43587e+57
          1934.84490	         5.88291e+57
          1935.65120	         7.15182e+57
          1936.45750	         9.11316e+57
          1937.26380	         7.82015e+57
          1938.07010	         8.81722e+57
          1938.87640	         7.43487e+57
          1939.68270	         7.34096e+57
          1940.48900	         7.78514e+57
          1941.29530	         7.47684e+57
          1942.10160	         6.96167e+57
          1942.90790	         7.03735e+57
          1943.71420	         6.31998e+57
          1944.52050	         6.18869e+57
          1945.32680	         5.62070e+57
          1946.13310	         6.45745e+57
          1946.93940	         8.29764e+57
          1947.74570	         7.80192e+57
          1948.55200	         6.21021e+57
          1949.35830	         6.87407e+57
          1950.16460	         6.48209e+57
          1950.97090	         5.50756e+57
          1951.77720	         6.75813e+57
          1952.58350	         7.98711e+57
          1953.38980	         5.73106e+57
          1954.19610	         4.63484e+57
          1955.00240	         5.51188e+57
          1955.80870	         6.20822e+57
          1956.61500	         6.14228e+57
          1957.42130	         6.16668e+57
          1958.22760	         6.14450e+57
          1959.03390	         7.42961e+57
          1959.84020	         6.87464e+57
          1960.64650	         5.12334e+57
          1961.45280	         5.35875e+57
          1962.25910	         5.86076e+57
          1963.06540	         6.48836e+57
          1963.87170	         7.48952e+57
          1964.67800	         8.24057e+57
          1965.48430	         6.45794e+57
          1966.29060	         6.68997e+57
          1967.09690	         7.45892e+57
          1967.90320	         6.69454e+57
          1968.70950	         6.58737e+57
          1969.51580	         6.49318e+57
          1970.32210	         6.81641e+57
          1971.12840	         7.06022e+57
          1971.93470	         3.65932e+57
          1972.74100	         4.68013e+57
          1973.54730	         6.71775e+57
          1974.35360	         7.52872e+57
          1975.15990	         8.60728e+57
          1975.96620	         7.60478e+57
          1976.77250	         8.73009e+57
          1977.57880	         8.52033e+57
          1978.38510	         6.88414e+57
          1979.19140	         7.66678e+57
          1979.99770	         8.17827e+57
          1980.80400	         8.51021e+57
          1981.61030	         7.29469e+57
          1982.41660	         6.16360e+57
          1983.22290	         5.49227e+57
          1984.02920	         4.72686e+57
          1984.83550	         5.37024e+57
          1985.64180	         5.96475e+57
          1986.44810	         6.27148e+57
          1987.25440	         5.64530e+57
          1988.06070	         5.45908e+57
          1988.86700	         6.64313e+57
          1989.67330	         6.56198e+57
          1990.47960	         5.82099e+57
          1991.28590	         6.23845e+57
          1992.09220	         6.08305e+57
          1992.89850	         5.77255e+57
          1993.70480	         6.75576e+57
          1994.51110	         5.62696e+57
          1995.31740	         5.11868e+57
          1996.12370	         5.51297e+57
          1996.93000	         6.30784e+57
          1997.73630	         7.66340e+57
          1998.54260	         7.89232e+57
          1999.34890	         6.97487e+57
          2000.15520	         7.09458e+57
          2000.96150	         5.58375e+57
          2001.76780	         5.61206e+57
          2002.57410	         4.68854e+57
          2003.38040	         5.78095e+57
          2004.18670	         5.59292e+57
          2004.99300	         6.11335e+57
          2005.79930	         6.85083e+57
          2006.60560	         5.93699e+57
          2007.41190	         6.35799e+57
          2008.21820	         6.71212e+57
          2009.02450	         6.53258e+57
          2009.83080	         6.77022e+57
          2010.63710	         7.09785e+57
          2011.44340	         7.09597e+57
          2012.24970	         7.19358e+57
          2013.05600	         6.43579e+57
          2013.86230	         5.03965e+57
          2014.66860	         5.81117e+57
          2015.47490	         6.50362e+57
          2016.28120	         6.28336e+57
          2017.08750	         6.45920e+57
          2017.89380	         6.99861e+57
          2018.70010	         5.60961e+57
          2019.50640	         4.63173e+57
          2020.31270	         5.23958e+57
          2021.11900	         6.78673e+57
          2021.92530	         7.12295e+57
          2022.73160	         6.26697e+57
          2023.53790	         6.44517e+57
          2024.34420	         6.84811e+57
          2025.15050	         6.56415e+57
          2025.95680	         6.15244e+57
          2026.76310	         6.03703e+57
          2027.56940	         6.71372e+57
          2028.37570	         6.07279e+57
          2029.18200	         7.25701e+57
          2029.98830	         6.84024e+57
          2030.79460	         5.99029e+57
          2031.60090	         5.44040e+57
          2032.40720	         6.84659e+57
          2033.21350	         6.21568e+57
          2034.01980	         5.83303e+57
          2034.82610	         5.07249e+57
          2035.63240	         5.01700e+57
          2036.43870	         5.63643e+57
          2037.24500	         5.89112e+57
          2038.05130	         6.16781e+57
          2038.85760	         5.53435e+57
          2039.66390	         6.44460e+57
          2040.47020	         5.04894e+57
          2041.27650	         6.26138e+57
          2042.08280	         6.15933e+57
          2042.88910	         5.69027e+57
          2043.69540	         6.53430e+57
          2044.50170	         5.94829e+57
          2045.30800	         5.44244e+57
          2046.11430	         3.89349e+57
          2046.92060	         5.63281e+57
          2047.72690	         6.89254e+57
          2048.53320	         6.98469e+57
          2049.33950	         5.13273e+57
          2050.14580	         5.35103e+57
          2050.95210	         6.99086e+57
          2051.75840	         7.36073e+57
          2052.56470	         5.45741e+57
          2053.37100	         5.11783e+57
          2054.17730	         4.86000e+57
          2054.98360	         6.29781e+57
          2055.78990	         4.10608e+57
          2056.59620	         3.16274e+57
          2057.40250	         5.44737e+57
          2058.20880	         7.67468e+57
          2059.01510	         6.75638e+57
          2059.82140	         7.38409e+57
          2060.62770	         9.64086e+57
          2061.43400	         1.43902e+58
          2062.24030	         1.07170e+58
          2063.04660	         4.77036e+57
          2063.85290	         8.23851e+56
          2064.65920	        -2.62750e+57
          2065.46550	        -9.76856e+57
          2066.27180	        -8.61823e+57
          2067.07810	         2.23951e+57
          2067.88440	         3.81177e+57
          2068.69070	         5.43325e+57
          2069.49700	         5.93017e+57
          2070.30330	         3.11710e+57
          2071.10960	         4.59185e+57
          2071.91590	         5.94009e+57
          2072.72220	         5.46234e+57
          2073.52850	         5.40828e+57
          2074.33480	         4.57941e+57
          2075.14110	         4.69449e+57
          2075.94740	         4.36573e+57
          2076.75370	         5.59685e+57
          2077.56000	         5.27866e+57
          2078.36630	         5.25102e+57
          2079.17260	         5.34498e+57
          2079.97890	         6.05654e+57
          2080.78520	         5.42080e+57
          2081.59150	         4.69311e+57
          2082.39780	         3.98247e+57
          2083.20410	         3.61773e+57
          2084.01040	         2.96598e+57
          2084.81670	         4.68969e+57
          2085.62300	         4.52550e+57
          2086.42930	         3.98674e+57
          2087.23560	         4.37874e+57
          2088.04190	         4.70490e+57
          2088.84820	         4.05705e+57
          2089.65450	         3.59095e+57
          2090.46080	         3.11080e+57
          2091.26710	         4.36283e+57
          2092.07340	         4.34365e+57
          2092.87970	         3.50243e+57
          2093.68600	         1.98230e+57
          2094.49230	         2.19673e+57
          2095.29860	         2.48824e+57
          2096.10490	         1.28386e+57
          2096.91120	         1.66208e+57
          2097.71750	         9.95168e+56
          2098.52380	        -5.23407e+56
          2099.33010	         2.16061e+57
          2100.13640	         5.52827e+56
          2100.94270	         2.08848e+56
          2101.74900	         3.45100e+57
          2102.55530	         3.55531e+57
          2103.36160	         2.36752e+57
          2104.16790	         2.99408e+57
          2104.97420	         1.38156e+57
          2105.78050	        -6.87237e+56
          2106.58680	        -1.40631e+57
          2107.39310	        -2.91047e+57
          2108.19940	         8.33555e+56
          2109.00570	         1.78798e+57
          2109.81200	         8.31998e+55
          2110.61830	         8.76483e+56
          2111.42460	         6.63183e+56
          2112.23090	         1.48761e+57
          2113.03720	        -8.68520e+56
          2113.84350	        -2.58587e+57
          2114.64980	        -6.45852e+55
          2115.45610	        -2.23110e+57
          2116.26240	        -5.82669e+56
          2117.06870	         1.11110e+57
          2117.87500	        -7.84209e+56
          2118.68130	         4.87796e+56
          2119.48760	         8.45026e+56
          2120.29390	        -1.60800e+57
          2121.10020	        -6.46045e+57
          2121.90650	        -3.44989e+56
          2122.71280	         4.35572e+57
          2123.51910	         3.68722e+57
          2124.32540	        -2.17089e+57
          2125.13170	        -2.30214e+57
          2125.93800	         3.73175e+57
          2126.74430	         6.61028e+56
          2127.55060	        -5.15415e+57
          2128.35690	        -2.46055e+57
          2129.16320	        -6.03829e+57
          2129.96950	        -5.59876e+57
          2130.77580	        -3.61800e+57
          2131.58210	        -2.08525e+57
          2132.38840	         5.17746e+57
          2133.19470	        -1.82391e+57
          2134.00100	         2.75761e+57
          2134.80730	        -4.67782e+57
          2135.61360	         3.66228e+56
          2136.41990	         1.76659e+57
          2137.22620	         8.37772e+57
          2138.03250	         4.32038e+57
          2138.83880	        -7.11010e+57
          2139.64510	        -6.83984e+57
          2140.45140	        -1.26657e+57
          2141.25770	        -8.95986e+57
          2142.06400	        -3.08028e+57
          2142.87030	         7.53178e+57
          2143.67660	         1.20231e+58
          2144.48290	         8.71712e+57
          2145.28920	         5.68545e+57
          2146.09550	         5.57159e+57
          2146.90180	        -5.22659e+57
          2147.70810	        -6.61051e+57
          2148.51440	        -4.74176e+57
          2149.32070	        -1.30616e+58
          2150.12700	        -7.57521e+57
          2150.93330	         3.83584e+57
          2151.73960	         1.02294e+56
          2152.54590	        -3.93225e+57
          2153.35220	        -6.49875e+57
          2154.15850	        -5.91952e+57
          2154.96480	         6.75870e+57
          2155.77110	        -9.44396e+55
          2156.57740	        -2.09341e+58
          2157.38370	        -7.80514e+57
          2158.19000	        -4.04997e+57
          2158.99630	        -5.65366e+57
          2159.80260	        -5.53759e+57
          2160.60890	        -2.37979e+57
          2161.41520	        -3.48335e+57
          2162.22150	        -9.63048e+57
          2163.02780	        -8.79366e+57
          2163.83410	        -4.01286e+57
          2164.64040	        -8.48145e+57
          2165.44670	        -8.10356e+57
          2166.25300	        -7.67788e+57
          2167.05930	        -1.53825e+58
          2167.86560	        -9.15269e+57
          2168.67190	         4.92988e+56
          2169.47820	        -5.03827e+57
          2170.28450	        -1.13077e+58
          2171.09080	        -1.91968e+57
          2171.89710	         4.45770e+57
          2172.70340	        -7.34033e+57
          2173.50970	        -5.68755e+57
          2174.31600	        -2.09950e+57
          2175.12230	         1.15418e+57
          2175.92860	        -4.24215e+57
          2176.73490	        -8.60095e+57
          2177.54120	        -8.32073e+57
          2178.34750	        -1.44322e+57
          2179.15380	                 nan
          2179.96010	                 nan
          2180.76640	                 nan
          2181.57270	                 nan
          2182.37900	                 nan
          2183.18530	                 nan
          2183.99160	                 nan
          2184.79790	                 nan
          2185.60420	                 nan
          2186.41050	                 nan
          2187.21680	                 nan
          2188.02310	                 nan
          2188.82940	                 nan
          2189.63570	                 nan
          2190.44200	                 nan
          2191.24830	                 nan
          2192.05460	                 nan
          2192.86090	                 nan
          2193.66720	                 nan
          2194.47350	                 nan
          2195.27980	                 nan
          2196.08610	                 nan
          2196.89240	                 nan
          2197.69870	                 nan
          2198.50500	                 nan
          2199.31130	                 nan
          2200.11760	                 nan
          2200.92390	                 nan
          2201.73020	                 nan
          2202.53650	                 nan
          2203.34280	                 nan
          2204.14910	                 nan
          2204.95540	                 nan
          2205.76170	                 nan
          2206.56800	                 nan
          2207.37430	                 nan
          2208.18060	                 nan
          2208.98690	                 nan
          2209.79320	                 nan
          2210.59950	                 nan
          2211.40580	                 nan
          2212.21210	                 nan
          2213.01840	                 nan
          2213.82470	                 nan
          2214.63100	                 nan
          2215.43730	         0.00000e+00
