#sample_496_stacked_spectrum_rest_UV-bands_median_H-alpha_noDC.txt
#median Lum: 1.65471e+42
#Rest-frame wavelength (A) | Luminosity (erg/s/A)
#
          1110.00000	         0.00000e+00
          1110.80630	        -3.34852e+59
          1111.61260	         8.38994e+58
          1112.41890	         2.68983e+59
          1113.22520	         1.80164e+59
          1114.03150	        -3.49924e+58
          1114.83780	         7.38107e+58
          1115.64410	        -3.74757e+58
          1116.45040	         3.21995e+58
          1117.25670	        -8.10131e+58
          1118.06300	         1.97544e+58
          1118.86930	         7.66875e+58
          1119.67560	         4.87367e+58
          1120.48190	        -3.03665e+58
          1121.28820	        -1.41076e+59
          1122.09450	         3.07165e+58
          1122.90080	         3.80187e+58
          1123.70710	        -1.11221e+58
          1124.51340	         3.70151e+58
          1125.31970	        -4.11767e+58
          1126.12600	         6.69015e+57
          1126.93230	        -1.88470e+58
          1127.73860	        -4.25664e+58
          1128.54490	        -2.79428e+58
          1129.35120	        -6.54900e+57
          1130.15750	        -4.10772e+58
          1130.96380	        -2.45158e+58
          1131.77010	         5.43144e+58
          1132.57640	         6.34108e+58
          1133.38270	         5.10294e+58
          1134.18900	         4.31969e+58
          1134.99530	         3.09671e+58
          1135.80160	         2.86796e+58
          1136.60790	         2.29641e+58
          1137.41420	        -7.11009e+57
          1138.22050	         1.97368e+58
          1139.02680	         1.48626e+58
          1139.83310	         2.46350e+58
          1140.63940	         1.94570e+58
          1141.44570	        -1.56058e+58
          1142.25200	         7.80312e+57
          1143.05830	         4.12337e+58
          1143.86460	         3.54461e+58
          1144.67090	         3.17139e+58
          1145.47720	         3.00191e+58
          1146.28350	         1.85036e+58
          1147.08980	         9.71824e+57
          1147.89610	         2.22155e+57
          1148.70240	         1.63119e+58
          1149.50870	         2.90552e+58
          1150.31500	         1.41172e+58
          1151.12130	         1.18866e+58
          1151.92760	         4.19142e+57
          1152.73390	         5.78051e+57
          1153.54020	         6.60954e+57
          1154.34650	         2.04659e+58
          1155.15280	         2.60183e+58
          1155.95910	         1.03153e+58
          1156.76540	         8.91253e+57
          1157.57170	        -1.75512e+57
          1158.37800	        -1.24778e+58
          1159.18430	        -3.66159e+57
          1159.99060	         1.31175e+58
          1160.79690	         2.01831e+58
          1161.60320	         6.18783e+57
          1162.40950	         1.43003e+58
          1163.21580	         2.47913e+58
          1164.02210	         7.18130e+57
          1164.82840	         1.05459e+58
          1165.63470	         2.05597e+58
          1166.44100	         2.65021e+58
          1167.24730	         1.77999e+58
          1168.05360	         9.91909e+57
          1168.85990	         7.44957e+57
          1169.66620	         1.33818e+58
          1170.47250	         2.01023e+58
          1171.27880	         1.50584e+58
          1172.08510	         1.71151e+58
          1172.89140	         5.39898e+57
          1173.69770	         6.05468e+57
          1174.50400	         1.41514e+58
          1175.31030	         1.89749e+58
          1176.11660	         1.79257e+58
          1176.92290	         1.43410e+58
          1177.72920	         9.12026e+57
          1178.53550	         1.20891e+58
          1179.34180	         2.30967e+57
          1180.14810	         2.20564e+57
          1180.95440	         2.65866e+57
          1181.76070	         2.67680e+57
          1182.56700	         7.89493e+57
          1183.37330	         6.69548e+57
          1184.17960	         1.10150e+58
          1184.98590	         1.23999e+58
          1185.79220	         4.94418e+57
          1186.59850	         9.18187e+57
          1187.40480	         9.52658e+57
          1188.21110	         1.22422e+58
          1189.01740	         1.48240e+58
          1189.82370	         1.13895e+58
          1190.63000	         8.57684e+57
          1191.43630	         1.18611e+58
          1192.24260	         7.73057e+57
          1193.04890	         1.22344e+58
          1193.85520	         1.00892e+58
          1194.66150	         1.24499e+57
          1195.46780	         8.59282e+57
          1196.27410	         1.43319e+58
          1197.08040	         8.07497e+57
          1197.88670	         9.86620e+57
          1198.69300	         1.40137e+58
          1199.49930	         1.73640e+58
          1200.30560	         1.28525e+58
          1201.11190	         1.25494e+58
          1201.91820	         1.26577e+58
          1202.72450	         8.35433e+57
          1203.53080	         1.14791e+58
          1204.33710	         8.98710e+57
          1205.14340	         8.97408e+57
          1205.94970	         1.10860e+58
          1206.75600	         4.56837e+57
          1207.56230	         7.48186e+57
          1208.36860	         1.28822e+58
          1209.17490	         5.49668e+57
          1209.98120	         7.26493e+57
          1210.78750	         6.55342e+57
          1211.59380	         1.09942e+58
          1212.40010	         1.76395e+58
          1213.20640	         1.85574e+58
          1214.01270	         2.00958e+58
          1214.81900	         2.96814e+58
          1215.62530	         4.42402e+58
          1216.43160	         8.69890e+58
          1217.23790	         1.51245e+59
          1218.04420	         1.10945e+59
          1218.85050	         8.42411e+58
          1219.65680	         5.60090e+58
          1220.46310	         3.10572e+58
          1221.26940	         2.17961e+58
          1222.07570	         1.47770e+58
          1222.88200	         1.07306e+58
          1223.68830	         9.33403e+57
          1224.49460	         9.16162e+57
          1225.30090	         7.32042e+57
          1226.10720	         8.05572e+57
          1226.91350	         8.90014e+57
          1227.71980	         1.11268e+58
          1228.52610	         1.05080e+58
          1229.33240	         7.92085e+57
          1230.13870	         7.96833e+57
          1230.94500	         9.76145e+57
          1231.75130	         6.31914e+57
          1232.55760	         7.41455e+57
          1233.36390	         6.72295e+57
          1234.17020	         7.31351e+57
          1234.97650	         1.13333e+58
          1235.78280	         1.01380e+58
          1236.58910	         9.32433e+57
          1237.39540	         1.16687e+58
          1238.20170	         9.95645e+57
          1239.00800	         1.08345e+58
          1239.81430	         1.19669e+58
          1240.62060	         1.09073e+58
          1241.42690	         1.02917e+58
          1242.23320	         1.07279e+58
          1243.03950	         7.84306e+57
          1243.84580	         7.68677e+57
          1244.65210	         8.51716e+57
          1245.45840	         8.99188e+57
          1246.26470	         8.39953e+57
          1247.07100	         7.55431e+57
          1247.87730	         4.34101e+57
          1248.68360	         2.26637e+57
          1249.48990	         7.62882e+57
          1250.29620	         7.64515e+57
          1251.10250	         5.31604e+57
          1251.90880	         5.52382e+57
          1252.71510	         6.74967e+57
          1253.52140	         7.08517e+57
          1254.32770	         9.55031e+57
          1255.13400	         1.27220e+58
          1255.94030	         1.18335e+58
          1256.74660	         9.43896e+57
          1257.55290	         9.79105e+57
          1258.35920	         8.32534e+57
          1259.16550	         6.22068e+57
          1259.97180	         4.94644e+57
          1260.77810	         7.11178e+57
          1261.58440	         7.00110e+57
          1262.39070	         6.02748e+57
          1263.19700	         6.83169e+57
          1264.00330	         9.73487e+57
          1264.80960	         1.12138e+58
          1265.61590	         1.20510e+58
          1266.42220	         1.13884e+58
          1267.22850	         1.09411e+58
          1268.03480	         1.31097e+58
          1268.84110	         1.39337e+58
          1269.64740	         1.30003e+58
          1270.45370	         1.15071e+58
          1271.26000	         1.21342e+58
          1272.06630	         1.50696e+58
          1272.87260	         1.37010e+58
          1273.67890	         1.19276e+58
          1274.48520	         1.12210e+58
          1275.29150	         1.16649e+58
          1276.09780	         1.16052e+58
          1276.90410	         1.38713e+58
          1277.71040	         1.39383e+58
          1278.51670	         1.20007e+58
          1279.32300	         1.26643e+58
          1280.12930	         1.12921e+58
          1280.93560	         8.79166e+57
          1281.74190	         1.19109e+58
          1282.54820	         1.43556e+58
          1283.35450	         1.12687e+58
          1284.16080	         1.10292e+58
          1284.96710	         1.26963e+58
          1285.77340	         1.01474e+58
          1286.57970	         8.42328e+57
          1287.38600	         1.35577e+58
          1288.19230	         1.53855e+58
          1288.99860	         1.51322e+58
          1289.80490	         1.05503e+58
          1290.61120	         1.26775e+58
          1291.41750	         1.42238e+58
          1292.22380	         1.10499e+58
          1293.03010	         8.76538e+57
          1293.83640	         1.06072e+58
          1294.64270	         9.57160e+57
          1295.44900	         5.74674e+57
          1296.25530	         7.68667e+57
          1297.06160	         1.10695e+58
          1297.86790	         1.04119e+58
          1298.67420	         9.41242e+57
          1299.48050	         1.06611e+58
          1300.28680	         1.14996e+58
          1301.09310	         8.20873e+57
          1301.89940	         4.75601e+57
          1302.70570	         7.08279e+57
          1303.51200	         8.37597e+57
          1304.31830	         9.75625e+57
          1305.12460	         1.03276e+58
          1305.93090	         9.09153e+57
          1306.73720	         1.06015e+58
          1307.54350	         1.31916e+58
          1308.34980	         1.39816e+58
          1309.15610	         1.56309e+58
          1309.96240	         1.63950e+58
          1310.76870	         1.47544e+58
          1311.57500	         1.30728e+58
          1312.38130	         1.22219e+58
          1313.18760	         1.15548e+58
          1313.99390	         1.27804e+58
          1314.80020	         1.42566e+58
          1315.60650	         1.27275e+58
          1316.41280	         1.13245e+58
          1317.21910	         9.53475e+57
          1318.02540	         1.17337e+58
          1318.83170	         1.34342e+58
          1319.63800	         1.05143e+58
          1320.44430	         9.98438e+57
          1321.25060	         1.21618e+58
          1322.05690	         1.17317e+58
          1322.86320	         1.09715e+58
          1323.66950	         9.61174e+57
          1324.47580	         8.99922e+57
          1325.28210	         9.37490e+57
          1326.08840	         1.05743e+58
          1326.89470	         1.20616e+58
          1327.70100	         1.11397e+58
          1328.50730	         7.89327e+57
          1329.31360	         9.91718e+57
          1330.11990	         1.09263e+58
          1330.92620	         9.81738e+57
          1331.73250	         1.07047e+58
          1332.53880	         1.00274e+58
          1333.34510	         8.84763e+57
          1334.15140	         9.31949e+57
          1334.95770	         8.84903e+57
          1335.76400	         1.06863e+58
          1336.57030	         1.04807e+58
          1337.37660	         1.02340e+58
          1338.18290	         1.11373e+58
          1338.98920	         1.12115e+58
          1339.79550	         1.07031e+58
          1340.60180	         1.09637e+58
          1341.40810	         1.26625e+58
          1342.21440	         1.20747e+58
          1343.02070	         1.18266e+58
          1343.82700	         1.16906e+58
          1344.63330	         1.08083e+58
          1345.43960	         1.37881e+58
          1346.24590	         1.36642e+58
          1347.05220	         1.22576e+58
          1347.85850	         9.02947e+57
          1348.66480	         9.88117e+57
          1349.47110	         1.08171e+58
          1350.27740	         1.14444e+58
          1351.08370	         1.18021e+58
          1351.89000	         1.06091e+58
          1352.69630	         9.64795e+57
          1353.50260	         1.06077e+58
          1354.30890	         1.09445e+58
          1355.11520	         1.09084e+58
          1355.92150	         1.04928e+58
          1356.72780	         9.13640e+57
          1357.53410	         8.86750e+57
          1358.34040	         1.03550e+58
          1359.14670	         9.60827e+57
          1359.95300	         8.97071e+57
          1360.75930	         9.76956e+57
          1361.56560	         1.03271e+58
          1362.37190	         1.02750e+58
          1363.17820	         1.05651e+58
          1363.98450	         1.15261e+58
          1364.79080	         1.19303e+58
          1365.59710	         1.25421e+58
          1366.40340	         1.21250e+58
          1367.20970	         9.75839e+57
          1368.01600	         8.84509e+57
          1368.82230	         8.77638e+57
          1369.62860	         1.01786e+58
          1370.43490	         1.02729e+58
          1371.24120	         9.66891e+57
          1372.04750	         7.84052e+57
          1372.85380	         1.04614e+58
          1373.66010	         1.12233e+58
          1374.46640	         9.83614e+57
          1375.27270	         1.01960e+58
          1376.07900	         9.75056e+57
          1376.88530	         9.18255e+57
          1377.69160	         9.26591e+57
          1378.49790	         7.97880e+57
          1379.30420	         8.41829e+57
          1380.11050	         8.88111e+57
          1380.91680	         7.69676e+57
          1381.72310	         7.71440e+57
          1382.52940	         8.69843e+57
          1383.33570	         9.74563e+57
          1384.14200	         1.08139e+58
          1384.94830	         9.76781e+57
          1385.75460	         1.00473e+58
          1386.56090	         1.09631e+58
          1387.36720	         1.05620e+58
          1388.17350	         1.29824e+58
          1388.97980	         1.21956e+58
          1389.78610	         9.78914e+57
          1390.59240	         7.56738e+57
          1391.39870	         6.83381e+57
          1392.20500	         6.95094e+57
          1393.01130	         6.65549e+57
          1393.81760	         6.67523e+57
          1394.62390	         6.72022e+57
          1395.43020	         6.23179e+57
          1396.23650	         6.88922e+57
          1397.04280	         7.68752e+57
          1397.84910	         8.19210e+57
          1398.65540	         7.75112e+57
          1399.46170	         8.53848e+57
          1400.26800	         7.56770e+57
          1401.07430	         8.59073e+57
          1401.88060	         7.93863e+57
          1402.68690	         9.36608e+57
          1403.49320	         9.73651e+57
          1404.29950	         7.95206e+57
          1405.10580	         9.56193e+57
          1405.91210	         1.10303e+58
          1406.71840	         1.12178e+58
          1407.52470	         1.01935e+58
          1408.33100	         1.05421e+58
          1409.13730	         1.09170e+58
          1409.94360	         1.02099e+58
          1410.74990	         1.07946e+58
          1411.55620	         9.36036e+57
          1412.36250	         8.59286e+57
          1413.16880	         9.12553e+57
          1413.97510	         8.97184e+57
          1414.78140	         8.62091e+57
          1415.58770	         9.83310e+57
          1416.39400	         9.83091e+57
          1417.20030	         1.16783e+58
          1418.00660	         9.80375e+57
          1418.81290	         9.71277e+57
          1419.61920	         1.08663e+58
          1420.42550	         1.04160e+58
          1421.23180	         1.10228e+58
          1422.03810	         1.12940e+58
          1422.84440	         1.13122e+58
          1423.65070	         1.37462e+58
          1424.45700	         1.15411e+58
          1425.26330	         8.05011e+57
          1426.06960	         8.48678e+57
          1426.87590	         9.01959e+57
          1427.68220	         9.39517e+57
          1428.48850	         1.10861e+58
          1429.29480	         1.04025e+58
          1430.10110	         9.32395e+57
          1430.90740	         7.46904e+57
          1431.71370	         7.54392e+57
          1432.52000	         8.69675e+57
          1433.32630	         8.06148e+57
          1434.13260	         7.20766e+57
          1434.93890	         7.92715e+57
          1435.74520	         9.57446e+57
          1436.55150	         8.91302e+57
          1437.35780	         8.63025e+57
          1438.16410	         9.40855e+57
          1438.97040	         8.51643e+57
          1439.77670	         8.57816e+57
          1440.58300	         9.83297e+57
          1441.38930	         9.84932e+57
          1442.19560	         9.34672e+57
          1443.00190	         9.05965e+57
          1443.80820	         1.03186e+58
          1444.61450	         1.03825e+58
          1445.42080	         8.37190e+57
          1446.22710	         8.94393e+57
          1447.03340	         9.09588e+57
          1447.83970	         9.43096e+57
          1448.64600	         1.04740e+58
          1449.45230	         1.01538e+58
          1450.25860	         1.01375e+58
          1451.06490	         8.80931e+57
          1451.87120	         7.78066e+57
          1452.67750	         7.94777e+57
          1453.48380	         8.71438e+57
          1454.29010	         8.25411e+57
          1455.09640	         6.94166e+57
          1455.90270	         7.75058e+57
          1456.70900	         8.02412e+57
          1457.51530	         9.23545e+57
          1458.32160	         1.15192e+58
          1459.12790	         1.16129e+58
          1459.93420	         1.06118e+58
          1460.74050	         8.78055e+57
          1461.54680	         7.83871e+57
          1462.35310	         7.12851e+57
          1463.15940	         8.03378e+57
          1463.96570	         9.74034e+57
          1464.77200	         1.09073e+58
          1465.57830	         1.04853e+58
          1466.38460	         9.02636e+57
          1467.19090	         8.42220e+57
          1467.99720	         9.19698e+57
          1468.80350	         9.03797e+57
          1469.60980	         9.51799e+57
          1470.41610	         1.03264e+58
          1471.22240	         8.99956e+57
          1472.02870	         8.39596e+57
          1472.83500	         8.62209e+57
          1473.64130	         8.86260e+57
          1474.44760	         8.96945e+57
          1475.25390	         8.64166e+57
          1476.06020	         8.10498e+57
          1476.86650	         8.52303e+57
          1477.67280	         7.84714e+57
          1478.47910	         7.03463e+57
          1479.28540	         7.36993e+57
          1480.09170	         8.13930e+57
          1480.89800	         8.03561e+57
          1481.70430	         8.58997e+57
          1482.51060	         7.77569e+57
          1483.31690	         7.63379e+57
          1484.12320	         7.98338e+57
          1484.92950	         7.34686e+57
          1485.73580	         7.58431e+57
          1486.54210	         8.53156e+57
          1487.34840	         8.90924e+57
          1488.15470	         8.26012e+57
          1488.96100	         8.06177e+57
          1489.76730	         8.88119e+57
          1490.57360	         8.07986e+57
          1491.37990	         7.27461e+57
          1492.18620	         7.65262e+57
          1492.99250	         8.23541e+57
          1493.79880	         8.20987e+57
          1494.60510	         7.23777e+57
          1495.41140	         5.78276e+57
          1496.21770	         7.58072e+57
          1497.02400	         9.78411e+57
          1497.83030	         7.43519e+57
          1498.63660	         7.11265e+57
          1499.44290	         7.49255e+57
          1500.24920	         7.04282e+57
          1501.05550	         6.85615e+57
          1501.86180	         7.20353e+57
          1502.66810	         8.84228e+57
          1503.47440	         9.49235e+57
          1504.28070	         8.24032e+57
          1505.08700	         8.38023e+57
          1505.89330	         9.44328e+57
          1506.69960	         9.16999e+57
          1507.50590	         8.96161e+57
          1508.31220	         7.50827e+57
          1509.11850	         8.29253e+57
          1509.92480	         9.00868e+57
          1510.73110	         8.35485e+57
          1511.53740	         6.60187e+57
          1512.34370	         6.86348e+57
          1513.15000	         8.35200e+57
          1513.95630	         9.63891e+57
          1514.76260	         8.90411e+57
          1515.56890	         7.27148e+57
          1516.37520	         7.67278e+57
          1517.18150	         8.39493e+57
          1517.98780	         7.67867e+57
          1518.79410	         6.86985e+57
          1519.60040	         8.43295e+57
          1520.40670	         9.68435e+57
          1521.21300	         9.13439e+57
          1522.01930	         7.69681e+57
          1522.82560	         9.14624e+57
          1523.63190	         1.11837e+58
          1524.43820	         9.27035e+57
          1525.24450	         6.19903e+57
          1526.05080	         5.70195e+57
          1526.85710	         6.73736e+57
          1527.66340	         7.66071e+57
          1528.46970	         8.72391e+57
          1529.27600	         8.59891e+57
          1530.08230	         7.05656e+57
          1530.88860	         7.20322e+57
          1531.69490	         8.18869e+57
          1532.50120	         9.63513e+57
          1533.30750	         9.93845e+57
          1534.11380	         9.29450e+57
          1534.92010	         9.23025e+57
          1535.72640	         9.49146e+57
          1536.53270	         8.93839e+57
          1537.33900	         7.47956e+57
          1538.14530	         7.18752e+57
          1538.95160	         7.94850e+57
          1539.75790	         8.62325e+57
          1540.56420	         8.38901e+57
          1541.37050	         8.54971e+57
          1542.17680	         7.89783e+57
          1542.98310	         7.16898e+57
          1543.78940	         6.96109e+57
          1544.59570	         5.69957e+57
          1545.40200	         6.98780e+57
          1546.20830	         8.45932e+57
          1547.01460	         1.05565e+58
          1547.82090	         1.09490e+58
          1548.62720	         1.16442e+58
          1549.43350	         1.13649e+58
          1550.23980	         1.07922e+58
          1551.04610	         1.20738e+58
          1551.85240	         1.11072e+58
          1552.65870	         1.12625e+58
          1553.46500	         1.07584e+58
          1554.27130	         9.32241e+57
          1555.07760	         9.08705e+57
          1555.88390	         8.50869e+57
          1556.69020	         9.25164e+57
          1557.49650	         8.96449e+57
          1558.30280	         8.83026e+57
          1559.10910	         9.59384e+57
          1559.91540	         9.42505e+57
          1560.72170	         8.58452e+57
          1561.52800	         8.34616e+57
          1562.33430	         8.47385e+57
          1563.14060	         7.86759e+57
          1563.94690	         7.55218e+57
          1564.75320	         8.41919e+57
          1565.55950	         7.70238e+57
          1566.36580	         7.30614e+57
          1567.17210	         8.24030e+57
          1567.97840	         8.43153e+57
          1568.78470	         8.22015e+57
          1569.59100	         8.27300e+57
          1570.39730	         7.76832e+57
          1571.20360	         7.03487e+57
          1572.00990	         6.95884e+57
          1572.81620	         8.51746e+57
          1573.62250	         9.85634e+57
          1574.42880	         8.68876e+57
          1575.23510	         7.45143e+57
          1576.04140	         8.20759e+57
          1576.84770	         9.35029e+57
          1577.65400	         8.73415e+57
          1578.46030	         8.81884e+57
          1579.26660	         9.14030e+57
          1580.07290	         8.94451e+57
          1580.87920	         7.79166e+57
          1581.68550	         7.31099e+57
          1582.49180	         7.87414e+57
          1583.29810	         7.84630e+57
          1584.10440	         7.57572e+57
          1584.91070	         8.19789e+57
          1585.71700	         8.36521e+57
          1586.52330	         8.51310e+57
          1587.32960	         8.25216e+57
          1588.13590	         8.45760e+57
          1588.94220	         8.26081e+57
          1589.74850	         8.46640e+57
          1590.55480	         8.60601e+57
          1591.36110	         7.40025e+57
          1592.16740	         7.35288e+57
          1592.97370	         7.99654e+57
          1593.78000	         8.70541e+57
          1594.58630	         9.35603e+57
          1595.39260	         8.53646e+57
          1596.19890	         8.63178e+57
          1597.00520	         9.42867e+57
          1597.81150	         8.61979e+57
          1598.61780	         6.41426e+57
          1599.42410	         6.57076e+57
          1600.23040	         6.86789e+57
          1601.03670	         7.14935e+57
          1601.84300	         7.33403e+57
          1602.64930	         8.78055e+57
          1603.45560	         9.24537e+57
          1604.26190	         7.26310e+57
          1605.06820	         6.69008e+57
          1605.87450	         6.87943e+57
          1606.68080	         7.36459e+57
          1607.48710	         6.54751e+57
          1608.29340	         5.92761e+57
          1609.09970	         6.97719e+57
          1609.90600	         7.36388e+57
          1610.71230	         6.96686e+57
          1611.51860	         7.45969e+57
          1612.32490	         7.32199e+57
          1613.13120	         7.97130e+57
          1613.93750	         8.15319e+57
          1614.74380	         8.56827e+57
          1615.55010	         8.37201e+57
          1616.35640	         8.87898e+57
          1617.16270	         1.00985e+58
          1617.96900	         1.03016e+58
          1618.77530	         8.30162e+57
          1619.58160	         8.21922e+57
          1620.38790	         8.36152e+57
          1621.19420	         8.48685e+57
          1622.00050	         8.38675e+57
          1622.80680	         8.24763e+57
          1623.61310	         8.16210e+57
          1624.41940	         8.31941e+57
          1625.22570	         8.98750e+57
          1626.03200	         8.49100e+57
          1626.83830	         8.30992e+57
          1627.64460	         7.79370e+57
          1628.45090	         7.69844e+57
          1629.25720	         1.04671e+58
          1630.06350	         9.26862e+57
          1630.86980	         5.90035e+57
          1631.67610	         7.16601e+57
          1632.48240	         9.34561e+57
          1633.28870	         8.39316e+57
          1634.09500	         9.35164e+57
          1634.90130	         1.10040e+58
          1635.70760	         8.38960e+57
          1636.51390	         6.25690e+57
          1637.32020	         5.97300e+57
          1638.12650	         8.48635e+57
          1638.93280	         9.70509e+57
          1639.73910	         9.41847e+57
          1640.54540	         1.00524e+58
          1641.35170	         8.07948e+57
          1642.15800	         7.58495e+57
          1642.96430	         8.27195e+57
          1643.77060	         8.82602e+57
          1644.57690	         7.84680e+57
          1645.38320	         8.19639e+57
          1646.18950	         6.92674e+57
          1646.99580	         7.70676e+57
          1647.80210	         7.88645e+57
          1648.60840	         7.77606e+57
          1649.41470	         8.45557e+57
          1650.22100	         7.13402e+57
          1651.02730	         7.18759e+57
          1651.83360	         7.94300e+57
          1652.63990	         8.10118e+57
          1653.44620	         7.98552e+57
          1654.25250	         8.46855e+57
          1655.05880	         7.60564e+57
          1655.86510	         7.41609e+57
          1656.67140	         7.45932e+57
          1657.47770	         7.79505e+57
          1658.28400	         8.63877e+57
          1659.09030	         8.45328e+57
          1659.89660	         8.76572e+57
          1660.70290	         1.01678e+58
          1661.50920	         1.05613e+58
          1662.31550	         9.17175e+57
          1663.12180	         7.68927e+57
          1663.92810	         9.23659e+57
          1664.73440	         1.04863e+58
          1665.54070	         1.22735e+58
          1666.34700	         1.20082e+58
          1667.15330	         1.13621e+58
          1667.95960	         9.80447e+57
          1668.76590	         7.48987e+57
          1669.57220	         6.45678e+57
          1670.37850	         7.17272e+57
          1671.18480	         7.16307e+57
          1671.99110	         7.59637e+57
          1672.79740	         7.17418e+57
          1673.60370	         6.76006e+57
          1674.41000	         7.49914e+57
          1675.21630	         7.52114e+57
          1676.02260	         6.08168e+57
          1676.82890	         5.95796e+57
          1677.63520	         5.74610e+57
          1678.44150	         6.70365e+57
          1679.24780	         8.54749e+57
          1680.05410	         7.29791e+57
          1680.86040	         5.65630e+57
          1681.66670	         7.09901e+57
          1682.47300	         8.26472e+57
          1683.27930	         8.55086e+57
          1684.08560	         8.54211e+57
          1684.89190	         8.03368e+57
          1685.69820	         6.17849e+57
          1686.50450	         5.39474e+57
          1687.31080	         7.15390e+57
          1688.11710	         7.83477e+57
          1688.92340	         6.34761e+57
          1689.72970	         6.68456e+57
          1690.53600	         6.45779e+57
          1691.34230	         6.99546e+57
          1692.14860	         7.95423e+57
          1692.95490	         7.90175e+57
          1693.76120	         7.77079e+57
          1694.56750	         6.96721e+57
          1695.37380	         8.41675e+57
          1696.18010	         8.21000e+57
          1696.98640	         7.54576e+57
          1697.79270	         7.21820e+57
          1698.59900	         8.01361e+57
          1699.40530	         7.15463e+57
          1700.21160	         7.79604e+57
          1701.01790	         7.98791e+57
          1701.82420	         7.73854e+57
          1702.63050	         7.82375e+57
          1703.43680	         7.23338e+57
          1704.24310	         7.20436e+57
          1705.04940	         8.64600e+57
          1705.85570	         8.74098e+57
          1706.66200	         9.09991e+57
          1707.46830	         9.26593e+57
          1708.27460	         7.49883e+57
          1709.08090	         6.05648e+57
          1709.88720	         6.13920e+57
          1710.69350	         6.16441e+57
          1711.49980	         6.16608e+57
          1712.30610	         7.05653e+57
          1713.11240	         7.81803e+57
          1713.91870	         7.30630e+57
          1714.72500	         8.13027e+57
          1715.53130	         8.50566e+57
          1716.33760	         7.93727e+57
          1717.14390	         7.03401e+57
          1717.95020	         8.11538e+57
          1718.75650	         9.01862e+57
          1719.56280	         8.65098e+57
          1720.36910	         8.21685e+57
          1721.17540	         7.13185e+57
          1721.98170	         5.92935e+57
          1722.78800	         5.75097e+57
          1723.59430	         6.01938e+57
          1724.40060	         7.59274e+57
          1725.20690	         8.48268e+57
          1726.01320	         8.68789e+57
          1726.81950	         7.63021e+57
          1727.62580	         7.47194e+57
          1728.43210	         7.82412e+57
          1729.23840	         7.20025e+57
          1730.04470	         7.61022e+57
          1730.85100	         7.59923e+57
          1731.65730	         6.32819e+57
          1732.46360	         6.51333e+57
          1733.26990	         7.27765e+57
          1734.07620	         6.56446e+57
          1734.88250	         6.80981e+57
          1735.68880	         7.78105e+57
          1736.49510	         8.13298e+57
          1737.30140	         7.39109e+57
          1738.10770	         6.21857e+57
          1738.91400	         6.92796e+57
          1739.72030	         7.29253e+57
          1740.52660	         6.09231e+57
          1741.33290	         6.03100e+57
          1742.13920	         6.61432e+57
          1742.94550	         7.17459e+57
          1743.75180	         7.43234e+57
          1744.55810	         7.14445e+57
          1745.36440	         7.25401e+57
          1746.17070	         5.40566e+57
          1746.97700	         4.62579e+57
          1747.78330	         6.64294e+57
          1748.58960	         7.27956e+57
          1749.39590	         6.69561e+57
          1750.20220	         6.01396e+57
          1751.00850	         6.38908e+57
          1751.81480	         5.94853e+57
          1752.62110	         6.70232e+57
          1753.42740	         8.29228e+57
          1754.23370	         7.83582e+57
          1755.04000	         7.11547e+57
          1755.84630	         7.52270e+57
          1756.65260	         7.77548e+57
          1757.45890	         7.58820e+57
          1758.26520	         6.56868e+57
          1759.07150	         7.98598e+57
          1759.87780	         7.83397e+57
          1760.68410	         7.48418e+57
          1761.49040	         8.09791e+57
          1762.29670	         6.62575e+57
          1763.10300	         6.31697e+57
          1763.90930	         7.57092e+57
          1764.71560	         8.27654e+57
          1765.52190	         7.60596e+57
          1766.32820	         9.03790e+57
          1767.13450	         8.82620e+57
          1767.94080	         6.84273e+57
          1768.74710	         6.99811e+57
          1769.55340	         7.47038e+57
          1770.35970	         7.13626e+57
          1771.16600	         7.35136e+57
          1771.97230	         8.09739e+57
          1772.77860	         8.23784e+57
          1773.58490	         7.27755e+57
          1774.39120	         5.88659e+57
          1775.19750	         5.48959e+57
          1776.00380	         5.71829e+57
          1776.81010	         5.65633e+57
          1777.61640	         6.25535e+57
          1778.42270	         7.66835e+57
          1779.22900	         6.82638e+57
          1780.03530	         7.02707e+57
          1780.84160	         8.19246e+57
          1781.64790	         8.50303e+57
          1782.45420	         7.28143e+57
          1783.26050	         6.22532e+57
          1784.06680	         6.51463e+57
          1784.87310	         6.75749e+57
          1785.67940	         6.84718e+57
          1786.48570	         5.96586e+57
          1787.29200	         6.03147e+57
          1788.09830	         5.34825e+57
          1788.90460	         4.47112e+57
          1789.71090	         5.11231e+57
          1790.51720	         6.06876e+57
          1791.32350	         7.43466e+57
          1792.12980	         8.17775e+57
          1792.93610	         7.27560e+57
          1793.74240	         7.28651e+57
          1794.54870	         7.95454e+57
          1795.35500	         7.81943e+57
          1796.16130	         7.65417e+57
          1796.96760	         6.49400e+57
          1797.77390	         6.15210e+57
          1798.58020	         6.99929e+57
          1799.38650	         5.69568e+57
          1800.19280	         5.97725e+57
          1800.99910	         6.91530e+57
          1801.80540	         6.66009e+57
          1802.61170	         8.02800e+57
          1803.41800	         8.41802e+57
          1804.22430	         7.04162e+57
          1805.03060	         6.91739e+57
          1805.83690	         7.71840e+57
          1806.64320	         7.86029e+57
          1807.44950	         7.74099e+57
          1808.25580	         6.78595e+57
          1809.06210	         7.20258e+57
          1809.86840	         7.19457e+57
          1810.67470	         7.64882e+57
          1811.48100	         9.10714e+57
          1812.28730	         8.67513e+57
          1813.09360	         7.15040e+57
          1813.89990	         7.56356e+57
          1814.70620	         7.67262e+57
          1815.51250	         8.21157e+57
          1816.31880	         8.05555e+57
          1817.12510	         7.22081e+57
          1817.93140	         5.66114e+57
          1818.73770	         6.97143e+57
          1819.54400	         9.38020e+57
          1820.35030	         9.07314e+57
          1821.15660	         6.26144e+57
          1821.96290	         5.93975e+57
          1822.76920	         6.83112e+57
          1823.57550	         6.93557e+57
          1824.38180	         7.08389e+57
          1825.18810	         7.34805e+57
          1825.99440	         7.95983e+57
          1826.80070	         7.78595e+57
          1827.60700	         6.94939e+57
          1828.41330	         5.85283e+57
          1829.21960	         6.50025e+57
          1830.02590	         7.93772e+57
          1830.83220	         8.35399e+57
          1831.63850	         7.67707e+57
          1832.44480	         7.42316e+57
          1833.25110	         7.65927e+57
          1834.05740	         7.92565e+57
          1834.86370	         7.38188e+57
          1835.67000	         6.16844e+57
          1836.47630	         6.81847e+57
          1837.28260	         8.16310e+57
          1838.08890	         8.21775e+57
          1838.89520	         7.68130e+57
          1839.70150	         7.60798e+57
          1840.50780	         7.48453e+57
          1841.31410	         7.08859e+57
          1842.12040	         6.99636e+57
          1842.92670	         6.39931e+57
          1843.73300	         5.96120e+57
          1844.53930	         6.83232e+57
          1845.34560	         7.10192e+57
          1846.15190	         7.64121e+57
          1846.95820	         8.15816e+57
          1847.76450	         6.30308e+57
          1848.57080	         5.31787e+57
          1849.37710	         5.96739e+57
          1850.18340	         7.76670e+57
          1850.98970	         7.91939e+57
          1851.79600	         7.94697e+57
          1852.60230	         7.78330e+57
          1853.40860	         7.47120e+57
          1854.21490	         6.45920e+57
          1855.02120	         4.97405e+57
          1855.82750	         4.04927e+57
          1856.63380	         4.95769e+57
          1857.44010	         6.51502e+57
          1858.24640	         7.55167e+57
          1859.05270	         6.79074e+57
          1859.85900	         5.16783e+57
          1860.66530	         5.33903e+57
          1861.47160	         7.14802e+57
          1862.27790	         7.98278e+57
          1863.08420	         7.41664e+57
          1863.89050	         7.31166e+57
          1864.69680	         6.71906e+57
          1865.50310	         6.06355e+57
          1866.30940	         5.92419e+57
          1867.11570	         5.72608e+57
          1867.92200	         6.88335e+57
          1868.72830	         7.88572e+57
          1869.53460	         6.27839e+57
          1870.34090	         6.73092e+57
          1871.14720	         7.77732e+57
          1871.95350	         7.63499e+57
          1872.75980	         7.47893e+57
          1873.56610	         7.23476e+57
          1874.37240	         5.88291e+57
          1875.17870	         6.29746e+57
          1875.98500	         7.47665e+57
          1876.79130	         7.74295e+57
          1877.59760	         7.26778e+57
          1878.40390	         6.15958e+57
          1879.21020	         6.01781e+57
          1880.01650	         6.59234e+57
          1880.82280	         8.37569e+57
          1881.62910	         8.87511e+57
          1882.43540	         8.94301e+57
          1883.24170	         7.81322e+57
          1884.04800	         6.13676e+57
          1884.85430	         7.07563e+57
          1885.66060	         7.95824e+57
          1886.46690	         8.02484e+57
          1887.27320	         7.11969e+57
          1888.07950	         5.60147e+57
          1888.88580	         6.29009e+57
          1889.69210	         7.93145e+57
          1890.49840	         8.24765e+57
          1891.30470	         6.90306e+57
          1892.11100	         8.40435e+57
          1892.91730	         9.21906e+57
          1893.72360	         7.54138e+57
          1894.52990	         6.70483e+57
          1895.33620	         6.39897e+57
          1896.14250	         6.15794e+57
          1896.94880	         5.84376e+57
          1897.75510	         4.77202e+57
          1898.56140	         6.40035e+57
          1899.36770	         8.57156e+57
          1900.17400	         7.30389e+57
          1900.98030	         6.62963e+57
          1901.78660	         7.16560e+57
          1902.59290	         7.34769e+57
          1903.39920	         8.65030e+57
          1904.20550	         8.18372e+57
          1905.01180	         8.61835e+57
          1905.81810	         1.04548e+58
          1906.62440	         1.26798e+58
          1907.43070	         1.49664e+58
          1908.23700	         1.44838e+58
          1909.04330	         1.19985e+58
          1909.84960	         1.11245e+58
          1910.65590	         1.00594e+58
          1911.46220	         9.51625e+57
          1912.26850	         7.80011e+57
          1913.07480	         5.65532e+57
          1913.88110	         5.08754e+57
          1914.68740	         5.20672e+57
          1915.49370	         5.00904e+57
          1916.30000	         5.63721e+57
          1917.10630	         6.17665e+57
          1917.91260	         5.58881e+57
          1918.71890	         5.94653e+57
          1919.52520	         6.54258e+57
          1920.33150	         6.36116e+57
          1921.13780	         7.42304e+57
          1921.94410	         7.83978e+57
          1922.75040	         8.27420e+57
          1923.55670	         7.78140e+57
          1924.36300	         8.06001e+57
          1925.16930	         6.14710e+57
          1925.97560	         5.75236e+57
          1926.78190	         5.45160e+57
          1927.58820	         6.13602e+57
          1928.39450	         6.32711e+57
          1929.20080	         5.94965e+57
          1930.00710	         6.58521e+57
          1930.81340	         7.84199e+57
          1931.61970	         8.10484e+57
          1932.42600	         6.90392e+57
          1933.23230	         7.73852e+57
          1934.03860	         6.42526e+57
          1934.84490	         5.66246e+57
          1935.65120	         7.89066e+57
          1936.45750	         9.62999e+57
          1937.26380	         7.90981e+57
          1938.07010	         7.49893e+57
          1938.87640	         7.48662e+57
          1939.68270	         7.43096e+57
          1940.48900	         7.80875e+57
          1941.29530	         7.62235e+57
          1942.10160	         6.47353e+57
          1942.90790	         5.44087e+57
          1943.71420	         5.46152e+57
          1944.52050	         5.45389e+57
          1945.32680	         5.66604e+57
          1946.13310	         6.90320e+57
          1946.93940	         7.57925e+57
          1947.74570	         7.11702e+57
          1948.55200	         6.01649e+57
          1949.35830	         6.68054e+57
          1950.16460	         6.57014e+57
          1950.97090	         7.00812e+57
          1951.77720	         6.68556e+57
          1952.58350	         7.67047e+57
          1953.38980	         7.66525e+57
          1954.19610	         4.92555e+57
          1955.00240	         4.95248e+57
          1955.80870	         6.26040e+57
          1956.61500	         5.90902e+57
          1957.42130	         6.16587e+57
          1958.22760	         5.73891e+57
          1959.03390	         6.79321e+57
          1959.84020	         7.00389e+57
          1960.64650	         6.52838e+57
          1961.45280	         6.17006e+57
          1962.25910	         5.44117e+57
          1963.06540	         5.46324e+57
          1963.87170	         5.40592e+57
          1964.67800	         7.72319e+57
          1965.48430	         7.68733e+57
          1966.29060	         6.57066e+57
          1967.09690	         7.83427e+57
          1967.90320	         7.31251e+57
          1968.70950	         6.89181e+57
          1969.51580	         6.01345e+57
          1970.32210	         7.79082e+57
          1971.12840	         7.61953e+57
          1971.93470	         5.54745e+57
          1972.74100	         4.24826e+57
          1973.54730	         5.91293e+57
          1974.35360	         7.04238e+57
          1975.15990	         7.32769e+57
          1975.96620	         6.24170e+57
          1976.77250	         7.51821e+57
          1977.57880	         8.05408e+57
          1978.38510	         6.28472e+57
          1979.19140	         6.61365e+57
          1979.99770	         7.90129e+57
          1980.80400	         7.67096e+57
          1981.61030	         6.92354e+57
          1982.41660	         5.92251e+57
          1983.22290	         5.76545e+57
          1984.02920	         6.39129e+57
          1984.83550	         6.54962e+57
          1985.64180	         6.31731e+57
          1986.44810	         5.80671e+57
          1987.25440	         5.16196e+57
          1988.06070	         5.11623e+57
          1988.86700	         5.69180e+57
          1989.67330	         7.40788e+57
          1990.47960	         6.75052e+57
          1991.28590	         6.31781e+57
          1992.09220	         5.50028e+57
          1992.89850	         5.23051e+57
          1993.70480	         5.13520e+57
          1994.51110	         4.78227e+57
          1995.31740	         4.55935e+57
          1996.12370	         4.72296e+57
          1996.93000	         5.39646e+57
          1997.73630	         7.09045e+57
          1998.54260	         8.39940e+57
          1999.34890	         7.03783e+57
          2000.15520	         6.92958e+57
          2000.96150	         7.38052e+57
          2001.76780	         6.26731e+57
          2002.57410	         4.85736e+57
          2003.38040	         5.90609e+57
          2004.18670	         5.35314e+57
          2004.99300	         6.27139e+57
          2005.79930	         7.74352e+57
          2006.60560	         6.98353e+57
          2007.41190	         6.77562e+57
          2008.21820	         5.82542e+57
          2009.02450	         5.47744e+57
          2009.83080	         5.66948e+57
          2010.63710	         6.57200e+57
          2011.44340	         7.30828e+57
          2012.24970	         7.94836e+57
          2013.05600	         6.98269e+57
          2013.86230	         5.96024e+57
          2014.66860	         6.45599e+57
          2015.47490	         6.83048e+57
          2016.28120	         6.03027e+57
          2017.08750	         5.28510e+57
          2017.89380	         5.53705e+57
          2018.70010	         6.05602e+57
          2019.50640	         6.02053e+57
          2020.31270	         6.18984e+57
          2021.11900	         6.03999e+57
          2021.92530	         6.82366e+57
          2022.73160	         7.92520e+57
          2023.53790	         8.06033e+57
          2024.34420	         6.66568e+57
          2025.15050	         6.18976e+57
          2025.95680	         4.76186e+57
          2026.76310	         7.02375e+57
          2027.56940	         7.25982e+57
          2028.37570	         6.98235e+57
          2029.18200	         6.13691e+57
          2029.98830	         5.78468e+57
          2030.79460	         6.00311e+57
          2031.60090	         5.76683e+57
          2032.40720	         4.82711e+57
          2033.21350	         4.92151e+57
          2034.01980	         5.14668e+57
          2034.82610	         4.65296e+57
          2035.63240	         5.56191e+57
          2036.43870	         5.28528e+57
          2037.24500	         6.32028e+57
          2038.05130	         5.88478e+57
          2038.85760	         5.67181e+57
          2039.66390	         6.68746e+57
          2040.47020	         5.42583e+57
          2041.27650	         5.12507e+57
          2042.08280	         5.78873e+57
          2042.88910	         6.99308e+57
          2043.69540	         6.73670e+57
          2044.50170	         6.63030e+57
          2045.30800	         5.00753e+57
          2046.11430	         3.79520e+57
          2046.92060	         5.19355e+57
          2047.72690	         5.79182e+57
          2048.53320	         5.59569e+57
          2049.33950	         6.25744e+57
          2050.14580	         6.37898e+57
          2050.95210	         6.28649e+57
          2051.75840	         7.61855e+57
          2052.56470	         6.67357e+57
          2053.37100	         3.62602e+57
          2054.17730	         3.31853e+57
          2054.98360	         4.83942e+57
          2055.78990	         4.00855e+57
          2056.59620	         4.27661e+57
          2057.40250	         5.85107e+57
          2058.20880	         7.89840e+57
          2059.01510	         6.50063e+57
          2059.82140	         6.52091e+57
          2060.62770	         1.09454e+58
          2061.43400	         1.71582e+58
          2062.24030	         1.01907e+58
          2063.04660	         3.67697e+57
          2063.85290	        -6.89957e+56
          2064.65920	        -4.57293e+57
          2065.46550	        -7.81235e+57
          2066.27180	        -9.00149e+57
          2067.07810	         3.23318e+57
          2067.88440	         5.57718e+57
          2068.69070	         6.23731e+57
          2069.49700	         5.46168e+57
          2070.30330	         4.06526e+57
          2071.10960	         6.42889e+57
          2071.91590	         7.49913e+57
          2072.72220	         4.68576e+57
          2073.52850	         5.61386e+57
          2074.33480	         4.96416e+57
          2075.14110	         5.09493e+57
          2075.94740	         5.69756e+57
          2076.75370	         4.79449e+57
          2077.56000	         4.76592e+57
          2078.36630	         6.33611e+57
          2079.17260	         4.68042e+57
          2079.97890	         6.34052e+57
          2080.78520	         5.74211e+57
          2081.59150	         5.36376e+57
          2082.39780	         5.07814e+57
          2083.20410	         3.84187e+57
          2084.01040	         3.56858e+57
          2084.81670	         3.10797e+57
          2085.62300	         4.22954e+57
          2086.42930	         3.62100e+57
          2087.23560	         3.76833e+57
          2088.04190	         2.83846e+57
          2088.84820	         3.37438e+57
          2089.65450	         2.78987e+57
          2090.46080	         1.06373e+57
          2091.26710	         2.33395e+57
          2092.07340	         3.85159e+57
          2092.87970	         4.41922e+57
          2093.68600	         1.00404e+57
          2094.49230	         2.26277e+56
          2095.29860	         5.12785e+57
          2096.10490	         2.09396e+57
          2096.91120	         7.14759e+56
          2097.71750	        -1.07706e+56
          2098.52380	        -8.94456e+56
          2099.33010	         2.06123e+57
          2100.13640	         2.41064e+57
          2100.94270	         2.76421e+57
          2101.74900	         2.74291e+57
          2102.55530	         2.93877e+57
          2103.36160	         9.33938e+56
          2104.16790	         3.32586e+57
          2104.97420	         3.26580e+57
          2105.78050	         1.50042e+57
          2106.58680	         3.00711e+57
          2107.39310	        -1.21594e+57
          2108.19940	        -8.26732e+56
          2109.00570	        -1.09729e+57
          2109.81200	        -7.47152e+56
          2110.61830	         2.04892e+57
          2111.42460	        -1.63223e+56
          2112.23090	        -3.41721e+56
          2113.03720	         2.06060e+56
          2113.84350	         2.91429e+57
          2114.64980	         2.90512e+57
          2115.45610	        -4.45190e+56
          2116.26240	        -4.46822e+57
          2117.06870	         1.09719e+57
          2117.87500	         7.34457e+56
          2118.68130	        -2.01309e+57
          2119.48760	         4.63533e+57
          2120.29390	        -5.51345e+56
          2121.10020	        -4.88215e+57
          2121.90650	        -4.09544e+56
          2122.71280	         3.28210e+57
          2123.51910	         3.70571e+57
          2124.32540	        -3.86084e+56
          2125.13170	         3.51081e+57
          2125.93800	         2.75027e+57
          2126.74430	         3.12588e+55
          2127.55060	        -6.82917e+57
          2128.35690	        -5.14254e+57
          2129.16320	        -8.31057e+56
          2129.96950	        -6.72734e+56
          2130.77580	        -2.03735e+57
          2131.58210	         2.30174e+57
          2132.38840	        -2.36193e+57
          2133.19470	         2.85338e+57
          2134.00100	        -7.88174e+56
          2134.80730	        -5.18597e+57
          2135.61360	        -4.35541e+57
          2136.41990	        -5.18012e+57
          2137.22620	        -3.39081e+57
          2138.03250	         4.58259e+57
          2138.83880	        -8.05446e+57
          2139.64510	         1.64930e+57
          2140.45140	        -9.85008e+57
          2141.25770	        -1.51288e+58
          2142.06400	        -8.17282e+57
          2142.87030	         6.41418e+57
          2143.67660	         1.00902e+58
          2144.48290	         7.47996e+57
          2145.28920	         7.90644e+57
          2146.09550	        -8.68745e+57
          2146.90180	        -8.47801e+57
          2147.70810	        -1.12004e+58
          2148.51440	        -1.33264e+57
          2149.32070	         5.32691e+56
          2150.12700	        -1.06186e+58
          2150.93330	        -2.99613e+57
          2151.73960	         2.93205e+57
          2152.54590	        -2.06490e+57
          2153.35220	        -3.38255e+57
          2154.15850	        -3.36357e+57
          2154.96480	         3.40489e+57
          2155.77110	        -8.17618e+57
          2156.57740	        -9.82978e+57
          2157.38370	        -5.92178e+57
          2158.19000	        -2.37641e+57
          2158.99630	        -8.92069e+57
          2159.80260	        -1.70787e+58
          2160.60890	        -1.04410e+58
          2161.41520	         4.92131e+56
          2162.22150	         1.28221e+58
          2163.02780	         7.40494e+57
          2163.83410	        -4.42962e+57
          2164.64040	        -1.14122e+58
          2165.44670	        -1.66145e+58
          2166.25300	        -1.48507e+58
          2167.05930	        -1.02276e+58
          2167.86560	        -1.62971e+58
          2168.67190	        -1.13339e+58
          2169.47820	        -3.96931e+57
          2170.28450	        -3.87329e+57
          2171.09080	        -6.54922e+57
          2171.89710	        -3.65142e+57
          2172.70340	         3.57016e+57
          2173.50970	        -4.58324e+57
          2174.31600	        -2.20670e+57
          2175.12230	         1.84609e+57
          2175.92860	        -3.85634e+57
          2176.73490	        -7.02150e+57
          2177.54120	        -9.21947e+56
          2178.34750	         1.50219e+56
          2179.15380	                 nan
          2179.96010	                 nan
          2180.76640	                 nan
          2181.57270	                 nan
          2182.37900	                 nan
          2183.18530	                 nan
          2183.99160	                 nan
          2184.79790	                 nan
          2185.60420	                 nan
          2186.41050	                 nan
          2187.21680	                 nan
          2188.02310	                 nan
          2188.82940	                 nan
          2189.63570	                 nan
          2190.44200	                 nan
          2191.24830	                 nan
          2192.05460	                 nan
          2192.86090	                 nan
          2193.66720	                 nan
          2194.47350	                 nan
          2195.27980	                 nan
          2196.08610	                 nan
          2196.89240	                 nan
          2197.69870	                 nan
          2198.50500	                 nan
          2199.31130	                 nan
          2200.11760	                 nan
          2200.92390	                 nan
          2201.73020	                 nan
          2202.53650	                 nan
          2203.34280	                 nan
          2204.14910	                 nan
          2204.95540	                 nan
          2205.76170	                 nan
          2206.56800	                 nan
          2207.37430	                 nan
          2208.18060	                 nan
          2208.98690	                 nan
          2209.79320	                 nan
          2210.59950	                 nan
          2211.40580	                 nan
          2212.21210	                 nan
          2213.01840	                 nan
          2213.82470	                 nan
          2214.63100	                 nan
          2215.43730	         0.00000e+00
