#sample_143_stacked_spectrum_rest_UV-bands_median_H-alpha_noDC.txt
#median Lum: 1.68655e+42
#Rest-frame wavelength (A) | Luminosity (erg/s/A)
#
          1110.00000	         0.00000e+00
          1110.80630	         1.66434e+59
          1111.61260	        -3.53661e+58
          1112.41890	         6.95961e+58
          1113.22520	        -1.90102e+59
          1114.03150	        -1.26098e+59
          1114.83780	         1.98406e+59
          1115.64410	         1.40455e+59
          1116.45040	         2.71326e+59
          1117.25670	        -9.67459e+58
          1118.06300	         1.88902e+59
          1118.86930	         8.33702e+58
          1119.67560	         3.49673e+57
          1120.48190	        -2.60973e+57
          1121.28820	        -8.43068e+58
          1122.09450	        -7.84516e+57
          1122.90080	        -2.74617e+58
          1123.70710	         8.92378e+58
          1124.51340	         9.33889e+58
          1125.31970	         7.25999e+57
          1126.12600	        -1.33331e+58
          1126.93230	        -5.88253e+58
          1127.73860	        -4.77291e+58
          1128.54490	        -7.45926e+57
          1129.35120	         2.99921e+57
          1130.15750	        -2.12787e+58
          1130.96380	        -9.97592e+57
          1131.77010	         5.37405e+58
          1132.57640	         3.74656e+58
          1133.38270	         2.28661e+58
          1134.18900	         3.26360e+58
          1134.99530	         1.48507e+58
          1135.80160	        -6.34098e+57
          1136.60790	         6.75874e+57
          1137.41420	        -2.08538e+58
          1138.22050	         3.32521e+58
          1139.02680	         4.60012e+58
          1139.83310	         3.69951e+58
          1140.63940	         3.77299e+58
          1141.44570	        -2.96884e+58
          1142.25200	        -8.57024e+57
          1143.05830	         2.10549e+58
          1143.86460	         4.34037e+58
          1144.67090	         1.37328e+57
          1145.47720	         1.58789e+57
          1146.28350	         1.48519e+58
          1147.08980	         2.08176e+58
          1147.89610	         1.37972e+58
          1148.70240	         1.64593e+58
          1149.50870	         1.63220e+58
          1150.31500	         5.26094e+57
          1151.12130	         1.39416e+58
          1151.92760	         6.75837e+57
          1152.73390	         1.14308e+58
          1153.54020	         1.03296e+58
          1154.34650	         3.05190e+58
          1155.15280	         2.36511e+58
          1155.95910	         1.54138e+58
          1156.76540	         1.55376e+58
          1157.57170	         3.33898e+57
          1158.37800	         9.13173e+57
          1159.18430	         2.13678e+57
          1159.99060	         1.45627e+58
          1160.79690	         9.78398e+57
          1161.60320	         1.43574e+58
          1162.40950	         1.66712e+58
          1163.21580	         2.40642e+58
          1164.02210	         1.14027e+58
          1164.82840	         9.20076e+57
          1165.63470	         1.37881e+58
          1166.44100	         3.24881e+58
          1167.24730	         1.90466e+58
          1168.05360	         4.84846e+57
          1168.85990	         1.17501e+58
          1169.66620	         1.81025e+58
          1170.47250	         1.61046e+58
          1171.27880	         1.32052e+58
          1172.08510	         2.01487e+58
          1172.89140	         1.48381e+58
          1173.69770	         6.56619e+57
          1174.50400	         8.49199e+57
          1175.31030	         1.87832e+58
          1176.11660	         1.86740e+58
          1176.92290	         1.67764e+58
          1177.72920	         1.02280e+58
          1178.53550	         5.41711e+57
          1179.34180	         5.24404e+57
          1180.14810	         1.02204e+58
          1180.95440	         1.32216e+58
          1181.76070	         8.42415e+57
          1182.56700	         1.00202e+58
          1183.37330	         1.05680e+58
          1184.17960	         1.34590e+58
          1184.98590	         1.01875e+58
          1185.79220	         9.19965e+57
          1186.59850	         1.30299e+58
          1187.40480	         5.81074e+57
          1188.21110	         1.46116e+58
          1189.01740	         1.49884e+58
          1189.82370	         1.47119e+58
          1190.63000	         1.26779e+58
          1191.43630	         1.33236e+58
          1192.24260	         1.16116e+58
          1193.04890	         1.37425e+58
          1193.85520	         1.00971e+58
          1194.66150	         7.71873e+57
          1195.46780	         1.11113e+58
          1196.27410	         1.42540e+58
          1197.08040	         1.45106e+58
          1197.88670	         1.62730e+58
          1198.69300	         1.59980e+58
          1199.49930	         1.66562e+58
          1200.30560	         1.23078e+58
          1201.11190	         1.08103e+58
          1201.91820	         8.49648e+57
          1202.72450	         7.67244e+57
          1203.53080	         1.63393e+58
          1204.33710	         1.03734e+58
          1205.14340	         1.02853e+58
          1205.94970	         1.04074e+58
          1206.75600	         7.74358e+57
          1207.56230	         3.16271e+57
          1208.36860	         5.26268e+57
          1209.17490	         5.87693e+57
          1209.98120	         9.25760e+57
          1210.78750	         8.57401e+57
          1211.59380	         1.18495e+58
          1212.40010	         1.79181e+58
          1213.20640	         1.85546e+58
          1214.01270	         1.93107e+58
          1214.81900	         2.53130e+58
          1215.62530	         4.18211e+58
          1216.43160	         8.54577e+58
          1217.23790	         1.49323e+59
          1218.04420	         1.12276e+59
          1218.85050	         8.68308e+58
          1219.65680	         5.95088e+58
          1220.46310	         3.78614e+58
          1221.26940	         2.66615e+58
          1222.07570	         1.28630e+58
          1222.88200	         1.07178e+58
          1223.68830	         7.56006e+57
          1224.49460	         4.52926e+57
          1225.30090	         4.63646e+57
          1226.10720	         5.57939e+57
          1226.91350	         7.12892e+57
          1227.71980	         9.01934e+57
          1228.52610	         9.78106e+57
          1229.33240	         1.18317e+58
          1230.13870	         9.28239e+57
          1230.94500	         7.16813e+57
          1231.75130	         7.94516e+57
          1232.55760	         8.44530e+57
          1233.36390	         7.43424e+57
          1234.17020	         8.75456e+57
          1234.97650	         7.52398e+57
          1235.78280	         6.47952e+57
          1236.58910	         7.85195e+57
          1237.39540	         1.05930e+58
          1238.20170	         1.01637e+58
          1239.00800	         1.15391e+58
          1239.81430	         1.37962e+58
          1240.62060	         1.24372e+58
          1241.42690	         1.12391e+58
          1242.23320	         1.17705e+58
          1243.03950	         9.17557e+57
          1243.84580	         9.35231e+57
          1244.65210	         1.03303e+58
          1245.45840	         1.03613e+58
          1246.26470	         9.85478e+57
          1247.07100	         1.03077e+58
          1247.87730	         4.94536e+57
          1248.68360	         3.22353e+57
          1249.48990	         8.75324e+57
          1250.29620	         9.86574e+57
          1251.10250	         9.98682e+57
          1251.90880	         8.04801e+57
          1252.71510	         4.20216e+57
          1253.52140	         4.65313e+57
          1254.32770	         8.97592e+57
          1255.13400	         1.28865e+58
          1255.94030	         1.33106e+58
          1256.74660	         1.22782e+58
          1257.55290	         1.36004e+58
          1258.35920	         1.27818e+58
          1259.16550	         8.45532e+57
          1259.97180	         5.40066e+57
          1260.77810	         8.11061e+57
          1261.58440	         8.68403e+57
          1262.39070	         7.33441e+57
          1263.19700	         8.58792e+57
          1264.00330	         9.26639e+57
          1264.80960	         1.02794e+58
          1265.61590	         1.38419e+58
          1266.42220	         1.15470e+58
          1267.22850	         8.73915e+57
          1268.03480	         1.25761e+58
          1268.84110	         1.44926e+58
          1269.64740	         1.34190e+58
          1270.45370	         1.49861e+58
          1271.26000	         1.23795e+58
          1272.06630	         1.04960e+58
          1272.87260	         1.41731e+58
          1273.67890	         1.32712e+58
          1274.48520	         1.37173e+58
          1275.29150	         1.43745e+58
          1276.09780	         1.11782e+58
          1276.90410	         1.35033e+58
          1277.71040	         1.35716e+58
          1278.51670	         1.26855e+58
          1279.32300	         1.55528e+58
          1280.12930	         1.43313e+58
          1280.93560	         9.98100e+57
          1281.74190	         9.50088e+57
          1282.54820	         1.41968e+58
          1283.35450	         1.13907e+58
          1284.16080	         1.05831e+58
          1284.96710	         1.31564e+58
          1285.77340	         1.11618e+58
          1286.57970	         1.04504e+58
          1287.38600	         1.46651e+58
          1288.19230	         1.74483e+58
          1288.99860	         1.52208e+58
          1289.80490	         1.10133e+58
          1290.61120	         1.23140e+58
          1291.41750	         1.39203e+58
          1292.22380	         1.20774e+58
          1293.03010	         9.52282e+57
          1293.83640	         9.94570e+57
          1294.64270	         9.93294e+57
          1295.44900	         5.66644e+57
          1296.25530	         6.88186e+57
          1297.06160	         1.12123e+58
          1297.86790	         1.37170e+58
          1298.67420	         9.88022e+57
          1299.48050	         9.02279e+57
          1300.28680	         1.09069e+58
          1301.09310	         9.23323e+57
          1301.89940	         4.24946e+57
          1302.70570	         5.14473e+57
          1303.51200	         7.67967e+57
          1304.31830	         9.99422e+57
          1305.12460	         1.01830e+58
          1305.93090	         1.03168e+58
          1306.73720	         1.16475e+58
          1307.54350	         1.30974e+58
          1308.34980	         1.42150e+58
          1309.15610	         1.39896e+58
          1309.96240	         1.44655e+58
          1310.76870	         1.35550e+58
          1311.57500	         1.08032e+58
          1312.38130	         1.01595e+58
          1313.18760	         1.14821e+58
          1313.99390	         1.43232e+58
          1314.80020	         1.63571e+58
          1315.60650	         1.42681e+58
          1316.41280	         1.32300e+58
          1317.21910	         1.15573e+58
          1318.02540	         1.20702e+58
          1318.83170	         1.38479e+58
          1319.63800	         1.24815e+58
          1320.44430	         1.23571e+58
          1321.25060	         1.42359e+58
          1322.05690	         1.36235e+58
          1322.86320	         1.27547e+58
          1323.66950	         1.10272e+58
          1324.47580	         8.73589e+57
          1325.28210	         7.74317e+57
          1326.08840	         9.09255e+57
          1326.89470	         1.20835e+58
          1327.70100	         1.06008e+58
          1328.50730	         7.73419e+57
          1329.31360	         9.12081e+57
          1330.11990	         8.76635e+57
          1330.92620	         8.04480e+57
          1331.73250	         9.78727e+57
          1332.53880	         9.43123e+57
          1333.34510	         7.48004e+57
          1334.15140	         7.70086e+57
          1334.95770	         8.78872e+57
          1335.76400	         1.09564e+58
          1336.57030	         1.10917e+58
          1337.37660	         1.01768e+58
          1338.18290	         1.10001e+58
          1338.98920	         1.11237e+58
          1339.79550	         1.20832e+58
          1340.60180	         1.28285e+58
          1341.40810	         1.27116e+58
          1342.21440	         1.16465e+58
          1343.02070	         1.16242e+58
          1343.82700	         1.39787e+58
          1344.63330	         1.39658e+58
          1345.43960	         1.39937e+58
          1346.24590	         1.20710e+58
          1347.05220	         1.18911e+58
          1347.85850	         1.14170e+58
          1348.66480	         1.21866e+58
          1349.47110	         1.30502e+58
          1350.27740	         1.23975e+58
          1351.08370	         1.07817e+58
          1351.89000	         1.18292e+58
          1352.69630	         1.20371e+58
          1353.50260	         1.26668e+58
          1354.30890	         1.25966e+58
          1355.11520	         1.15538e+58
          1355.92150	         1.06432e+58
          1356.72780	         1.05332e+58
          1357.53410	         1.09639e+58
          1358.34040	         1.05539e+58
          1359.14670	         9.06301e+57
          1359.95300	         1.03639e+58
          1360.75930	         1.18919e+58
          1361.56560	         1.06888e+58
          1362.37190	         1.08030e+58
          1363.17820	         1.12439e+58
          1363.98450	         1.23701e+58
          1364.79080	         1.52095e+58
          1365.59710	         1.34548e+58
          1366.40340	         1.03498e+58
          1367.20970	         1.01518e+58
          1368.01600	         1.15745e+58
          1368.82230	         1.14719e+58
          1369.62860	         1.17911e+58
          1370.43490	         1.04390e+58
          1371.24120	         8.75354e+57
          1372.04750	         8.56455e+57
          1372.85380	         1.08623e+58
          1373.66010	         1.11150e+58
          1374.46640	         1.09184e+58
          1375.27270	         1.09885e+58
          1376.07900	         1.00102e+58
          1376.88530	         1.00394e+58
          1377.69160	         1.01899e+58
          1378.49790	         7.44071e+57
          1379.30420	         6.33553e+57
          1380.11050	         7.38894e+57
          1380.91680	         6.94635e+57
          1381.72310	         6.24481e+57
          1382.52940	         6.74336e+57
          1383.33570	         7.46718e+57
          1384.14200	         1.00324e+58
          1384.94830	         1.19811e+58
          1385.75460	         1.06490e+58
          1386.56090	         1.07763e+58
          1387.36720	         1.12144e+58
          1388.17350	         1.20147e+58
          1388.97980	         1.11585e+58
          1389.78610	         9.48451e+57
          1390.59240	         8.36118e+57
          1391.39870	         8.42148e+57
          1392.20500	         8.14121e+57
          1393.01130	         7.45625e+57
          1393.81760	         7.44193e+57
          1394.62390	         7.67423e+57
          1395.43020	         6.04970e+57
          1396.23650	         7.08757e+57
          1397.04280	         8.59040e+57
          1397.84910	         8.00218e+57
          1398.65540	         9.37677e+57
          1399.46170	         1.06494e+58
          1400.26800	         8.39926e+57
          1401.07430	         7.12669e+57
          1401.88060	         8.38559e+57
          1402.68690	         9.14795e+57
          1403.49320	         8.13095e+57
          1404.29950	         8.26490e+57
          1405.10580	         9.20327e+57
          1405.91210	         1.06515e+58
          1406.71840	         1.04460e+58
          1407.52470	         9.77855e+57
          1408.33100	         1.06367e+58
          1409.13730	         1.16381e+58
          1409.94360	         1.19375e+58
          1410.74990	         1.14596e+58
          1411.55620	         9.95614e+57
          1412.36250	         9.45577e+57
          1413.16880	         8.13174e+57
          1413.97510	         6.03273e+57
          1414.78140	         7.81771e+57
          1415.58770	         1.02991e+58
          1416.39400	         9.90803e+57
          1417.20030	         1.16767e+58
          1418.00660	         1.15471e+58
          1418.81290	         1.19049e+58
          1419.61920	         1.10756e+58
          1420.42550	         1.12661e+58
          1421.23180	         1.23784e+58
          1422.03810	         1.20566e+58
          1422.84440	         1.17009e+58
          1423.65070	         1.32135e+58
          1424.45700	         1.01650e+58
          1425.26330	         7.59936e+57
          1426.06960	         9.45859e+57
          1426.87590	         9.74659e+57
          1427.68220	         9.32542e+57
          1428.48850	         1.00078e+58
          1429.29480	         9.63328e+57
          1430.10110	         9.30917e+57
          1430.90740	         8.33632e+57
          1431.71370	         8.42376e+57
          1432.52000	         8.68248e+57
          1433.32630	         7.93166e+57
          1434.13260	         8.09526e+57
          1434.93890	         8.58916e+57
          1435.74520	         9.32527e+57
          1436.55150	         9.05539e+57
          1437.35780	         9.26255e+57
          1438.16410	         9.42927e+57
          1438.97040	         9.34501e+57
          1439.77670	         8.97012e+57
          1440.58300	         9.14663e+57
          1441.38930	         9.53453e+57
          1442.19560	         9.34151e+57
          1443.00190	         9.53139e+57
          1443.80820	         1.17121e+58
          1444.61450	         9.66989e+57
          1445.42080	         7.81301e+57
          1446.22710	         1.06576e+58
          1447.03340	         9.80732e+57
          1447.83970	         1.03448e+58
          1448.64600	         1.03775e+58
          1449.45230	         9.65068e+57
          1450.25860	         1.02417e+58
          1451.06490	         9.03755e+57
          1451.87120	         7.37259e+57
          1452.67750	         7.70881e+57
          1453.48380	         9.06620e+57
          1454.29010	         8.24998e+57
          1455.09640	         7.42625e+57
          1455.90270	         8.96365e+57
          1456.70900	         9.54891e+57
          1457.51530	         9.74145e+57
          1458.32160	         1.15134e+58
          1459.12790	         1.24593e+58
          1459.93420	         1.14098e+58
          1460.74050	         9.32753e+57
          1461.54680	         8.11203e+57
          1462.35310	         8.22878e+57
          1463.15940	         9.94816e+57
          1463.96570	         1.16835e+58
          1464.77200	         1.17792e+58
          1465.57830	         1.07206e+58
          1466.38460	         9.09687e+57
          1467.19090	         8.35903e+57
          1467.99720	         8.61155e+57
          1468.80350	         9.61703e+57
          1469.60980	         9.97863e+57
          1470.41610	         9.42645e+57
          1471.22240	         8.38875e+57
          1472.02870	         8.53839e+57
          1472.83500	         9.02253e+57
          1473.64130	         9.22266e+57
          1474.44760	         1.03570e+58
          1475.25390	         9.06091e+57
          1476.06020	         9.23405e+57
          1476.86650	         9.33966e+57
          1477.67280	         8.17116e+57
          1478.47910	         7.86889e+57
          1479.28540	         7.75862e+57
          1480.09170	         7.93159e+57
          1480.89800	         8.14607e+57
          1481.70430	         8.96857e+57
          1482.51060	         9.58777e+57
          1483.31690	         9.24340e+57
          1484.12320	         7.37101e+57
          1484.92950	         6.98035e+57
          1485.73580	         7.62852e+57
          1486.54210	         8.61905e+57
          1487.34840	         8.81084e+57
          1488.15470	         8.31886e+57
          1488.96100	         8.59110e+57
          1489.76730	         9.04826e+57
          1490.57360	         9.00627e+57
          1491.37990	         7.72857e+57
          1492.18620	         8.31644e+57
          1492.99250	         9.23404e+57
          1493.79880	         7.74768e+57
          1494.60510	         7.32995e+57
          1495.41140	         7.77912e+57
          1496.21770	         9.34569e+57
          1497.02400	         1.06341e+58
          1497.83030	         8.61265e+57
          1498.63660	         7.40826e+57
          1499.44290	         6.99703e+57
          1500.24920	         7.38348e+57
          1501.05550	         8.61375e+57
          1501.86180	         8.89624e+57
          1502.66810	         1.07541e+58
          1503.47440	         1.01088e+58
          1504.28070	         9.18605e+57
          1505.08700	         1.05606e+58
          1505.89330	         9.75417e+57
          1506.69960	         9.25380e+57
          1507.50590	         8.04122e+57
          1508.31220	         7.66487e+57
          1509.11850	         8.21387e+57
          1509.92480	         8.64266e+57
          1510.73110	         9.31490e+57
          1511.53740	         7.77535e+57
          1512.34370	         6.97594e+57
          1513.15000	         9.34998e+57
          1513.95630	         9.99258e+57
          1514.76260	         9.40963e+57
          1515.56890	         8.21952e+57
          1516.37520	         8.31151e+57
          1517.18150	         8.53273e+57
          1517.98780	         7.78739e+57
          1518.79410	         7.40094e+57
          1519.60040	         9.01970e+57
          1520.40670	         9.98734e+57
          1521.21300	         9.88949e+57
          1522.01930	         8.47812e+57
          1522.82560	         8.53729e+57
          1523.63190	         1.03744e+58
          1524.43820	         9.55435e+57
          1525.24450	         6.99249e+57
          1526.05080	         6.06370e+57
          1526.85710	         5.49378e+57
          1527.66340	         6.28207e+57
          1528.46970	         8.00693e+57
          1529.27600	         8.16443e+57
          1530.08230	         7.74562e+57
          1530.88860	         8.17907e+57
          1531.69490	         8.97313e+57
          1532.50120	         9.28430e+57
          1533.30750	         9.69116e+57
          1534.11380	         9.85245e+57
          1534.92010	         9.97412e+57
          1535.72640	         9.63135e+57
          1536.53270	         9.28920e+57
          1537.33900	         8.64828e+57
          1538.14530	         8.69682e+57
          1538.95160	         8.83750e+57
          1539.75790	         7.92584e+57
          1540.56420	         8.63697e+57
          1541.37050	         9.00771e+57
          1542.17680	         8.11818e+57
          1542.98310	         7.21173e+57
          1543.78940	         8.14882e+57
          1544.59570	         7.51526e+57
          1545.40200	         8.85137e+57
          1546.20830	         1.00320e+58
          1547.01460	         1.14984e+58
          1547.82090	         1.14335e+58
          1548.62720	         1.19005e+58
          1549.43350	         1.14777e+58
          1550.23980	         1.12743e+58
          1551.04610	         1.25105e+58
          1551.85240	         1.19395e+58
          1552.65870	         1.12838e+58
          1553.46500	         1.07948e+58
          1554.27130	         1.02726e+58
          1555.07760	         9.55573e+57
          1555.88390	         8.34910e+57
          1556.69020	         8.83414e+57
          1557.49650	         9.42601e+57
          1558.30280	         8.84372e+57
          1559.10910	         8.43289e+57
          1559.91540	         9.00613e+57
          1560.72170	         8.96150e+57
          1561.52800	         8.95475e+57
          1562.33430	         9.10713e+57
          1563.14060	         8.06464e+57
          1563.94690	         8.09565e+57
          1564.75320	         8.61725e+57
          1565.55950	         7.34725e+57
          1566.36580	         7.46931e+57
          1567.17210	         8.75123e+57
          1567.97840	         8.83768e+57
          1568.78470	         8.54809e+57
          1569.59100	         8.62311e+57
          1570.39730	         8.06352e+57
          1571.20360	         6.80537e+57
          1572.00990	         7.13281e+57
          1572.81620	         9.02454e+57
          1573.62250	         9.79331e+57
          1574.42880	         9.14052e+57
          1575.23510	         8.13398e+57
          1576.04140	         8.83096e+57
          1576.84770	         9.13634e+57
          1577.65400	         9.29131e+57
          1578.46030	         9.68699e+57
          1579.26660	         1.02208e+58
          1580.07290	         9.94215e+57
          1580.87920	         7.75411e+57
          1581.68550	         7.89848e+57
          1582.49180	         8.70686e+57
          1583.29810	         7.59472e+57
          1584.10440	         7.84479e+57
          1584.91070	         8.81635e+57
          1585.71700	         8.87689e+57
          1586.52330	         9.70497e+57
          1587.32960	         9.30991e+57
          1588.13590	         8.26822e+57
          1588.94220	         9.14559e+57
          1589.74850	         9.77936e+57
          1590.55480	         9.29945e+57
          1591.36110	         9.06376e+57
          1592.16740	         8.26334e+57
          1592.97370	         7.67556e+57
          1593.78000	         8.24957e+57
          1594.58630	         9.28284e+57
          1595.39260	         8.75761e+57
          1596.19890	         8.50914e+57
          1597.00520	         9.32691e+57
          1597.81150	         8.47744e+57
          1598.61780	         8.11192e+57
          1599.42410	         7.76978e+57
          1600.23040	         7.41479e+57
          1601.03670	         8.23277e+57
          1601.84300	         8.37146e+57
          1602.64930	         9.22365e+57
          1603.45560	         9.93379e+57
          1604.26190	         8.62285e+57
          1605.06820	         8.15479e+57
          1605.87450	         7.13737e+57
          1606.68080	         6.51657e+57
          1607.48710	         5.94999e+57
          1608.29340	         4.83021e+57
          1609.09970	         6.29547e+57
          1609.90600	         7.82610e+57
          1610.71230	         6.19283e+57
          1611.51860	         6.68072e+57
          1612.32490	         7.51773e+57
          1613.13120	         6.89407e+57
          1613.93750	         7.64587e+57
          1614.74380	         9.07109e+57
          1615.55010	         9.54354e+57
          1616.35640	         9.57039e+57
          1617.16270	         1.07432e+58
          1617.96900	         1.07094e+58
          1618.77530	         9.57685e+57
          1619.58160	         1.00414e+58
          1620.38790	         9.61823e+57
          1621.19420	         1.01260e+58
          1622.00050	         8.94531e+57
          1622.80680	         9.13425e+57
          1623.61310	         8.68619e+57
          1624.41940	         7.56029e+57
          1625.22570	         8.28667e+57
          1626.03200	         7.59123e+57
          1626.83830	         7.54765e+57
          1627.64460	         7.56230e+57
          1628.45090	         7.74110e+57
          1629.25720	         9.77513e+57
          1630.06350	         9.49745e+57
          1630.86980	         5.82574e+57
          1631.67610	         8.48055e+57
          1632.48240	         8.96679e+57
          1633.28870	         9.13900e+57
          1634.09500	         1.05756e+58
          1634.90130	         1.12314e+58
          1635.70760	         8.13298e+57
          1636.51390	         5.94291e+57
          1637.32020	         7.56464e+57
          1638.12650	         8.53622e+57
          1638.93280	         7.92242e+57
          1639.73910	         9.62160e+57
          1640.54540	         9.83151e+57
          1641.35170	         8.53824e+57
          1642.15800	         8.45169e+57
          1642.96430	         8.61804e+57
          1643.77060	         9.46948e+57
          1644.57690	         9.13909e+57
          1645.38320	         8.47153e+57
          1646.18950	         6.93110e+57
          1646.99580	         8.85385e+57
          1647.80210	         8.64550e+57
          1648.60840	         7.56544e+57
          1649.41470	         8.33146e+57
          1650.22100	         7.54841e+57
          1651.02730	         7.02072e+57
          1651.83360	         7.07974e+57
          1652.63990	         7.39725e+57
          1653.44620	         8.75312e+57
          1654.25250	         8.62492e+57
          1655.05880	         7.66987e+57
          1655.86510	         7.30089e+57
          1656.67140	         7.57835e+57
          1657.47770	         7.40943e+57
          1658.28400	         7.88005e+57
          1659.09030	         8.75767e+57
          1659.89660	         9.81600e+57
          1660.70290	         1.05946e+58
          1661.50920	         1.02900e+58
          1662.31550	         9.35672e+57
          1663.12180	         9.32755e+57
          1663.92810	         1.06912e+58
          1664.73440	         1.16818e+58
          1665.54070	         1.27740e+58
          1666.34700	         1.28982e+58
          1667.15330	         1.24265e+58
          1667.95960	         9.35796e+57
          1668.76590	         7.34660e+57
          1669.57220	         7.28758e+57
          1670.37850	         7.27853e+57
          1671.18480	         7.84764e+57
          1671.99110	         7.54599e+57
          1672.79740	         6.37517e+57
          1673.60370	         6.37484e+57
          1674.41000	         7.80494e+57
          1675.21630	         7.51463e+57
          1676.02260	         6.76782e+57
          1676.82890	         6.21178e+57
          1677.63520	         6.76177e+57
          1678.44150	         7.79186e+57
          1679.24780	         8.77650e+57
          1680.05410	         7.86506e+57
          1680.86040	         6.74078e+57
          1681.66670	         7.10700e+57
          1682.47300	         7.87761e+57
          1683.27930	         7.28165e+57
          1684.08560	         8.04710e+57
          1684.89190	         8.36967e+57
          1685.69820	         6.09679e+57
          1686.50450	         5.55068e+57
          1687.31080	         6.83967e+57
          1688.11710	         7.09034e+57
          1688.92340	         6.42357e+57
          1689.72970	         6.86984e+57
          1690.53600	         6.44117e+57
          1691.34230	         7.30237e+57
          1692.14860	         7.58058e+57
          1692.95490	         8.40868e+57
          1693.76120	         7.47968e+57
          1694.56750	         6.44352e+57
          1695.37380	         8.95677e+57
          1696.18010	         8.62915e+57
          1696.98640	         8.49575e+57
          1697.79270	         9.23241e+57
          1698.59900	         9.00275e+57
          1699.40530	         8.39521e+57
          1700.21160	         7.94426e+57
          1701.01790	         8.44256e+57
          1701.82420	         8.07497e+57
          1702.63050	         7.30762e+57
          1703.43680	         8.06979e+57
          1704.24310	         9.44506e+57
          1705.04940	         7.71159e+57
          1705.85570	         8.49405e+57
          1706.66200	         8.27852e+57
          1707.46830	         7.34574e+57
          1708.27460	         7.44667e+57
          1709.08090	         7.20083e+57
          1709.88720	         6.68283e+57
          1710.69350	         6.12553e+57
          1711.49980	         6.87045e+57
          1712.30610	         7.81740e+57
          1713.11240	         8.35457e+57
          1713.91870	         7.46517e+57
          1714.72500	         8.06716e+57
          1715.53130	         9.47229e+57
          1716.33760	         8.48370e+57
          1717.14390	         7.65863e+57
          1717.95020	         8.18305e+57
          1718.75650	         8.17261e+57
          1719.56280	         8.20717e+57
          1720.36910	         6.29357e+57
          1721.17540	         6.44981e+57
          1721.98170	         6.97377e+57
          1722.78800	         6.77804e+57
          1723.59430	         7.67312e+57
          1724.40060	         8.99108e+57
          1725.20690	         8.80288e+57
          1726.01320	         8.29759e+57
          1726.81950	         7.67330e+57
          1727.62580	         6.43110e+57
          1728.43210	         6.15590e+57
          1729.23840	         6.85112e+57
          1730.04470	         8.25953e+57
          1730.85100	         8.68415e+57
          1731.65730	         8.11339e+57
          1732.46360	         7.80906e+57
          1733.26990	         7.30069e+57
          1734.07620	         7.22892e+57
          1734.88250	         7.21337e+57
          1735.68880	         7.30779e+57
          1736.49510	         7.68185e+57
          1737.30140	         7.43137e+57
          1738.10770	         6.97918e+57
          1738.91400	         7.72637e+57
          1739.72030	         7.58567e+57
          1740.52660	         5.99054e+57
          1741.33290	         5.06825e+57
          1742.13920	         6.45593e+57
          1742.94550	         8.03924e+57
          1743.75180	         7.33785e+57
          1744.55810	         7.63179e+57
          1745.36440	         7.80822e+57
          1746.17070	         6.44943e+57
          1746.97700	         5.93998e+57
          1747.78330	         7.46169e+57
          1748.58960	         7.29517e+57
          1749.39590	         6.68419e+57
          1750.20220	         5.70602e+57
          1751.00850	         5.11670e+57
          1751.81480	         5.82381e+57
          1752.62110	         6.91887e+57
          1753.42740	         8.50979e+57
          1754.23370	         7.78634e+57
          1755.04000	         6.84479e+57
          1755.84630	         7.73189e+57
          1756.65260	         9.41039e+57
          1757.45890	         8.81848e+57
          1758.26520	         7.00301e+57
          1759.07150	         8.37159e+57
          1759.87780	         8.66389e+57
          1760.68410	         7.91307e+57
          1761.49040	         7.78358e+57
          1762.29670	         7.22741e+57
          1763.10300	         7.04098e+57
          1763.90930	         6.92644e+57
          1764.71560	         7.57595e+57
          1765.52190	         7.61746e+57
          1766.32820	         8.18865e+57
          1767.13450	         8.74714e+57
          1767.94080	         6.71330e+57
          1768.74710	         6.60165e+57
          1769.55340	         7.19909e+57
          1770.35970	         6.93222e+57
          1771.16600	         7.52548e+57
          1771.97230	         8.62266e+57
          1772.77860	         8.86699e+57
          1773.58490	         7.60877e+57
          1774.39120	         6.39173e+57
          1775.19750	         5.76867e+57
          1776.00380	         6.88061e+57
          1776.81010	         6.99895e+57
          1777.61640	         6.84514e+57
          1778.42270	         7.26967e+57
          1779.22900	         6.98749e+57
          1780.03530	         6.10952e+57
          1780.84160	         7.35321e+57
          1781.64790	         8.07870e+57
          1782.45420	         6.59230e+57
          1783.26050	         6.60895e+57
          1784.06680	         7.90803e+57
          1784.87310	         9.06279e+57
          1785.67940	         8.33905e+57
          1786.48570	         7.28385e+57
          1787.29200	         5.86889e+57
          1788.09830	         5.97400e+57
          1788.90460	         6.62240e+57
          1789.71090	         6.30067e+57
          1790.51720	         5.89549e+57
          1791.32350	         7.62528e+57
          1792.12980	         8.71777e+57
          1792.93610	         7.75540e+57
          1793.74240	         7.07736e+57
          1794.54870	         7.91093e+57
          1795.35500	         8.50478e+57
          1796.16130	         8.46966e+57
          1796.96760	         8.26590e+57
          1797.77390	         8.03610e+57
          1798.58020	         8.05076e+57
          1799.38650	         6.60132e+57
          1800.19280	         6.79726e+57
          1800.99910	         7.80661e+57
          1801.80540	         7.31820e+57
          1802.61170	         8.14752e+57
          1803.41800	         7.87560e+57
          1804.22430	         5.82836e+57
          1805.03060	         6.19951e+57
          1805.83690	         6.77190e+57
          1806.64320	         7.61268e+57
          1807.44950	         7.31515e+57
          1808.25580	         6.63734e+57
          1809.06210	         7.63466e+57
          1809.86840	         7.39189e+57
          1810.67470	         6.30750e+57
          1811.48100	         8.46176e+57
          1812.28730	         9.60822e+57
          1813.09360	         8.50356e+57
          1813.89990	         8.40226e+57
          1814.70620	         7.92582e+57
          1815.51250	         8.27303e+57
          1816.31880	         8.32070e+57
          1817.12510	         7.79256e+57
          1817.93140	         7.02378e+57
          1818.73770	         7.64168e+57
          1819.54400	         8.55225e+57
          1820.35030	         7.46165e+57
          1821.15660	         6.13060e+57
          1821.96290	         6.48201e+57
          1822.76920	         7.48710e+57
          1823.57550	         7.90636e+57
          1824.38180	         7.18834e+57
          1825.18810	         6.62376e+57
          1825.99440	         8.43568e+57
          1826.80070	         8.09106e+57
          1827.60700	         6.16855e+57
          1828.41330	         5.83131e+57
          1829.21960	         6.65940e+57
          1830.02590	         6.81544e+57
          1830.83220	         7.45670e+57
          1831.63850	         7.85181e+57
          1832.44480	         7.72455e+57
          1833.25110	         8.72317e+57
          1834.05740	         9.35162e+57
          1834.86370	         7.73712e+57
          1835.67000	         5.62543e+57
          1836.47630	         7.28632e+57
          1837.28260	         9.09767e+57
          1838.08890	         8.87890e+57
          1838.89520	         8.52931e+57
          1839.70150	         8.10846e+57
          1840.50780	         6.81906e+57
          1841.31410	         6.24966e+57
          1842.12040	         7.14707e+57
          1842.92670	         7.28523e+57
          1843.73300	         6.85597e+57
          1844.53930	         6.52589e+57
          1845.34560	         7.40378e+57
          1846.15190	         7.64118e+57
          1846.95820	         7.25120e+57
          1847.76450	         7.28492e+57
          1848.57080	         5.53378e+57
          1849.37710	         5.47256e+57
          1850.18340	         6.93617e+57
          1850.98970	         7.70649e+57
          1851.79600	         8.40151e+57
          1852.60230	         8.11486e+57
          1853.40860	         7.58656e+57
          1854.21490	         6.30490e+57
          1855.02120	         5.91588e+57
          1855.82750	         5.09608e+57
          1856.63380	         5.71675e+57
          1857.44010	         8.13869e+57
          1858.24640	         6.66588e+57
          1859.05270	         7.48150e+57
          1859.85900	         5.38859e+57
          1860.66530	         5.65229e+57
          1861.47160	         6.68582e+57
          1862.27790	         6.23502e+57
          1863.08420	         7.42316e+57
          1863.89050	         9.00180e+57
          1864.69680	         7.32965e+57
          1865.50310	         7.52531e+57
          1866.30940	         6.09666e+57
          1867.11570	         5.58034e+57
          1867.92200	         6.26336e+57
          1868.72830	         6.48059e+57
          1869.53460	         7.38146e+57
          1870.34090	         7.28026e+57
          1871.14720	         7.39512e+57
          1871.95350	         7.96570e+57
          1872.75980	         7.48558e+57
          1873.56610	         7.37659e+57
          1874.37240	         7.28870e+57
          1875.17870	         6.64945e+57
          1875.98500	         7.11460e+57
          1876.79130	         8.12864e+57
          1877.59760	         7.65598e+57
          1878.40390	         6.00871e+57
          1879.21020	         5.85446e+57
          1880.01650	         7.00347e+57
          1880.82280	         8.52016e+57
          1881.62910	         8.77847e+57
          1882.43540	         1.03857e+58
          1883.24170	         8.04488e+57
          1884.04800	         6.82204e+57
          1884.85430	         7.67495e+57
          1885.66060	         8.23805e+57
          1886.46690	         8.45979e+57
          1887.27320	         8.09717e+57
          1888.07950	         6.68358e+57
          1888.88580	         7.36257e+57
          1889.69210	         7.27137e+57
          1890.49840	         8.27289e+57
          1891.30470	         7.67221e+57
          1892.11100	         8.12679e+57
          1892.91730	         7.82774e+57
          1893.72360	         7.68953e+57
          1894.52990	         7.05968e+57
          1895.33620	         6.98405e+57
          1896.14250	         6.52364e+57
          1896.94880	         6.00879e+57
          1897.75510	         5.24765e+57
          1898.56140	         7.22622e+57
          1899.36770	         7.57292e+57
          1900.17400	         5.90470e+57
          1900.98030	         6.69153e+57
          1901.78660	         6.99396e+57
          1902.59290	         6.58368e+57
          1903.39920	         8.82430e+57
          1904.20550	         8.56416e+57
          1905.01180	         8.99278e+57
          1905.81810	         1.03213e+58
          1906.62440	         1.12370e+58
          1907.43070	         1.31281e+58
          1908.23700	         1.48780e+58
          1909.04330	         1.32596e+58
          1909.84960	         1.18758e+58
          1910.65590	         1.06368e+58
          1911.46220	         8.76308e+57
          1912.26850	         7.57551e+57
          1913.07480	         6.15542e+57
          1913.88110	         6.76787e+57
          1914.68740	         6.38375e+57
          1915.49370	         5.77107e+57
          1916.30000	         5.87564e+57
          1917.10630	         6.99928e+57
          1917.91260	         6.72449e+57
          1918.71890	         6.44935e+57
          1919.52520	         6.83341e+57
          1920.33150	         5.79255e+57
          1921.13780	         7.47516e+57
          1921.94410	         8.57800e+57
          1922.75040	         8.00557e+57
          1923.55670	         7.67662e+57
          1924.36300	         7.69796e+57
          1925.16930	         6.09190e+57
          1925.97560	         4.90954e+57
          1926.78190	         4.13279e+57
          1927.58820	         5.62446e+57
          1928.39450	         5.78575e+57
          1929.20080	         5.74667e+57
          1930.00710	         7.16172e+57
          1930.81340	         8.54895e+57
          1931.61970	         7.78159e+57
          1932.42600	         8.04726e+57
          1933.23230	         9.24734e+57
          1934.03860	         7.43195e+57
          1934.84490	         5.01708e+57
          1935.65120	         7.47573e+57
          1936.45750	         8.71907e+57
          1937.26380	         6.48401e+57
          1938.07010	         6.77741e+57
          1938.87640	         6.45825e+57
          1939.68270	         7.23575e+57
          1940.48900	         8.30242e+57
          1941.29530	         8.62061e+57
          1942.10160	         8.03512e+57
          1942.90790	         6.55613e+57
          1943.71420	         5.83508e+57
          1944.52050	         6.08896e+57
          1945.32680	         5.56693e+57
          1946.13310	         7.13182e+57
          1946.93940	         8.17101e+57
          1947.74570	         7.47931e+57
          1948.55200	         5.66825e+57
          1949.35830	         6.20114e+57
          1950.16460	         5.72222e+57
          1950.97090	         6.77507e+57
          1951.77720	         7.29514e+57
          1952.58350	         7.57835e+57
          1953.38980	         7.42482e+57
          1954.19610	         5.87690e+57
          1955.00240	         4.54255e+57
          1955.80870	         5.74148e+57
          1956.61500	         6.47759e+57
          1957.42130	         6.47776e+57
          1958.22760	         6.84852e+57
          1959.03390	         7.18275e+57
          1959.84020	         6.96165e+57
          1960.64650	         6.29602e+57
          1961.45280	         6.65006e+57
          1962.25910	         6.43310e+57
          1963.06540	         5.64549e+57
          1963.87170	         6.11571e+57
          1964.67800	         7.71503e+57
          1965.48430	         7.24875e+57
          1966.29060	         6.31778e+57
          1967.09690	         7.37194e+57
          1967.90320	         6.63886e+57
          1968.70950	         5.56978e+57
          1969.51580	         6.06584e+57
          1970.32210	         7.13151e+57
          1971.12840	         7.13785e+57
          1971.93470	         5.58546e+57
          1972.74100	         5.21403e+57
          1973.54730	         7.51300e+57
          1974.35360	         7.14133e+57
          1975.15990	         7.63978e+57
          1975.96620	         8.14253e+57
          1976.77250	         7.93604e+57
          1977.57880	         7.79563e+57
          1978.38510	         6.40056e+57
          1979.19140	         7.24078e+57
          1979.99770	         7.39851e+57
          1980.80400	         7.58750e+57
          1981.61030	         6.62870e+57
          1982.41660	         5.56108e+57
          1983.22290	         6.16121e+57
          1984.02920	         6.63550e+57
          1984.83550	         6.62375e+57
          1985.64180	         6.07445e+57
          1986.44810	         6.72256e+57
          1987.25440	         5.73263e+57
          1988.06070	         5.88790e+57
          1988.86700	         5.96392e+57
          1989.67330	         6.33121e+57
          1990.47960	         6.76582e+57
          1991.28590	         6.83306e+57
          1992.09220	         6.74336e+57
          1992.89850	         6.73838e+57
          1993.70480	         6.69059e+57
          1994.51110	         6.27973e+57
          1995.31740	         4.44860e+57
          1996.12370	         4.43570e+57
          1996.93000	         5.70222e+57
          1997.73630	         6.48573e+57
          1998.54260	         7.66366e+57
          1999.34890	         7.62033e+57
          2000.15520	         7.15261e+57
          2000.96150	         7.03385e+57
          2001.76780	         7.36691e+57
          2002.57410	         6.13601e+57
          2003.38040	         6.33376e+57
          2004.18670	         6.52437e+57
          2004.99300	         4.86017e+57
          2005.79930	         6.04640e+57
          2006.60560	         6.84447e+57
          2007.41190	         6.27989e+57
          2008.21820	         6.27891e+57
          2009.02450	         7.27954e+57
          2009.83080	         6.75558e+57
          2010.63710	         5.57803e+57
          2011.44340	         6.55010e+57
          2012.24970	         6.93580e+57
          2013.05600	         6.41091e+57
          2013.86230	         6.87346e+57
          2014.66860	         4.70831e+57
          2015.47490	         5.40338e+57
          2016.28120	         6.13796e+57
          2017.08750	         5.40082e+57
          2017.89380	         5.83953e+57
          2018.70010	         5.71340e+57
          2019.50640	         6.01173e+57
          2020.31270	         5.97872e+57
          2021.11900	         7.20216e+57
          2021.92530	         7.03965e+57
          2022.73160	         7.83569e+57
          2023.53790	         7.46051e+57
          2024.34420	         5.78576e+57
          2025.15050	         4.72771e+57
          2025.95680	         5.05560e+57
          2026.76310	         6.54398e+57
          2027.56940	         5.97631e+57
          2028.37570	         5.77556e+57
          2029.18200	         6.00039e+57
          2029.98830	         6.15349e+57
          2030.79460	         6.73418e+57
          2031.60090	         7.13876e+57
          2032.40720	         6.52258e+57
          2033.21350	         5.43251e+57
          2034.01980	         5.63298e+57
          2034.82610	         3.70468e+57
          2035.63240	         4.34975e+57
          2036.43870	         6.08663e+57
          2037.24500	         6.69957e+57
          2038.05130	         6.04546e+57
          2038.85760	         5.69044e+57
          2039.66390	         6.83161e+57
          2040.47020	         5.98470e+57
          2041.27650	         5.28998e+57
          2042.08280	         4.24919e+57
          2042.88910	         5.78771e+57
          2043.69540	         7.31495e+57
          2044.50170	         5.54118e+57
          2045.30800	         4.80602e+57
          2046.11430	         4.90491e+57
          2046.92060	         5.47614e+57
          2047.72690	         6.27223e+57
          2048.53320	         5.04466e+57
          2049.33950	         4.05125e+57
          2050.14580	         5.62360e+57
          2050.95210	         6.68543e+57
          2051.75840	         6.52815e+57
          2052.56470	         4.80726e+57
          2053.37100	         3.94679e+57
          2054.17730	         5.80944e+57
          2054.98360	         5.22947e+57
          2055.78990	         3.36796e+57
          2056.59620	         1.66650e+57
          2057.40250	         4.66437e+57
          2058.20880	         6.30957e+57
          2059.01510	         5.77930e+57
          2059.82140	         6.41220e+57
          2060.62770	         1.06296e+58
          2061.43400	         1.79744e+58
          2062.24030	         1.07159e+58
          2063.04660	         4.25178e+57
          2063.85290	         2.73998e+57
          2064.65920	        -4.77192e+57
          2065.46550	        -1.18698e+58
          2066.27180	        -8.00292e+57
          2067.07810	         2.97249e+57
          2067.88440	         3.63328e+57
          2068.69070	         5.89207e+57
          2069.49700	         6.20821e+57
          2070.30330	         5.47964e+57
          2071.10960	         4.98290e+57
          2071.91590	         5.53095e+57
          2072.72220	         2.11556e+57
          2073.52850	         4.37977e+57
          2074.33480	         5.40197e+57
          2075.14110	         5.07665e+57
          2075.94740	         5.50008e+57
          2076.75370	         5.61108e+57
          2077.56000	         5.37215e+57
          2078.36630	         5.93598e+57
          2079.17260	         4.88565e+57
          2079.97890	         5.30114e+57
          2080.78520	         7.70339e+57
          2081.59150	         4.75631e+57
          2082.39780	         5.26709e+57
          2083.20410	         4.46499e+57
          2084.01040	         3.37703e+57
          2084.81670	         4.72382e+57
          2085.62300	         3.85507e+57
          2086.42930	         3.49961e+57
          2087.23560	         3.49038e+57
          2088.04190	         4.22177e+57
          2088.84820	         4.10146e+57
          2089.65450	         1.65441e+57
          2090.46080	         9.85619e+56
          2091.26710	         2.37765e+57
          2092.07340	         3.35571e+57
          2092.87970	         3.27327e+57
          2093.68600	         5.01705e+56
          2094.49230	         1.67469e+57
          2095.29860	         4.26417e+57
          2096.10490	         4.11954e+57
          2096.91120	         1.30326e+57
          2097.71750	         2.13114e+57
          2098.52380	         1.09587e+57
          2099.33010	         1.78737e+57
          2100.13640	         2.23865e+57
          2100.94270	         3.78914e+57
          2101.74900	         3.31330e+57
          2102.55530	         1.76653e+57
          2103.36160	         2.33905e+57
          2104.16790	         3.17815e+57
          2104.97420	         2.51869e+57
          2105.78050	         8.94080e+56
          2106.58680	         4.24200e+56
          2107.39310	        -1.15501e+56
          2108.19940	         1.88845e+57
          2109.00570	         9.80608e+56
          2109.81200	        -5.21904e+56
          2110.61830	         1.76394e+57
          2111.42460	         2.39976e+57
          2112.23090	         1.24659e+57
          2113.03720	        -2.39462e+57
          2113.84350	        -1.82538e+57
          2114.64980	        -2.80450e+57
          2115.45610	        -2.21477e+57
          2116.26240	        -2.11293e+56
          2117.06870	         2.61084e+56
          2117.87500	        -1.50898e+57
          2118.68130	        -3.18437e+57
          2119.48760	         4.63719e+57
          2120.29390	         9.74712e+56
          2121.10020	        -3.79893e+57
          2121.90650	        -5.68994e+56
          2122.71280	         2.06203e+57
          2123.51910	         4.36438e+57
          2124.32540	         1.05667e+57
          2125.13170	        -2.67255e+57
          2125.93800	         6.93045e+57
          2126.74430	         3.78852e+57
          2127.55060	        -6.71476e+57
          2128.35690	        -4.07786e+57
          2129.16320	        -5.06415e+57
          2129.96950	        -4.12402e+57
          2130.77580	        -1.66288e+57
          2131.58210	         5.58823e+57
          2132.38840	         1.71642e+57
          2133.19470	        -3.85153e+57
          2134.00100	        -6.22643e+57
          2134.80730	        -5.44836e+57
          2135.61360	        -2.51655e+56
          2136.41990	         6.40720e+57
          2137.22620	        -2.77321e+57
          2138.03250	         2.25038e+57
          2138.83880	        -1.01310e+58
          2139.64510	         3.30835e+57
          2140.45140	         4.27668e+57
          2141.25770	        -4.05218e+57
          2142.06400	         1.21599e+56
          2142.87030	         9.07164e+57
          2143.67660	         1.20634e+58
          2144.48290	         1.44167e+58
          2145.28920	         5.03176e+57
          2146.09550	        -1.39380e+58
          2146.90180	        -1.00645e+58
          2147.70810	        -3.21321e+57
          2148.51440	        -5.44289e+57
          2149.32070	        -7.59428e+57
          2150.12700	        -1.92066e+58
          2150.93330	        -2.14827e+57
          2151.73960	        -6.16851e+57
          2152.54590	        -2.89744e+57
          2153.35220	        -2.65271e+55
          2154.15850	        -9.13872e+57
          2154.96480	         1.77640e+57
          2155.77110	        -1.97125e+56
          2156.57740	        -8.16257e+57
          2157.38370	        -4.27455e+57
          2158.19000	        -1.58002e+57
          2158.99630	        -8.68835e+57
          2159.80260	        -1.52330e+58
          2160.60890	        -5.57769e+57
          2161.41520	         2.27909e+57
          2162.22150	        -1.59453e+57
          2163.02780	        -4.50044e+57
          2163.83410	        -3.42745e+57
          2164.64040	        -5.47428e+57
          2165.44670	        -8.04469e+57
          2166.25300	         2.62949e+57
          2167.05930	         7.66672e+57
          2167.86560	        -1.44101e+58
          2168.67190	        -1.23150e+58
          2169.47820	        -1.16081e+58
          2170.28450	        -7.30110e+57
          2171.09080	         8.52571e+55
          2171.89710	         9.17735e+56
          2172.70340	         3.70796e+57
          2173.50970	        -4.96864e+57
          2174.31600	        -7.40895e+56
          2175.12230	        -2.97910e+57
          2175.92860	        -5.15637e+57
          2176.73490	        -9.45333e+57
          2177.54120	        -8.06290e+57
          2178.34750	        -4.08077e+57
          2179.15380	                 nan
          2179.96010	                 nan
          2180.76640	                 nan
          2181.57270	                 nan
          2182.37900	                 nan
          2183.18530	                 nan
          2183.99160	                 nan
          2184.79790	                 nan
          2185.60420	                 nan
          2186.41050	                 nan
          2187.21680	                 nan
          2188.02310	                 nan
          2188.82940	                 nan
          2189.63570	                 nan
          2190.44200	                 nan
          2191.24830	                 nan
          2192.05460	                 nan
          2192.86090	                 nan
          2193.66720	                 nan
          2194.47350	                 nan
          2195.27980	                 nan
          2196.08610	                 nan
          2196.89240	                 nan
          2197.69870	                 nan
          2198.50500	                 nan
          2199.31130	                 nan
          2200.11760	                 nan
          2200.92390	                 nan
          2201.73020	                 nan
          2202.53650	                 nan
          2203.34280	                 nan
          2204.14910	                 nan
          2204.95540	                 nan
          2205.76170	                 nan
          2206.56800	                 nan
          2207.37430	                 nan
          2208.18060	                 nan
          2208.98690	                 nan
          2209.79320	                 nan
          2210.59950	                 nan
          2211.40580	                 nan
          2212.21210	                 nan
          2213.01840	                 nan
          2213.82470	                 nan
          2214.63100	                 nan
          2215.43730	         0.00000e+00
