#sample_454_stacked_spectrum_rest_UV-bands_median_H-alpha_noDC.txt
#median Lum: 1.69991e+42
#Rest-frame wavelength (A) | Luminosity (erg/s/A)
#
          1110.00000	         0.00000e+00
          1110.80630	         2.56122e+59
          1111.61260	         4.55182e+59
          1112.41890	         2.20392e+59
          1113.22520	        -4.03400e+58
          1114.03150	        -1.54847e+59
          1114.83780	         1.20800e+59
          1115.64410	         1.79074e+59
          1116.45040	         1.58131e+59
          1117.25670	         1.15569e+59
          1118.06300	         1.75108e+59
          1118.86930	         1.01455e+59
          1119.67560	         1.02527e+59
          1120.48190	        -5.77389e+58
          1121.28820	        -1.63249e+59
          1122.09450	         1.64301e+58
          1122.90080	        -1.63795e+58
          1123.70710	         2.45692e+58
          1124.51340	         2.79690e+58
          1125.31970	        -1.63796e+58
          1126.12600	        -7.12620e+57
          1126.93230	        -4.66844e+58
          1127.73860	        -3.58693e+58
          1128.54490	         3.22321e+58
          1129.35120	         1.76564e+58
          1130.15750	        -2.95992e+58
          1130.96380	         5.16597e+57
          1131.77010	         6.25696e+58
          1132.57640	         1.71090e+58
          1133.38270	         2.59838e+58
          1134.18900	         3.48898e+58
          1134.99530	         2.48698e+58
          1135.80160	         2.51792e+58
          1136.60790	         6.23615e+57
          1137.41420	        -4.33688e+57
          1138.22050	         3.01717e+58
          1139.02680	         1.85862e+58
          1139.83310	         1.86931e+58
          1140.63940	         5.29989e+57
          1141.44570	        -2.74993e+58
          1142.25200	         1.84463e+57
          1143.05830	         6.76533e+57
          1143.86460	         8.91849e+57
          1144.67090	         6.05363e+57
          1145.47720	         1.64254e+58
          1146.28350	         1.90846e+58
          1147.08980	         1.22917e+58
          1147.89610	         1.19759e+58
          1148.70240	         1.90631e+58
          1149.50870	         3.32822e+58
          1150.31500	         1.82386e+58
          1151.12130	         1.23129e+58
          1151.92760	         1.76604e+58
          1152.73390	         6.05359e+57
          1153.54020	         8.59091e+57
          1154.34650	         2.63259e+58
          1155.15280	         2.71870e+58
          1155.95910	         9.54601e+57
          1156.76540	         9.36634e+57
          1157.57170	         9.14653e+57
          1158.37800	         2.52981e+57
          1159.18430	        -1.57130e+57
          1159.99060	         7.57698e+57
          1160.79690	         1.28123e+58
          1161.60320	         1.89776e+58
          1162.40950	         1.61579e+58
          1163.21580	         2.06612e+58
          1164.02210	         1.53615e+58
          1164.82840	         9.77970e+57
          1165.63470	         1.23432e+58
          1166.44100	         2.75953e+58
          1167.24730	         1.88715e+58
          1168.05360	         4.34912e+57
          1168.85990	         5.40181e+57
          1169.66620	         1.05146e+58
          1170.47250	         1.65085e+58
          1171.27880	         1.13475e+58
          1172.08510	         8.91563e+57
          1172.89140	         9.08902e+57
          1173.69770	         3.38615e+57
          1174.50400	         4.38183e+57
          1175.31030	         1.17914e+58
          1176.11660	         1.59574e+58
          1176.92290	         1.52810e+58
          1177.72920	         1.41447e+58
          1178.53550	         5.01354e+57
          1179.34180	         2.01687e+57
          1180.14810	         8.04262e+56
          1180.95440	         1.08079e+57
          1181.76070	         6.93237e+57
          1182.56700	         6.37392e+57
          1183.37330	         7.57667e+57
          1184.17960	         1.11214e+58
          1184.98590	         8.60956e+57
          1185.79220	         8.06910e+57
          1186.59850	         1.26510e+58
          1187.40480	         7.37076e+57
          1188.21110	         1.86263e+58
          1189.01740	         1.49144e+58
          1189.82370	         1.69848e+58
          1190.63000	         1.56492e+58
          1191.43630	         1.28174e+58
          1192.24260	         1.12898e+58
          1193.04890	         1.08076e+58
          1193.85520	         8.64015e+57
          1194.66150	        -7.00825e+56
          1195.46780	         4.98076e+57
          1196.27410	         1.05617e+58
          1197.08040	         8.90869e+57
          1197.88670	         1.06737e+58
          1198.69300	         1.26409e+58
          1199.49930	         1.61595e+58
          1200.30560	         1.49926e+58
          1201.11190	         1.35301e+58
          1201.91820	         1.02724e+58
          1202.72450	         7.56159e+57
          1203.53080	         1.64570e+58
          1204.33710	         1.14615e+58
          1205.14340	         8.72245e+57
          1205.94970	         7.08977e+57
          1206.75600	         4.74278e+57
          1207.56230	         2.93847e+57
          1208.36860	         9.22551e+57
          1209.17490	         7.57746e+57
          1209.98120	         1.13156e+58
          1210.78750	         7.43383e+57
          1211.59380	         7.92905e+57
          1212.40010	         1.61637e+58
          1213.20640	         2.14430e+58
          1214.01270	         1.96308e+58
          1214.81900	         2.49601e+58
          1215.62530	         4.32346e+58
          1216.43160	         8.71171e+58
          1217.23790	         1.49247e+59
          1218.04420	         1.18785e+59
          1218.85050	         9.04926e+58
          1219.65680	         5.85133e+58
          1220.46310	         3.50686e+58
          1221.26940	         1.87279e+58
          1222.07570	         8.86289e+57
          1222.88200	         6.95654e+57
          1223.68830	         6.07291e+57
          1224.49460	         8.27748e+57
          1225.30090	         7.62457e+57
          1226.10720	         5.69351e+57
          1226.91350	         6.31251e+57
          1227.71980	         8.07941e+57
          1228.52610	         8.96369e+57
          1229.33240	         8.46672e+57
          1230.13870	         8.40764e+57
          1230.94500	         8.10295e+57
          1231.75130	         7.11956e+57
          1232.55760	         7.23363e+57
          1233.36390	         9.80712e+57
          1234.17020	         8.62950e+57
          1234.97650	         9.91145e+57
          1235.78280	         1.07004e+58
          1236.58910	         1.03326e+58
          1237.39540	         1.11111e+58
          1238.20170	         9.95083e+57
          1239.00800	         1.09420e+58
          1239.81430	         1.37299e+58
          1240.62060	         1.15225e+58
          1241.42690	         1.11859e+58
          1242.23320	         1.32943e+58
          1243.03950	         6.58436e+57
          1243.84580	         5.39934e+57
          1244.65210	         9.22164e+57
          1245.45840	         1.14110e+58
          1246.26470	         8.74527e+57
          1247.07100	         5.00754e+57
          1247.87730	         2.36218e+57
          1248.68360	         1.84268e+57
          1249.48990	         9.07096e+57
          1250.29620	         1.33074e+58
          1251.10250	         6.70143e+57
          1251.90880	         1.30024e+57
          1252.71510	         5.05637e+57
          1253.52140	         8.23842e+57
          1254.32770	         9.58098e+57
          1255.13400	         1.37720e+58
          1255.94030	         9.98424e+57
          1256.74660	         9.49397e+57
          1257.55290	         1.05257e+58
          1258.35920	         7.48578e+57
          1259.16550	         5.72532e+57
          1259.97180	         3.54120e+57
          1260.77810	         6.76031e+57
          1261.58440	         1.07604e+58
          1262.39070	         9.01273e+57
          1263.19700	         8.75547e+57
          1264.00330	         8.99746e+57
          1264.80960	         1.04293e+58
          1265.61590	         1.20327e+58
          1266.42220	         1.37281e+58
          1267.22850	         1.24376e+58
          1268.03480	         1.44707e+58
          1268.84110	         1.53390e+58
          1269.64740	         1.50242e+58
          1270.45370	         1.45642e+58
          1271.26000	         1.01090e+58
          1272.06630	         1.03913e+58
          1272.87260	         1.39187e+58
          1273.67890	         1.39942e+58
          1274.48520	         1.20110e+58
          1275.29150	         1.24391e+58
          1276.09780	         1.22092e+58
          1276.90410	         1.50083e+58
          1277.71040	         1.46828e+58
          1278.51670	         1.28814e+58
          1279.32300	         1.30143e+58
          1280.12930	         1.28493e+58
          1280.93560	         1.32036e+58
          1281.74190	         1.27763e+58
          1282.54820	         1.19466e+58
          1283.35450	         1.08832e+58
          1284.16080	         1.08822e+58
          1284.96710	         1.28410e+58
          1285.77340	         1.04260e+58
          1286.57970	         1.13744e+58
          1287.38600	         1.50826e+58
          1288.19230	         1.69216e+58
          1288.99860	         1.41458e+58
          1289.80490	         8.75339e+57
          1290.61120	         1.13349e+58
          1291.41750	         1.31679e+58
          1292.22380	         1.08232e+58
          1293.03010	         1.03955e+58
          1293.83640	         1.24107e+58
          1294.64270	         1.13066e+58
          1295.44900	         6.94930e+57
          1296.25530	         7.93231e+57
          1297.06160	         9.30414e+57
          1297.86790	         9.98446e+57
          1298.67420	         8.88898e+57
          1299.48050	         8.16845e+57
          1300.28680	         1.00061e+58
          1301.09310	         7.73541e+57
          1301.89940	         3.33575e+57
          1302.70570	         5.53460e+57
          1303.51200	         6.94844e+57
          1304.31830	         1.08359e+58
          1305.12460	         1.22353e+58
          1305.93090	         1.14826e+58
          1306.73720	         1.23739e+58
          1307.54350	         1.44520e+58
          1308.34980	         1.49856e+58
          1309.15610	         1.46558e+58
          1309.96240	         1.37052e+58
          1310.76870	         1.23221e+58
          1311.57500	         1.08002e+58
          1312.38130	         9.56958e+57
          1313.18760	         1.19327e+58
          1313.99390	         1.47763e+58
          1314.80020	         1.67067e+58
          1315.60650	         1.58733e+58
          1316.41280	         1.19573e+58
          1317.21910	         9.31620e+57
          1318.02540	         1.01717e+58
          1318.83170	         1.25859e+58
          1319.63800	         1.13632e+58
          1320.44430	         1.06151e+58
          1321.25060	         1.22579e+58
          1322.05690	         1.26799e+58
          1322.86320	         1.15078e+58
          1323.66950	         1.12315e+58
          1324.47580	         9.82199e+57
          1325.28210	         9.43081e+57
          1326.08840	         1.20952e+58
          1326.89470	         1.29852e+58
          1327.70100	         1.01142e+58
          1328.50730	         8.62399e+57
          1329.31360	         1.09396e+58
          1330.11990	         1.11650e+58
          1330.92620	         9.55438e+57
          1331.73250	         1.17167e+58
          1332.53880	         1.08533e+58
          1333.34510	         1.00780e+58
          1334.15140	         8.41602e+57
          1334.95770	         8.13513e+57
          1335.76400	         1.01740e+58
          1336.57030	         1.02996e+58
          1337.37660	         9.91817e+57
          1338.18290	         1.17855e+58
          1338.98920	         1.32389e+58
          1339.79550	         1.28116e+58
          1340.60180	         1.22846e+58
          1341.40810	         1.43735e+58
          1342.21440	         1.25696e+58
          1343.02070	         1.08701e+58
          1343.82700	         1.16859e+58
          1344.63330	         1.28172e+58
          1345.43960	         1.41738e+58
          1346.24590	         1.14302e+58
          1347.05220	         1.12575e+58
          1347.85850	         1.11809e+58
          1348.66480	         1.25213e+58
          1349.47110	         1.35643e+58
          1350.27740	         1.12854e+58
          1351.08370	         1.09426e+58
          1351.89000	         1.20962e+58
          1352.69630	         1.30227e+58
          1353.50260	         1.19058e+58
          1354.30890	         1.21761e+58
          1355.11520	         1.15698e+58
          1355.92150	         9.78108e+57
          1356.72780	         1.04174e+58
          1357.53410	         1.10599e+58
          1358.34040	         1.04091e+58
          1359.14670	         9.12574e+57
          1359.95300	         9.73113e+57
          1360.75930	         1.17506e+58
          1361.56560	         1.24291e+58
          1362.37190	         1.28962e+58
          1363.17820	         1.18959e+58
          1363.98450	         1.13004e+58
          1364.79080	         1.31104e+58
          1365.59710	         1.21188e+58
          1366.40340	         1.10872e+58
          1367.20970	         1.07982e+58
          1368.01600	         9.29412e+57
          1368.82230	         8.54761e+57
          1369.62860	         1.03766e+58
          1370.43490	         1.10450e+58
          1371.24120	         1.08623e+58
          1372.04750	         9.24485e+57
          1372.85380	         9.98209e+57
          1373.66010	         1.11125e+58
          1374.46640	         1.15067e+58
          1375.27270	         1.14065e+58
          1376.07900	         9.55514e+57
          1376.88530	         8.76839e+57
          1377.69160	         7.87819e+57
          1378.49790	         7.32054e+57
          1379.30420	         7.95754e+57
          1380.11050	         9.31381e+57
          1380.91680	         9.85879e+57
          1381.72310	         9.69901e+57
          1382.52940	         9.24988e+57
          1383.33570	         1.00161e+58
          1384.14200	         9.93187e+57
          1384.94830	         9.67255e+57
          1385.75460	         1.00650e+58
          1386.56090	         1.06618e+58
          1387.36720	         1.12546e+58
          1388.17350	         1.27691e+58
          1388.97980	         1.01255e+58
          1389.78610	         9.17393e+57
          1390.59240	         8.62431e+57
          1391.39870	         7.36186e+57
          1392.20500	         8.01876e+57
          1393.01130	         9.67748e+57
          1393.81760	         8.30555e+57
          1394.62390	         6.89964e+57
          1395.43020	         5.98121e+57
          1396.23650	         6.08355e+57
          1397.04280	         7.27153e+57
          1397.84910	         8.12975e+57
          1398.65540	         8.91637e+57
          1399.46170	         8.71776e+57
          1400.26800	         6.66883e+57
          1401.07430	         6.75958e+57
          1401.88060	         7.68439e+57
          1402.68690	         7.43148e+57
          1403.49320	         9.07866e+57
          1404.29950	         8.54129e+57
          1405.10580	         9.40682e+57
          1405.91210	         9.75463e+57
          1406.71840	         1.06576e+58
          1407.52470	         1.14131e+58
          1408.33100	         1.01984e+58
          1409.13730	         1.07163e+58
          1409.94360	         1.19992e+58
          1410.74990	         1.13843e+58
          1411.55620	         1.08906e+58
          1412.36250	         1.03233e+58
          1413.16880	         8.28080e+57
          1413.97510	         7.44238e+57
          1414.78140	         8.75870e+57
          1415.58770	         9.59374e+57
          1416.39400	         1.03806e+58
          1417.20030	         1.13480e+58
          1418.00660	         1.05332e+58
          1418.81290	         1.05671e+58
          1419.61920	         1.07330e+58
          1420.42550	         1.24176e+58
          1421.23180	         1.42273e+58
          1422.03810	         1.29964e+58
          1422.84440	         9.63350e+57
          1423.65070	         1.15692e+58
          1424.45700	         1.06200e+58
          1425.26330	         7.86318e+57
          1426.06960	         8.95883e+57
          1426.87590	         9.96648e+57
          1427.68220	         1.12778e+58
          1428.48850	         1.25707e+58
          1429.29480	         1.14863e+58
          1430.10110	         9.53698e+57
          1430.90740	         8.62501e+57
          1431.71370	         9.49266e+57
          1432.52000	         8.74602e+57
          1433.32630	         7.06303e+57
          1434.13260	         8.10704e+57
          1434.93890	         8.48940e+57
          1435.74520	         9.06468e+57
          1436.55150	         1.08816e+58
          1437.35780	         9.88190e+57
          1438.16410	         8.67669e+57
          1438.97040	         8.71585e+57
          1439.77670	         8.77874e+57
          1440.58300	         9.87452e+57
          1441.38930	         9.93725e+57
          1442.19560	         9.12083e+57
          1443.00190	         8.86303e+57
          1443.80820	         9.29076e+57
          1444.61450	         9.33598e+57
          1445.42080	         8.90814e+57
          1446.22710	         9.52582e+57
          1447.03340	         9.02335e+57
          1447.83970	         1.03029e+58
          1448.64600	         1.11775e+58
          1449.45230	         1.02267e+58
          1450.25860	         1.06042e+58
          1451.06490	         9.01223e+57
          1451.87120	         7.82732e+57
          1452.67750	         7.87098e+57
          1453.48380	         8.56908e+57
          1454.29010	         8.74460e+57
          1455.09640	         8.55703e+57
          1455.90270	         9.33971e+57
          1456.70900	         9.31219e+57
          1457.51530	         9.51355e+57
          1458.32160	         1.10802e+58
          1459.12790	         1.03342e+58
          1459.93420	         9.36221e+57
          1460.74050	         7.52334e+57
          1461.54680	         7.79930e+57
          1462.35310	         7.28372e+57
          1463.15940	         8.35782e+57
          1463.96570	         1.01565e+58
          1464.77200	         1.14724e+58
          1465.57830	         1.05908e+58
          1466.38460	         8.97453e+57
          1467.19090	         8.08222e+57
          1467.99720	         8.57214e+57
          1468.80350	         8.99511e+57
          1469.60980	         8.53196e+57
          1470.41610	         1.00467e+58
          1471.22240	         1.01966e+58
          1472.02870	         9.52000e+57
          1472.83500	         8.76155e+57
          1473.64130	         9.98731e+57
          1474.44760	         1.01511e+58
          1475.25390	         8.62443e+57
          1476.06020	         8.27972e+57
          1476.86650	         9.05395e+57
          1477.67280	         8.09384e+57
          1478.47910	         6.76564e+57
          1479.28540	         6.89490e+57
          1480.09170	         8.24374e+57
          1480.89800	         8.58469e+57
          1481.70430	         9.30632e+57
          1482.51060	         8.43105e+57
          1483.31690	         7.40922e+57
          1484.12320	         8.40067e+57
          1484.92950	         8.01336e+57
          1485.73580	         7.97539e+57
          1486.54210	         8.43763e+57
          1487.34840	         7.85951e+57
          1488.15470	         8.68504e+57
          1488.96100	         8.94630e+57
          1489.76730	         8.40193e+57
          1490.57360	         8.33461e+57
          1491.37990	         7.55474e+57
          1492.18620	         8.35182e+57
          1492.99250	         9.20455e+57
          1493.79880	         8.72534e+57
          1494.60510	         8.92825e+57
          1495.41140	         8.24974e+57
          1496.21770	         8.31947e+57
          1497.02400	         1.01799e+58
          1497.83030	         8.75502e+57
          1498.63660	         6.40586e+57
          1499.44290	         6.02536e+57
          1500.24920	         7.59878e+57
          1501.05550	         8.56257e+57
          1501.86180	         9.36881e+57
          1502.66810	         1.01171e+58
          1503.47440	         9.11549e+57
          1504.28070	         8.01162e+57
          1505.08700	         8.99075e+57
          1505.89330	         9.14179e+57
          1506.69960	         8.62730e+57
          1507.50590	         8.01160e+57
          1508.31220	         7.75712e+57
          1509.11850	         9.17466e+57
          1509.92480	         1.06556e+58
          1510.73110	         1.04179e+58
          1511.53740	         8.12830e+57
          1512.34370	         7.30835e+57
          1513.15000	         9.22600e+57
          1513.95630	         1.10825e+58
          1514.76260	         9.55504e+57
          1515.56890	         8.81615e+57
          1516.37520	         9.30442e+57
          1517.18150	         9.19166e+57
          1517.98780	         8.24251e+57
          1518.79410	         8.31340e+57
          1519.60040	         7.81840e+57
          1520.40670	         8.61674e+57
          1521.21300	         9.42489e+57
          1522.01930	         8.16240e+57
          1522.82560	         8.95608e+57
          1523.63190	         1.05179e+58
          1524.43820	         8.53505e+57
          1525.24450	         6.40054e+57
          1526.05080	         5.74122e+57
          1526.85710	         6.32212e+57
          1527.66340	         7.04043e+57
          1528.46970	         8.39930e+57
          1529.27600	         7.65847e+57
          1530.08230	         7.31608e+57
          1530.88860	         7.71223e+57
          1531.69490	         8.25084e+57
          1532.50120	         8.37005e+57
          1533.30750	         9.44686e+57
          1534.11380	         9.81554e+57
          1534.92010	         9.06080e+57
          1535.72640	         9.03252e+57
          1536.53270	         8.94660e+57
          1537.33900	         7.36550e+57
          1538.14530	         8.34275e+57
          1538.95160	         9.43748e+57
          1539.75790	         9.52185e+57
          1540.56420	         8.69798e+57
          1541.37050	         7.76422e+57
          1542.17680	         6.98316e+57
          1542.98310	         6.35751e+57
          1543.78940	         8.00607e+57
          1544.59570	         7.47538e+57
          1545.40200	         7.32656e+57
          1546.20830	         8.56381e+57
          1547.01460	         1.02059e+58
          1547.82090	         1.10817e+58
          1548.62720	         1.18450e+58
          1549.43350	         1.17791e+58
          1550.23980	         1.12137e+58
          1551.04610	         1.22411e+58
          1551.85240	         1.26377e+58
          1552.65870	         1.17116e+58
          1553.46500	         9.63488e+57
          1554.27130	         9.13068e+57
          1555.07760	         9.48932e+57
          1555.88390	         8.55031e+57
          1556.69020	         9.85860e+57
          1557.49650	         8.66871e+57
          1558.30280	         8.04125e+57
          1559.10910	         9.42808e+57
          1559.91540	         9.10280e+57
          1560.72170	         8.47204e+57
          1561.52800	         8.95401e+57
          1562.33430	         7.73381e+57
          1563.14060	         7.15353e+57
          1563.94690	         8.16571e+57
          1564.75320	         7.85247e+57
          1565.55950	         7.05870e+57
          1566.36580	         7.75992e+57
          1567.17210	         9.05055e+57
          1567.97840	         8.61600e+57
          1568.78470	         7.88122e+57
          1569.59100	         8.92583e+57
          1570.39730	         8.27550e+57
          1571.20360	         7.83298e+57
          1572.00990	         7.78218e+57
          1572.81620	         9.06527e+57
          1573.62250	         1.02842e+58
          1574.42880	         8.53049e+57
          1575.23510	         7.12169e+57
          1576.04140	         7.91997e+57
          1576.84770	         8.78755e+57
          1577.65400	         8.96836e+57
          1578.46030	         9.04566e+57
          1579.26660	         9.81011e+57
          1580.07290	         9.02265e+57
          1580.87920	         7.88744e+57
          1581.68550	         7.69397e+57
          1582.49180	         8.24605e+57
          1583.29810	         8.44041e+57
          1584.10440	         8.40540e+57
          1584.91070	         8.19309e+57
          1585.71700	         8.26952e+57
          1586.52330	         8.51860e+57
          1587.32960	         8.13201e+57
          1588.13590	         8.47418e+57
          1588.94220	         8.55237e+57
          1589.74850	         8.63464e+57
          1590.55480	         8.18560e+57
          1591.36110	         8.45742e+57
          1592.16740	         8.28331e+57
          1592.97370	         8.18807e+57
          1593.78000	         8.66892e+57
          1594.58630	         9.33601e+57
          1595.39260	         8.09242e+57
          1596.19890	         8.15614e+57
          1597.00520	         9.27613e+57
          1597.81150	         9.28281e+57
          1598.61780	         8.03188e+57
          1599.42410	         7.28438e+57
          1600.23040	         6.87583e+57
          1601.03670	         7.33551e+57
          1601.84300	         8.35905e+57
          1602.64930	         8.45811e+57
          1603.45560	         8.27633e+57
          1604.26190	         7.76110e+57
          1605.06820	         8.00707e+57
          1605.87450	         7.66235e+57
          1606.68080	         7.49905e+57
          1607.48710	         6.24124e+57
          1608.29340	         5.20369e+57
          1609.09970	         6.42732e+57
          1609.90600	         7.98784e+57
          1610.71230	         6.60155e+57
          1611.51860	         6.68185e+57
          1612.32490	         7.04478e+57
          1613.13120	         8.12243e+57
          1613.93750	         8.24625e+57
          1614.74380	         9.08705e+57
          1615.55010	         9.62441e+57
          1616.35640	         9.58402e+57
          1617.16270	         1.00539e+58
          1617.96900	         1.07251e+58
          1618.77530	         9.77066e+57
          1619.58160	         9.08313e+57
          1620.38790	         8.69990e+57
          1621.19420	         8.65493e+57
          1622.00050	         7.98811e+57
          1622.80680	         8.98703e+57
          1623.61310	         9.48877e+57
          1624.41940	         8.27808e+57
          1625.22570	         8.48496e+57
          1626.03200	         8.92301e+57
          1626.83830	         7.85426e+57
          1627.64460	         7.90219e+57
          1628.45090	         7.26149e+57
          1629.25720	         8.32438e+57
          1630.06350	         8.29794e+57
          1630.86980	         4.82302e+57
          1631.67610	         5.90748e+57
          1632.48240	         8.09418e+57
          1633.28870	         7.31812e+57
          1634.09500	         8.89863e+57
          1634.90130	         1.10882e+58
          1635.70760	         9.61102e+57
          1636.51390	         7.11351e+57
          1637.32020	         6.37934e+57
          1638.12650	         8.22633e+57
          1638.93280	         9.89733e+57
          1639.73910	         9.82534e+57
          1640.54540	         9.53163e+57
          1641.35170	         7.77971e+57
          1642.15800	         9.07621e+57
          1642.96430	         8.69900e+57
          1643.77060	         7.97668e+57
          1644.57690	         7.60949e+57
          1645.38320	         7.10563e+57
          1646.18950	         6.29670e+57
          1646.99580	         8.10128e+57
          1647.80210	         7.92542e+57
          1648.60840	         6.42234e+57
          1649.41470	         7.82673e+57
          1650.22100	         7.61501e+57
          1651.02730	         7.04421e+57
          1651.83360	         7.15573e+57
          1652.63990	         7.53543e+57
          1653.44620	         8.44855e+57
          1654.25250	         8.00182e+57
          1655.05880	         7.27496e+57
          1655.86510	         7.15090e+57
          1656.67140	         6.84582e+57
          1657.47770	         7.31226e+57
          1658.28400	         8.21811e+57
          1659.09030	         8.68791e+57
          1659.89660	         9.99028e+57
          1660.70290	         9.32485e+57
          1661.50920	         9.14379e+57
          1662.31550	         9.03800e+57
          1663.12180	         7.72423e+57
          1663.92810	         8.95806e+57
          1664.73440	         1.14551e+58
          1665.54070	         1.18936e+58
          1666.34700	         1.23218e+58
          1667.15330	         1.10268e+58
          1667.95960	         8.23708e+57
          1668.76590	         7.15137e+57
          1669.57220	         6.33156e+57
          1670.37850	         6.45859e+57
          1671.18480	         7.19254e+57
          1671.99110	         7.62750e+57
          1672.79740	         6.49440e+57
          1673.60370	         6.25773e+57
          1674.41000	         7.34986e+57
          1675.21630	         7.16980e+57
          1676.02260	         6.48555e+57
          1676.82890	         6.88830e+57
          1677.63520	         6.51732e+57
          1678.44150	         6.99970e+57
          1679.24780	         8.75224e+57
          1680.05410	         7.44906e+57
          1680.86040	         6.57884e+57
          1681.66670	         8.15493e+57
          1682.47300	         8.46139e+57
          1683.27930	         8.58007e+57
          1684.08560	         8.91732e+57
          1684.89190	         8.29167e+57
          1685.69820	         6.18408e+57
          1686.50450	         5.87446e+57
          1687.31080	         7.25271e+57
          1688.11710	         7.01321e+57
          1688.92340	         6.23610e+57
          1689.72970	         6.52490e+57
          1690.53600	         6.87554e+57
          1691.34230	         7.75893e+57
          1692.14860	         8.28036e+57
          1692.95490	         8.35587e+57
          1693.76120	         8.25883e+57
          1694.56750	         7.63892e+57
          1695.37380	         7.88504e+57
          1696.18010	         8.47925e+57
          1696.98640	         8.82480e+57
          1697.79270	         8.27317e+57
          1698.59900	         7.94080e+57
          1699.40530	         8.04225e+57
          1700.21160	         7.08236e+57
          1701.01790	         6.86384e+57
          1701.82420	         6.51279e+57
          1702.63050	         7.06114e+57
          1703.43680	         8.61269e+57
          1704.24310	         9.88061e+57
          1705.04940	         8.15477e+57
          1705.85570	         7.24537e+57
          1706.66200	         8.53129e+57
          1707.46830	         8.33098e+57
          1708.27460	         8.01635e+57
          1709.08090	         6.76235e+57
          1709.88720	         6.56344e+57
          1710.69350	         6.66250e+57
          1711.49980	         6.37867e+57
          1712.30610	         7.27226e+57
          1713.11240	         9.01556e+57
          1713.91870	         8.62466e+57
          1714.72500	         1.00744e+58
          1715.53130	         1.00772e+58
          1716.33760	         7.87922e+57
          1717.14390	         7.29521e+57
          1717.95020	         8.86156e+57
          1718.75650	         8.38095e+57
          1719.56280	         8.11520e+57
          1720.36910	         6.70980e+57
          1721.17540	         6.90771e+57
          1721.98170	         6.01519e+57
          1722.78800	         5.42795e+57
          1723.59430	         6.96787e+57
          1724.40060	         7.22499e+57
          1725.20690	         7.33142e+57
          1726.01320	         6.36677e+57
          1726.81950	         6.49410e+57
          1727.62580	         7.00500e+57
          1728.43210	         6.65391e+57
          1729.23840	         7.05777e+57
          1730.04470	         7.54281e+57
          1730.85100	         7.88270e+57
          1731.65730	         7.71621e+57
          1732.46360	         8.03425e+57
          1733.26990	         7.33600e+57
          1734.07620	         7.49420e+57
          1734.88250	         7.91750e+57
          1735.68880	         8.01355e+57
          1736.49510	         8.29957e+57
          1737.30140	         7.96139e+57
          1738.10770	         7.05099e+57
          1738.91400	         7.50814e+57
          1739.72030	         7.73219e+57
          1740.52660	         6.37891e+57
          1741.33290	         6.03907e+57
          1742.13920	         6.90551e+57
          1742.94550	         7.03357e+57
          1743.75180	         6.35787e+57
          1744.55810	         6.33664e+57
          1745.36440	         7.13834e+57
          1746.17070	         5.16563e+57
          1746.97700	         5.49781e+57
          1747.78330	         5.63059e+57
          1748.58960	         6.01759e+57
          1749.39590	         5.95117e+57
          1750.20220	         6.73983e+57
          1751.00850	         6.68764e+57
          1751.81480	         6.90865e+57
          1752.62110	         6.78078e+57
          1753.42740	         7.27314e+57
          1754.23370	         7.87440e+57
          1755.04000	         7.46470e+57
          1755.84630	         7.34296e+57
          1756.65260	         8.38346e+57
          1757.45890	         8.91316e+57
          1758.26520	         7.11442e+57
          1759.07150	         9.12888e+57
          1759.87780	         8.71044e+57
          1760.68410	         7.42431e+57
          1761.49040	         8.40754e+57
          1762.29670	         7.30311e+57
          1763.10300	         8.47075e+57
          1763.90930	         8.25823e+57
          1764.71560	         6.85790e+57
          1765.52190	         7.16273e+57
          1766.32820	         8.33619e+57
          1767.13450	         7.83411e+57
          1767.94080	         7.31132e+57
          1768.74710	         7.96754e+57
          1769.55340	         7.60015e+57
          1770.35970	         6.95242e+57
          1771.16600	         8.00880e+57
          1771.97230	         8.79853e+57
          1772.77860	         8.80454e+57
          1773.58490	         7.07579e+57
          1774.39120	         6.16387e+57
          1775.19750	         5.48915e+57
          1776.00380	         5.45538e+57
          1776.81010	         5.67837e+57
          1777.61640	         6.95516e+57
          1778.42270	         7.77502e+57
          1779.22900	         7.16360e+57
          1780.03530	         6.50944e+57
          1780.84160	         7.82782e+57
          1781.64790	         7.77045e+57
          1782.45420	         7.21072e+57
          1783.26050	         6.72948e+57
          1784.06680	         6.36826e+57
          1784.87310	         7.88028e+57
          1785.67940	         9.13914e+57
          1786.48570	         8.68461e+57
          1787.29200	         6.72205e+57
          1788.09830	         6.09095e+57
          1788.90460	         6.09375e+57
          1789.71090	         5.42638e+57
          1790.51720	         5.09366e+57
          1791.32350	         7.20228e+57
          1792.12980	         8.59665e+57
          1792.93610	         7.45555e+57
          1793.74240	         6.99380e+57
          1794.54870	         7.22498e+57
          1795.35500	         7.77831e+57
          1796.16130	         8.00045e+57
          1796.96760	         6.57339e+57
          1797.77390	         7.68303e+57
          1798.58020	         8.22047e+57
          1799.38650	         6.84482e+57
          1800.19280	         7.33839e+57
          1800.99910	         7.38276e+57
          1801.80540	         6.99914e+57
          1802.61170	         7.71100e+57
          1803.41800	         8.18902e+57
          1804.22430	         7.32289e+57
          1805.03060	         6.45170e+57
          1805.83690	         6.61683e+57
          1806.64320	         7.54074e+57
          1807.44950	         8.23296e+57
          1808.25580	         7.35062e+57
          1809.06210	         8.05474e+57
          1809.86840	         6.38464e+57
          1810.67470	         6.97590e+57
          1811.48100	         8.69034e+57
          1812.28730	         8.73839e+57
          1813.09360	         7.64540e+57
          1813.89990	         8.00255e+57
          1814.70620	         7.54324e+57
          1815.51250	         9.04619e+57
          1816.31880	         7.63274e+57
          1817.12510	         6.30809e+57
          1817.93140	         7.15682e+57
          1818.73770	         7.24798e+57
          1819.54400	         8.51569e+57
          1820.35030	         8.03831e+57
          1821.15660	         7.06743e+57
          1821.96290	         7.17285e+57
          1822.76920	         7.18757e+57
          1823.57550	         7.82870e+57
          1824.38180	         7.75779e+57
          1825.18810	         8.25300e+57
          1825.99440	         7.80342e+57
          1826.80070	         7.43868e+57
          1827.60700	         7.23736e+57
          1828.41330	         7.42396e+57
          1829.21960	         7.65397e+57
          1830.02590	         7.10535e+57
          1830.83220	         7.90631e+57
          1831.63850	         7.31306e+57
          1832.44480	         7.38504e+57
          1833.25110	         8.69863e+57
          1834.05740	         8.28197e+57
          1834.86370	         7.65592e+57
          1835.67000	         6.22697e+57
          1836.47630	         6.75180e+57
          1837.28260	         8.10441e+57
          1838.08890	         7.72000e+57
          1838.89520	         8.46618e+57
          1839.70150	         8.05862e+57
          1840.50780	         7.59780e+57
          1841.31410	         7.73474e+57
          1842.12040	         6.49801e+57
          1842.92670	         6.40650e+57
          1843.73300	         6.27746e+57
          1844.53930	         5.54183e+57
          1845.34560	         6.85290e+57
          1846.15190	         7.43748e+57
          1846.95820	         6.49390e+57
          1847.76450	         6.89834e+57
          1848.57080	         6.43071e+57
          1849.37710	         6.69653e+57
          1850.18340	         7.11691e+57
          1850.98970	         8.14174e+57
          1851.79600	         9.05290e+57
          1852.60230	         6.69594e+57
          1853.40860	         5.37014e+57
          1854.21490	         6.62187e+57
          1855.02120	         5.79273e+57
          1855.82750	         3.09019e+57
          1856.63380	         4.92543e+57
          1857.44010	         7.19580e+57
          1858.24640	         6.41837e+57
          1859.05270	         7.47642e+57
          1859.85900	         6.25085e+57
          1860.66530	         5.38767e+57
          1861.47160	         6.58636e+57
          1862.27790	         6.76064e+57
          1863.08420	         7.96285e+57
          1863.89050	         7.25601e+57
          1864.69680	         6.13523e+57
          1865.50310	         7.12820e+57
          1866.30940	         6.98313e+57
          1867.11570	         6.53359e+57
          1867.92200	         7.60622e+57
          1868.72830	         7.53571e+57
          1869.53460	         6.76632e+57
          1870.34090	         6.84128e+57
          1871.14720	         8.05968e+57
          1871.95350	         7.86359e+57
          1872.75980	         7.17711e+57
          1873.56610	         7.18750e+57
          1874.37240	         5.82718e+57
          1875.17870	         5.05167e+57
          1875.98500	         7.04962e+57
          1876.79130	         8.08009e+57
          1877.59760	         6.76694e+57
          1878.40390	         6.21869e+57
          1879.21020	         5.96279e+57
          1880.01650	         7.08096e+57
          1880.82280	         8.41985e+57
          1881.62910	         8.92836e+57
          1882.43540	         9.21826e+57
          1883.24170	         8.25454e+57
          1884.04800	         7.04527e+57
          1884.85430	         6.89574e+57
          1885.66060	         7.80958e+57
          1886.46690	         8.81990e+57
          1887.27320	         7.56479e+57
          1888.07950	         5.69103e+57
          1888.88580	         5.73580e+57
          1889.69210	         7.15156e+57
          1890.49840	         7.36574e+57
          1891.30470	         6.54527e+57
          1892.11100	         7.81286e+57
          1892.91730	         9.17424e+57
          1893.72360	         7.58316e+57
          1894.52990	         7.34247e+57
          1895.33620	         9.13336e+57
          1896.14250	         7.96691e+57
          1896.94880	         6.38463e+57
          1897.75510	         4.56935e+57
          1898.56140	         5.94650e+57
          1899.36770	         8.13629e+57
          1900.17400	         7.18367e+57
          1900.98030	         7.46439e+57
          1901.78660	         7.26127e+57
          1902.59290	         6.82315e+57
          1903.39920	         8.53436e+57
          1904.20550	         9.80217e+57
          1905.01180	         9.12916e+57
          1905.81810	         9.59524e+57
          1906.62440	         1.20406e+58
          1907.43070	         1.55712e+58
          1908.23700	         1.42256e+58
          1909.04330	         1.24246e+58
          1909.84960	         1.09884e+58
          1910.65590	         8.95404e+57
          1911.46220	         9.38669e+57
          1912.26850	         7.82619e+57
          1913.07480	         6.02991e+57
          1913.88110	         5.50201e+57
          1914.68740	         5.78644e+57
          1915.49370	         5.38426e+57
          1916.30000	         6.00485e+57
          1917.10630	         6.54496e+57
          1917.91260	         6.39598e+57
          1918.71890	         6.94881e+57
          1919.52520	         6.50467e+57
          1920.33150	         5.52401e+57
          1921.13780	         6.63727e+57
          1921.94410	         8.16609e+57
          1922.75040	         8.17441e+57
          1923.55670	         6.74989e+57
          1924.36300	         7.44854e+57
          1925.16930	         6.00976e+57
          1925.97560	         5.99734e+57
          1926.78190	         4.68374e+57
          1927.58820	         5.78338e+57
          1928.39450	         6.18368e+57
          1929.20080	         5.09841e+57
          1930.00710	         6.22190e+57
          1930.81340	         6.84306e+57
          1931.61970	         6.50041e+57
          1932.42600	         6.74029e+57
          1933.23230	         7.30630e+57
          1934.03860	         6.33408e+57
          1934.84490	         6.06447e+57
          1935.65120	         8.10237e+57
          1936.45750	         9.01012e+57
          1937.26380	         7.43631e+57
          1938.07010	         7.98077e+57
          1938.87640	         8.36923e+57
          1939.68270	         9.00735e+57
          1940.48900	         8.91707e+57
          1941.29530	         8.88425e+57
          1942.10160	         8.02452e+57
          1942.90790	         5.85854e+57
          1943.71420	         5.48460e+57
          1944.52050	         5.54267e+57
          1945.32680	         4.85232e+57
          1946.13310	         7.02116e+57
          1946.93940	         8.12638e+57
          1947.74570	         7.19858e+57
          1948.55200	         6.26768e+57
          1949.35830	         5.87953e+57
          1950.16460	         6.65567e+57
          1950.97090	         6.59943e+57
          1951.77720	         7.10891e+57
          1952.58350	         8.27271e+57
          1953.38980	         7.01089e+57
          1954.19610	         4.69711e+57
          1955.00240	         4.89823e+57
          1955.80870	         6.12146e+57
          1956.61500	         6.42980e+57
          1957.42130	         6.77433e+57
          1958.22760	         6.82001e+57
          1959.03390	         8.13210e+57
          1959.84020	         7.31165e+57
          1960.64650	         6.61060e+57
          1961.45280	         6.56639e+57
          1962.25910	         7.11115e+57
          1963.06540	         7.62310e+57
          1963.87170	         7.45340e+57
          1964.67800	         6.78443e+57
          1965.48430	         6.37861e+57
          1966.29060	         6.07777e+57
          1967.09690	         6.39446e+57
          1967.90320	         6.12003e+57
          1968.70950	         6.91581e+57
          1969.51580	         6.13087e+57
          1970.32210	         7.21686e+57
          1971.12840	         7.58794e+57
          1971.93470	         4.72378e+57
          1972.74100	         4.61762e+57
          1973.54730	         6.72043e+57
          1974.35360	         7.71653e+57
          1975.15990	         7.60368e+57
          1975.96620	         6.75845e+57
          1976.77250	         8.41562e+57
          1977.57880	         8.56470e+57
          1978.38510	         6.35872e+57
          1979.19140	         6.84195e+57
          1979.99770	         7.62537e+57
          1980.80400	         8.11314e+57
          1981.61030	         7.64260e+57
          1982.41660	         6.21431e+57
          1983.22290	         5.53834e+57
          1984.02920	         6.23248e+57
          1984.83550	         4.95686e+57
          1985.64180	         5.61520e+57
          1986.44810	         6.66466e+57
          1987.25440	         6.92502e+57
          1988.06070	         5.72585e+57
          1988.86700	         6.54012e+57
          1989.67330	         6.23987e+57
          1990.47960	         4.82089e+57
          1991.28590	         5.55111e+57
          1992.09220	         6.33472e+57
          1992.89850	         5.93859e+57
          1993.70480	         6.31951e+57
          1994.51110	         5.06121e+57
          1995.31740	         4.97463e+57
          1996.12370	         5.73830e+57
          1996.93000	         6.48048e+57
          1997.73630	         7.10561e+57
          1998.54260	         6.86353e+57
          1999.34890	         5.86365e+57
          2000.15520	         6.79664e+57
          2000.96150	         7.23845e+57
          2001.76780	         5.57259e+57
          2002.57410	         4.25340e+57
          2003.38040	         6.78307e+57
          2004.18670	         7.21361e+57
          2004.99300	         5.79068e+57
          2005.79930	         6.81864e+57
          2006.60560	         6.70318e+57
          2007.41190	         5.40525e+57
          2008.21820	         7.39771e+57
          2009.02450	         7.31027e+57
          2009.83080	         6.17044e+57
          2010.63710	         6.40359e+57
          2011.44340	         5.88468e+57
          2012.24970	         6.98016e+57
          2013.05600	         7.18255e+57
          2013.86230	         6.96179e+57
          2014.66860	         4.86728e+57
          2015.47490	         6.86861e+57
          2016.28120	         6.14597e+57
          2017.08750	         5.00675e+57
          2017.89380	         5.77115e+57
          2018.70010	         5.53280e+57
          2019.50640	         5.51877e+57
          2020.31270	         6.24278e+57
          2021.11900	         7.50388e+57
          2021.92530	         7.14078e+57
          2022.73160	         8.14205e+57
          2023.53790	         8.02919e+57
          2024.34420	         6.72991e+57
          2025.15050	         5.46480e+57
          2025.95680	         5.03831e+57
          2026.76310	         5.27993e+57
          2027.56940	         4.63448e+57
          2028.37570	         5.36993e+57
          2029.18200	         5.49019e+57
          2029.98830	         5.35700e+57
          2030.79460	         6.05866e+57
          2031.60090	         6.26634e+57
          2032.40720	         5.37826e+57
          2033.21350	         4.47773e+57
          2034.01980	         4.96154e+57
          2034.82610	         4.93502e+57
          2035.63240	         5.50785e+57
          2036.43870	         5.43167e+57
          2037.24500	         6.09726e+57
          2038.05130	         6.03404e+57
          2038.85760	         6.63943e+57
          2039.66390	         6.07046e+57
          2040.47020	         5.22824e+57
          2041.27650	         6.33271e+57
          2042.08280	         6.11273e+57
          2042.88910	         6.04743e+57
          2043.69540	         4.57207e+57
          2044.50170	         6.03535e+57
          2045.30800	         6.41804e+57
          2046.11430	         4.87479e+57
          2046.92060	         5.43299e+57
          2047.72690	         7.46886e+57
          2048.53320	         5.52236e+57
          2049.33950	         4.61625e+57
          2050.14580	         5.18325e+57
          2050.95210	         5.63116e+57
          2051.75840	         7.20451e+57
          2052.56470	         5.92879e+57
          2053.37100	         4.06104e+57
          2054.17730	         3.86651e+57
          2054.98360	         5.08215e+57
          2055.78990	         4.08790e+57
          2056.59620	         4.05246e+57
          2057.40250	         5.32416e+57
          2058.20880	         6.73221e+57
          2059.01510	         5.80224e+57
          2059.82140	         6.81144e+57
          2060.62770	         1.04325e+58
          2061.43400	         1.80902e+58
          2062.24030	         1.20165e+58
          2063.04660	         3.92497e+57
          2063.85290	         9.33492e+56
          2064.65920	        -4.16610e+57
          2065.46550	        -9.05403e+57
          2066.27180	        -6.82965e+57
          2067.07810	         2.03279e+57
          2067.88440	         5.36343e+57
          2068.69070	         7.44740e+57
          2069.49700	         6.51934e+57
          2070.30330	         4.74469e+57
          2071.10960	         3.89277e+57
          2071.91590	         5.87299e+57
          2072.72220	         3.66861e+57
          2073.52850	         3.77379e+57
          2074.33480	         5.04595e+57
          2075.14110	         4.99600e+57
          2075.94740	         3.58886e+57
          2076.75370	         2.95196e+57
          2077.56000	         4.77573e+57
          2078.36630	         5.97161e+57
          2079.17260	         3.72996e+57
          2079.97890	         5.64724e+57
          2080.78520	         4.69032e+57
          2081.59150	         4.79379e+57
          2082.39780	         3.78363e+57
          2083.20410	         3.32438e+57
          2084.01040	         2.31121e+57
          2084.81670	         3.70988e+57
          2085.62300	         4.58243e+57
          2086.42930	         3.50836e+57
          2087.23560	         3.65308e+57
          2088.04190	         4.49495e+57
          2088.84820	         4.48645e+57
          2089.65450	         3.10683e+57
          2090.46080	         7.93034e+56
          2091.26710	         1.64714e+57
          2092.07340	         3.65563e+57
          2092.87970	         1.06569e+57
          2093.68600	        -1.81684e+57
          2094.49230	         8.27069e+56
          2095.29860	         4.60656e+57
          2096.10490	         1.02325e+57
          2096.91120	         9.48824e+56
          2097.71750	         4.94734e+56
          2098.52380	         2.00278e+57
          2099.33010	         1.73160e+57
          2100.13640	         2.33948e+57
          2100.94270	         7.02206e+56
          2101.74900	         2.69641e+56
          2102.55530	         1.57529e+57
          2103.36160	         4.31353e+57
          2104.16790	         3.31944e+57
          2104.97420	        -5.13352e+56
          2105.78050	         7.63963e+56
          2106.58680	         3.93370e+57
          2107.39310	        -1.06978e+57
          2108.19940	        -8.94216e+56
          2109.00570	        -2.84146e+57
          2109.81200	        -3.24625e+56
          2110.61830	        -2.85167e+56
          2111.42460	         9.55503e+56
          2112.23090	         1.84885e+57
          2113.03720	        -4.65421e+56
          2113.84350	        -2.18046e+57
          2114.64980	         3.29261e+57
          2115.45610	        -3.61515e+57
          2116.26240	        -4.24180e+57
          2117.06870	        -3.11625e+57
          2117.87500	        -3.45939e+57
          2118.68130	        -2.97647e+56
          2119.48760	         2.10725e+57
          2120.29390	         2.77147e+57
          2121.10020	        -2.26701e+57
          2121.90650	        -3.59839e+56
          2122.71280	        -2.91260e+57
          2123.51910	         3.17242e+57
          2124.32540	        -8.06363e+56
          2125.13170	         6.52382e+56
          2125.93800	         6.66466e+57
          2126.74430	        -3.58945e+57
          2127.55060	        -5.48890e+57
          2128.35690	         3.73955e+56
          2129.16320	        -3.53644e+57
          2129.96950	        -4.46966e+57
          2130.77580	        -5.18326e+56
          2131.58210	         2.31596e+57
          2132.38840	         6.83330e+56
          2133.19470	         1.05684e+56
          2134.00100	        -1.22119e+57
          2134.80730	        -4.70095e+57
          2135.61360	         4.62673e+57
          2136.41990	         4.14520e+57
          2137.22620	         5.42382e+57
          2138.03250	         6.91789e+57
          2138.83880	         4.65137e+56
          2139.64510	         4.05525e+57
          2140.45140	        -2.63276e+57
          2141.25770	        -1.15041e+58
          2142.06400	        -9.34374e+57
          2142.87030	         4.36678e+57
          2143.67660	         5.37073e+57
          2144.48290	         1.44429e+57
          2145.28920	         2.30811e+57
          2146.09550	        -6.62219e+57
          2146.90180	        -1.08092e+58
          2147.70810	        -7.43069e+57
          2148.51440	        -1.22300e+57
          2149.32070	        -6.52086e+57
          2150.12700	        -7.86317e+57
          2150.93330	        -5.04797e+57
          2151.73960	        -3.72102e+57
          2152.54590	        -1.08981e+58
          2153.35220	        -3.82499e+57
          2154.15850	        -1.55857e+58
          2154.96480	        -2.52334e+57
          2155.77110	        -6.88637e+57
          2156.57740	        -1.42372e+58
          2157.38370	        -1.17333e+58
          2158.19000	        -7.37747e+57
          2158.99630	         3.65500e+57
          2159.80260	        -9.03833e+57
          2160.60890	        -6.80811e+57
          2161.41520	        -8.66762e+57
          2162.22150	        -5.22104e+57
          2163.02780	         1.73280e+57
          2163.83410	        -1.78914e+57
          2164.64040	        -1.07457e+58
          2165.44670	        -1.26748e+58
          2166.25300	        -1.62394e+58
          2167.05930	        -4.85868e+57
          2167.86560	        -1.08686e+58
          2168.67190	        -6.71466e+57
          2169.47820	        -3.12131e+56
          2170.28450	        -1.35342e+58
          2171.09080	        -5.68679e+57
          2171.89710	        -4.16450e+57
          2172.70340	         2.16606e+57
          2173.50970	        -3.18628e+57
          2174.31600	        -2.84719e+57
          2175.12230	        -2.26931e+56
          2175.92860	        -4.27861e+57
          2176.73490	        -3.57830e+57
          2177.54120	        -9.02926e+57
          2178.34750	        -5.32660e+57
          2179.15380	                 nan
          2179.96010	                 nan
          2180.76640	                 nan
          2181.57270	                 nan
          2182.37900	                 nan
          2183.18530	                 nan
          2183.99160	                 nan
          2184.79790	                 nan
          2185.60420	                 nan
          2186.41050	                 nan
          2187.21680	                 nan
          2188.02310	                 nan
          2188.82940	                 nan
          2189.63570	                 nan
          2190.44200	                 nan
          2191.24830	                 nan
          2192.05460	                 nan
          2192.86090	                 nan
          2193.66720	                 nan
          2194.47350	                 nan
          2195.27980	                 nan
          2196.08610	                 nan
          2196.89240	                 nan
          2197.69870	                 nan
          2198.50500	                 nan
          2199.31130	                 nan
          2200.11760	                 nan
          2200.92390	                 nan
          2201.73020	                 nan
          2202.53650	                 nan
          2203.34280	                 nan
          2204.14910	                 nan
          2204.95540	                 nan
          2205.76170	                 nan
          2206.56800	                 nan
          2207.37430	                 nan
          2208.18060	                 nan
          2208.98690	                 nan
          2209.79320	                 nan
          2210.59950	                 nan
          2211.40580	                 nan
          2212.21210	                 nan
          2213.01840	                 nan
          2213.82470	                 nan
          2214.63100	                 nan
          2215.43730	         0.00000e+00
