#sample_160_stacked_spectrum_rest_UV-bands_median_H-alpha_noDC.txt
#median Lum: 1.65325e+42
#Rest-frame wavelength (A) | Luminosity (erg/s/A)
#
          1110.00000	         0.00000e+00
          1110.80630	         1.61848e+59
          1111.61260	         7.09680e+58
          1112.41890	         3.12524e+57
          1113.22520	        -6.23995e+58
          1114.03150	        -9.49057e+58
          1114.83780	         2.64908e+59
          1115.64410	         2.05984e+59
          1116.45040	         2.08780e+59
          1117.25670	        -4.03189e+58
          1118.06300	         2.31649e+59
          1118.86930	         1.90735e+58
          1119.67560	         9.47221e+58
          1120.48190	        -1.59259e+58
          1121.28820	        -1.14548e+59
          1122.09450	         5.51892e+58
          1122.90080	         9.97280e+58
          1123.70710	         7.24117e+58
          1124.51340	         1.39276e+59
          1125.31970	         7.54501e+58
          1126.12600	         1.89893e+58
          1126.93230	        -3.35217e+58
          1127.73860	        -4.02571e+58
          1128.54490	         2.50264e+58
          1129.35120	         3.28580e+58
          1130.15750	        -2.11965e+58
          1130.96380	        -1.90871e+58
          1131.77010	         3.42076e+58
          1132.57640	         4.34933e+58
          1133.38270	         2.74476e+58
          1134.18900	        -4.86183e+57
          1134.99530	        -4.24456e+57
          1135.80160	        -5.93715e+57
          1136.60790	         5.64251e+57
          1137.41420	        -1.11252e+57
          1138.22050	         4.25288e+58
          1139.02680	         2.13902e+58
          1139.83310	         1.66658e+58
          1140.63940	         1.76832e+58
          1141.44570	        -1.79217e+58
          1142.25200	         7.78110e+57
          1143.05830	         1.70715e+58
          1143.86460	         3.41927e+58
          1144.67090	         2.24688e+58
          1145.47720	         4.97753e+57
          1146.28350	         1.15975e+58
          1147.08980	         1.06977e+58
          1147.89610	         1.86159e+58
          1148.70240	         1.40891e+58
          1149.50870	         2.00105e+58
          1150.31500	         7.65063e+57
          1151.12130	         4.00895e+57
          1151.92760	         4.53555e+57
          1152.73390	         1.23029e+58
          1153.54020	         1.06962e+58
          1154.34650	         2.03183e+58
          1155.15280	         2.18548e+58
          1155.95910	         1.22069e+58
          1156.76540	         2.87861e+57
          1157.57170	        -3.41025e+56
          1158.37800	         7.69720e+56
          1159.18430	        -8.60129e+57
          1159.99060	         1.57271e+57
          1160.79690	         1.09423e+58
          1161.60320	         7.24896e+57
          1162.40950	         1.47566e+58
          1163.21580	         1.30963e+58
          1164.02210	         1.34564e+58
          1164.82840	         9.17486e+57
          1165.63470	         1.71703e+58
          1166.44100	         3.60930e+58
          1167.24730	         1.18356e+58
          1168.05360	         5.55724e+56
          1168.85990	        -2.46703e+57
          1169.66620	         4.82861e+57
          1170.47250	         1.15190e+58
          1171.27880	         1.65168e+58
          1172.08510	         1.88152e+58
          1172.89140	         1.37962e+58
          1173.69770	         6.16837e+57
          1174.50400	         6.63040e+57
          1175.31030	         1.19515e+58
          1176.11660	         1.45416e+58
          1176.92290	         1.44452e+58
          1177.72920	         1.32759e+58
          1178.53550	         6.96789e+57
          1179.34180	         5.69405e+57
          1180.14810	         1.19009e+58
          1180.95440	         1.02793e+58
          1181.76070	         6.02129e+57
          1182.56700	         6.38383e+57
          1183.37330	         7.85318e+57
          1184.17960	         1.07025e+58
          1184.98590	         8.18491e+57
          1185.79220	         8.62953e+57
          1186.59850	         1.08131e+58
          1187.40480	         1.34846e+58
          1188.21110	         1.43050e+58
          1189.01740	         1.42146e+58
          1189.82370	         1.46554e+58
          1190.63000	         1.03885e+58
          1191.43630	         1.12107e+58
          1192.24260	         9.98927e+57
          1193.04890	         1.54168e+58
          1193.85520	         1.24942e+58
          1194.66150	         6.44981e+57
          1195.46780	         1.26124e+58
          1196.27410	         1.47601e+58
          1197.08040	         9.00179e+57
          1197.88670	         1.45203e+58
          1198.69300	         2.03007e+58
          1199.49930	         1.78346e+58
          1200.30560	         9.52740e+57
          1201.11190	         8.99743e+57
          1201.91820	         1.07805e+58
          1202.72450	         1.16461e+58
          1203.53080	         1.34931e+58
          1204.33710	         9.76944e+57
          1205.14340	         8.39877e+57
          1205.94970	         7.85039e+57
          1206.75600	         6.85930e+57
          1207.56230	         4.50500e+57
          1208.36860	         8.14020e+57
          1209.17490	         6.80279e+57
          1209.98120	         6.13121e+57
          1210.78750	         7.60068e+57
          1211.59380	         1.11855e+58
          1212.40010	         1.84979e+58
          1213.20640	         2.07213e+58
          1214.01270	         2.09121e+58
          1214.81900	         2.50307e+58
          1215.62530	         4.12406e+58
          1216.43160	         8.14232e+58
          1217.23790	         1.40821e+59
          1218.04420	         1.14385e+59
          1218.85050	         8.30564e+58
          1219.65680	         5.66033e+58
          1220.46310	         3.17434e+58
          1221.26940	         1.90946e+58
          1222.07570	         1.38554e+58
          1222.88200	         1.07496e+58
          1223.68830	         1.10366e+58
          1224.49460	         8.24401e+57
          1225.30090	         5.95755e+57
          1226.10720	         5.76945e+57
          1226.91350	         5.41107e+57
          1227.71980	         9.08298e+57
          1228.52610	         9.80330e+57
          1229.33240	         8.97537e+57
          1230.13870	         7.56429e+57
          1230.94500	         7.04113e+57
          1231.75130	         5.65001e+57
          1232.55760	         7.84281e+57
          1233.36390	         9.09154e+57
          1234.17020	         7.95379e+57
          1234.97650	         5.47872e+57
          1235.78280	         8.19003e+57
          1236.58910	         1.00048e+58
          1237.39540	         1.14245e+58
          1238.20170	         1.14414e+58
          1239.00800	         1.19029e+58
          1239.81430	         1.44612e+58
          1240.62060	         1.00346e+58
          1241.42690	         8.78180e+57
          1242.23320	         1.08972e+58
          1243.03950	         9.05540e+57
          1243.84580	         1.00929e+58
          1244.65210	         1.46944e+58
          1245.45840	         1.57354e+58
          1246.26470	         1.13357e+58
          1247.07100	         6.30428e+57
          1247.87730	         5.82691e+57
          1248.68360	         5.02775e+57
          1249.48990	         4.28043e+57
          1250.29620	         8.90880e+57
          1251.10250	         7.43401e+57
          1251.90880	         4.76462e+57
          1252.71510	         5.15177e+57
          1253.52140	         5.32717e+57
          1254.32770	         1.10187e+58
          1255.13400	         1.42129e+58
          1255.94030	         1.19733e+58
          1256.74660	         9.79215e+57
          1257.55290	         1.10795e+58
          1258.35920	         8.26172e+57
          1259.16550	         3.71163e+57
          1259.97180	         5.52866e+57
          1260.77810	         7.40147e+57
          1261.58440	         1.07306e+58
          1262.39070	         1.00687e+58
          1263.19700	         9.56286e+57
          1264.00330	         9.09371e+57
          1264.80960	         1.07379e+58
          1265.61590	         1.49631e+58
          1266.42220	         1.38175e+58
          1267.22850	         1.16288e+58
          1268.03480	         1.43431e+58
          1268.84110	         1.38164e+58
          1269.64740	         1.19835e+58
          1270.45370	         1.32772e+58
          1271.26000	         1.25371e+58
          1272.06630	         1.38182e+58
          1272.87260	         1.35812e+58
          1273.67890	         1.11782e+58
          1274.48520	         1.18402e+58
          1275.29150	         1.33217e+58
          1276.09780	         1.18717e+58
          1276.90410	         1.46449e+58
          1277.71040	         1.26345e+58
          1278.51670	         1.10686e+58
          1279.32300	         1.24374e+58
          1280.12930	         1.27429e+58
          1280.93560	         1.07834e+58
          1281.74190	         1.15736e+58
          1282.54820	         1.22844e+58
          1283.35450	         1.04780e+58
          1284.16080	         1.15619e+58
          1284.96710	         1.36767e+58
          1285.77340	         1.12366e+58
          1286.57970	         1.02161e+58
          1287.38600	         1.41974e+58
          1288.19230	         1.80812e+58
          1288.99860	         1.43683e+58
          1289.80490	         1.16100e+58
          1290.61120	         1.43100e+58
          1291.41750	         1.52419e+58
          1292.22380	         1.24362e+58
          1293.03010	         1.00105e+58
          1293.83640	         1.05031e+58
          1294.64270	         9.82722e+57
          1295.44900	         7.34260e+57
          1296.25530	         7.12392e+57
          1297.06160	         9.03804e+57
          1297.86790	         1.13922e+58
          1298.67420	         1.09298e+58
          1299.48050	         1.05488e+58
          1300.28680	         1.03574e+58
          1301.09310	         7.09544e+57
          1301.89940	         4.06476e+57
          1302.70570	         5.51411e+57
          1303.51200	         7.87315e+57
          1304.31830	         1.03374e+58
          1305.12460	         1.04408e+58
          1305.93090	         1.18040e+58
          1306.73720	         1.36674e+58
          1307.54350	         1.50588e+58
          1308.34980	         1.63540e+58
          1309.15610	         1.83353e+58
          1309.96240	         1.97694e+58
          1310.76870	         1.73525e+58
          1311.57500	         1.20543e+58
          1312.38130	         1.03367e+58
          1313.18760	         1.24709e+58
          1313.99390	         1.71526e+58
          1314.80020	         1.67001e+58
          1315.60650	         1.62361e+58
          1316.41280	         1.46907e+58
          1317.21910	         1.27847e+58
          1318.02540	         1.17694e+58
          1318.83170	         1.32334e+58
          1319.63800	         1.29234e+58
          1320.44430	         9.34962e+57
          1321.25060	         1.01543e+58
          1322.05690	         1.20159e+58
          1322.86320	         1.32970e+58
          1323.66950	         1.29154e+58
          1324.47580	         1.02749e+58
          1325.28210	         1.08076e+58
          1326.08840	         1.10172e+58
          1326.89470	         1.24388e+58
          1327.70100	         1.24643e+58
          1328.50730	         9.86948e+57
          1329.31360	         1.14907e+58
          1330.11990	         1.17697e+58
          1330.92620	         9.20064e+57
          1331.73250	         9.41244e+57
          1332.53880	         1.05392e+58
          1333.34510	         9.97203e+57
          1334.15140	         9.08924e+57
          1334.95770	         8.84393e+57
          1335.76400	         1.09019e+58
          1336.57030	         1.14821e+58
          1337.37660	         1.00575e+58
          1338.18290	         9.83411e+57
          1338.98920	         9.66951e+57
          1339.79550	         1.06565e+58
          1340.60180	         1.19309e+58
          1341.40810	         1.27147e+58
          1342.21440	         1.13367e+58
          1343.02070	         1.16099e+58
          1343.82700	         1.36080e+58
          1344.63330	         1.43806e+58
          1345.43960	         1.38972e+58
          1346.24590	         9.42790e+57
          1347.05220	         1.07641e+58
          1347.85850	         1.03099e+58
          1348.66480	         1.02336e+58
          1349.47110	         1.28739e+58
          1350.27740	         1.38437e+58
          1351.08370	         1.21128e+58
          1351.89000	         1.14426e+58
          1352.69630	         1.11118e+58
          1353.50260	         1.16736e+58
          1354.30890	         1.20598e+58
          1355.11520	         1.21304e+58
          1355.92150	         1.18845e+58
          1356.72780	         1.04909e+58
          1357.53410	         1.03847e+58
          1358.34040	         1.06055e+58
          1359.14670	         1.05234e+58
          1359.95300	         1.07283e+58
          1360.75930	         1.11446e+58
          1361.56560	         1.04169e+58
          1362.37190	         1.08091e+58
          1363.17820	         9.83220e+57
          1363.98450	         1.11964e+58
          1364.79080	         1.16738e+58
          1365.59710	         1.16522e+58
          1366.40340	         1.04038e+58
          1367.20970	         8.60917e+57
          1368.01600	         8.78502e+57
          1368.82230	         9.50982e+57
          1369.62860	         1.01328e+58
          1370.43490	         9.53889e+57
          1371.24120	         8.75676e+57
          1372.04750	         8.62438e+57
          1372.85380	         1.21520e+58
          1373.66010	         1.22763e+58
          1374.46640	         1.14817e+58
          1375.27270	         1.21804e+58
          1376.07900	         1.04139e+58
          1376.88530	         9.80408e+57
          1377.69160	         8.90358e+57
          1378.49790	         7.23775e+57
          1379.30420	         7.79304e+57
          1380.11050	         9.25526e+57
          1380.91680	         8.29082e+57
          1381.72310	         8.05809e+57
          1382.52940	         7.95468e+57
          1383.33570	         9.07045e+57
          1384.14200	         1.01139e+58
          1384.94830	         1.07006e+58
          1385.75460	         1.04030e+58
          1386.56090	         9.38618e+57
          1387.36720	         1.05601e+58
          1388.17350	         1.28927e+58
          1388.97980	         1.09263e+58
          1389.78610	         8.88812e+57
          1390.59240	         9.04483e+57
          1391.39870	         7.76577e+57
          1392.20500	         7.62214e+57
          1393.01130	         7.66312e+57
          1393.81760	         7.20974e+57
          1394.62390	         7.23990e+57
          1395.43020	         5.98938e+57
          1396.23650	         7.29048e+57
          1397.04280	         8.59916e+57
          1397.84910	         1.01475e+58
          1398.65540	         9.46032e+57
          1399.46170	         9.16426e+57
          1400.26800	         8.52902e+57
          1401.07430	         7.68106e+57
          1401.88060	         8.00316e+57
          1402.68690	         9.84228e+57
          1403.49320	         1.09379e+58
          1404.29950	         1.03178e+58
          1405.10580	         1.15137e+58
          1405.91210	         1.22246e+58
          1406.71840	         1.03867e+58
          1407.52470	         1.04061e+58
          1408.33100	         1.00998e+58
          1409.13730	         1.07636e+58
          1409.94360	         1.25343e+58
          1410.74990	         1.12628e+58
          1411.55620	         1.06399e+58
          1412.36250	         9.58358e+57
          1413.16880	         9.68381e+57
          1413.97510	         8.49377e+57
          1414.78140	         9.08893e+57
          1415.58770	         1.22199e+58
          1416.39400	         1.09925e+58
          1417.20030	         1.03099e+58
          1418.00660	         1.01959e+58
          1418.81290	         1.14773e+58
          1419.61920	         1.07873e+58
          1420.42550	         1.30609e+58
          1421.23180	         1.52203e+58
          1422.03810	         1.25595e+58
          1422.84440	         1.10214e+58
          1423.65070	         1.12881e+58
          1424.45700	         1.19340e+58
          1425.26330	         8.70847e+57
          1426.06960	         7.09847e+57
          1426.87590	         9.30786e+57
          1427.68220	         9.92262e+57
          1428.48850	         1.08669e+58
          1429.29480	         1.00318e+58
          1430.10110	         9.64086e+57
          1430.90740	         8.90234e+57
          1431.71370	         9.12703e+57
          1432.52000	         8.71755e+57
          1433.32630	         7.84722e+57
          1434.13260	         7.58562e+57
          1434.93890	         8.17223e+57
          1435.74520	         9.24629e+57
          1436.55150	         9.98545e+57
          1437.35780	         9.44812e+57
          1438.16410	         9.48138e+57
          1438.97040	         9.17326e+57
          1439.77670	         9.19563e+57
          1440.58300	         9.47105e+57
          1441.38930	         8.77017e+57
          1442.19560	         9.42139e+57
          1443.00190	         9.51664e+57
          1443.80820	         1.05578e+58
          1444.61450	         1.00774e+58
          1445.42080	         7.49148e+57
          1446.22710	         9.06156e+57
          1447.03340	         1.07708e+58
          1447.83970	         1.12492e+58
          1448.64600	         1.01903e+58
          1449.45230	         1.00957e+58
          1450.25860	         1.03940e+58
          1451.06490	         8.99551e+57
          1451.87120	         8.46389e+57
          1452.67750	         8.14028e+57
          1453.48380	         8.52758e+57
          1454.29010	         7.69697e+57
          1455.09640	         6.64517e+57
          1455.90270	         8.25161e+57
          1456.70900	         8.90583e+57
          1457.51530	         9.71128e+57
          1458.32160	         1.13211e+58
          1459.12790	         1.10079e+58
          1459.93420	         9.57395e+57
          1460.74050	         7.17924e+57
          1461.54680	         6.70703e+57
          1462.35310	         7.56137e+57
          1463.15940	         8.27928e+57
          1463.96570	         1.01303e+58
          1464.77200	         1.01546e+58
          1465.57830	         1.02743e+58
          1466.38460	         9.69094e+57
          1467.19090	         8.81619e+57
          1467.99720	         8.96974e+57
          1468.80350	         9.61849e+57
          1469.60980	         9.74704e+57
          1470.41610	         1.05901e+58
          1471.22240	         9.27183e+57
          1472.02870	         8.99927e+57
          1472.83500	         9.40450e+57
          1473.64130	         9.49153e+57
          1474.44760	         9.65178e+57
          1475.25390	         8.63826e+57
          1476.06020	         9.32368e+57
          1476.86650	         8.94005e+57
          1477.67280	         7.87112e+57
          1478.47910	         7.10539e+57
          1479.28540	         7.41380e+57
          1480.09170	         8.76314e+57
          1480.89800	         8.80580e+57
          1481.70430	         9.07725e+57
          1482.51060	         8.89958e+57
          1483.31690	         7.87019e+57
          1484.12320	         6.82236e+57
          1484.92950	         7.44880e+57
          1485.73580	         7.72370e+57
          1486.54210	         8.69520e+57
          1487.34840	         8.43455e+57
          1488.15470	         7.46330e+57
          1488.96100	         8.10082e+57
          1489.76730	         9.06535e+57
          1490.57360	         8.43280e+57
          1491.37990	         7.26735e+57
          1492.18620	         7.57331e+57
          1492.99250	         7.56845e+57
          1493.79880	         7.90806e+57
          1494.60510	         8.33738e+57
          1495.41140	         6.89134e+57
          1496.21770	         7.83874e+57
          1497.02400	         1.03664e+58
          1497.83030	         8.18696e+57
          1498.63660	         6.77589e+57
          1499.44290	         7.26957e+57
          1500.24920	         7.90174e+57
          1501.05550	         8.78838e+57
          1501.86180	         8.80450e+57
          1502.66810	         9.65094e+57
          1503.47440	         9.05405e+57
          1504.28070	         7.68496e+57
          1505.08700	         7.97094e+57
          1505.89330	         8.74145e+57
          1506.69960	         8.36721e+57
          1507.50590	         8.01395e+57
          1508.31220	         7.80358e+57
          1509.11850	         8.41537e+57
          1509.92480	         9.40473e+57
          1510.73110	         9.53444e+57
          1511.53740	         8.66388e+57
          1512.34370	         6.77321e+57
          1513.15000	         7.78151e+57
          1513.95630	         1.00368e+58
          1514.76260	         9.61000e+57
          1515.56890	         8.66462e+57
          1516.37520	         9.44339e+57
          1517.18150	         8.95352e+57
          1517.98780	         7.88669e+57
          1518.79410	         7.41757e+57
          1519.60040	         8.00697e+57
          1520.40670	         9.57313e+57
          1521.21300	         9.37602e+57
          1522.01930	         8.44848e+57
          1522.82560	         9.21034e+57
          1523.63190	         1.09298e+58
          1524.43820	         9.65309e+57
          1525.24450	         6.85814e+57
          1526.05080	         6.06330e+57
          1526.85710	         6.26708e+57
          1527.66340	         6.84420e+57
          1528.46970	         7.49429e+57
          1529.27600	         7.56489e+57
          1530.08230	         7.58371e+57
          1530.88860	         7.63025e+57
          1531.69490	         9.38605e+57
          1532.50120	         1.02003e+58
          1533.30750	         1.05962e+58
          1534.11380	         1.01397e+58
          1534.92010	         8.77666e+57
          1535.72640	         9.18602e+57
          1536.53270	         8.93712e+57
          1537.33900	         8.16391e+57
          1538.14530	         8.27260e+57
          1538.95160	         8.99773e+57
          1539.75790	         8.71857e+57
          1540.56420	         8.50715e+57
          1541.37050	         8.72712e+57
          1542.17680	         8.68634e+57
          1542.98310	         7.36556e+57
          1543.78940	         6.79498e+57
          1544.59570	         7.14440e+57
          1545.40200	         7.82516e+57
          1546.20830	         9.30650e+57
          1547.01460	         1.06192e+58
          1547.82090	         1.21188e+58
          1548.62720	         1.24544e+58
          1549.43350	         1.12032e+58
          1550.23980	         1.05295e+58
          1551.04610	         1.16823e+58
          1551.85240	         1.20781e+58
          1552.65870	         1.06841e+58
          1553.46500	         1.03219e+58
          1554.27130	         9.71028e+57
          1555.07760	         9.79397e+57
          1555.88390	         9.47808e+57
          1556.69020	         8.81378e+57
          1557.49650	         8.62586e+57
          1558.30280	         8.90094e+57
          1559.10910	         9.05008e+57
          1559.91540	         8.58371e+57
          1560.72170	         8.25865e+57
          1561.52800	         7.78345e+57
          1562.33430	         8.05257e+57
          1563.14060	         8.11625e+57
          1563.94690	         8.09508e+57
          1564.75320	         8.53739e+57
          1565.55950	         7.05577e+57
          1566.36580	         7.97314e+57
          1567.17210	         9.21665e+57
          1567.97840	         9.54238e+57
          1568.78470	         9.12850e+57
          1569.59100	         8.41272e+57
          1570.39730	         8.05623e+57
          1571.20360	         7.06639e+57
          1572.00990	         6.97771e+57
          1572.81620	         8.03973e+57
          1573.62250	         9.46249e+57
          1574.42880	         8.82647e+57
          1575.23510	         8.31767e+57
          1576.04140	         9.56387e+57
          1576.84770	         9.74205e+57
          1577.65400	         8.43521e+57
          1578.46030	         9.23685e+57
          1579.26660	         9.85388e+57
          1580.07290	         9.37933e+57
          1580.87920	         8.38077e+57
          1581.68550	         8.10585e+57
          1582.49180	         8.45545e+57
          1583.29810	         8.64163e+57
          1584.10440	         8.93104e+57
          1584.91070	         9.56734e+57
          1585.71700	         9.51019e+57
          1586.52330	         8.81491e+57
          1587.32960	         7.95054e+57
          1588.13590	         7.75324e+57
          1588.94220	         8.03937e+57
          1589.74850	         9.54639e+57
          1590.55480	         9.24317e+57
          1591.36110	         8.00527e+57
          1592.16740	         8.72927e+57
          1592.97370	         9.09096e+57
          1593.78000	         8.66896e+57
          1594.58630	         8.86562e+57
          1595.39260	         8.50515e+57
          1596.19890	         9.11597e+57
          1597.00520	         9.92086e+57
          1597.81150	         8.92091e+57
          1598.61780	         7.37231e+57
          1599.42410	         7.33036e+57
          1600.23040	         7.15152e+57
          1601.03670	         6.96513e+57
          1601.84300	         7.62656e+57
          1602.64930	         8.67878e+57
          1603.45560	         8.65245e+57
          1604.26190	         8.04368e+57
          1605.06820	         8.01370e+57
          1605.87450	         7.43280e+57
          1606.68080	         7.56686e+57
          1607.48710	         7.01895e+57
          1608.29340	         5.85974e+57
          1609.09970	         6.92837e+57
          1609.90600	         7.37316e+57
          1610.71230	         6.53293e+57
          1611.51860	         6.78641e+57
          1612.32490	         6.93968e+57
          1613.13120	         8.36733e+57
          1613.93750	         8.15748e+57
          1614.74380	         8.43028e+57
          1615.55010	         8.97528e+57
          1616.35640	         9.46510e+57
          1617.16270	         1.02695e+58
          1617.96900	         1.05962e+58
          1618.77530	         8.96568e+57
          1619.58160	         8.02600e+57
          1620.38790	         7.85270e+57
          1621.19420	         9.18853e+57
          1622.00050	         8.95957e+57
          1622.80680	         9.56730e+57
          1623.61310	         9.21218e+57
          1624.41940	         7.67793e+57
          1625.22570	         9.23833e+57
          1626.03200	         9.17021e+57
          1626.83830	         7.44225e+57
          1627.64460	         6.69254e+57
          1628.45090	         6.16407e+57
          1629.25720	         8.54340e+57
          1630.06350	         9.92426e+57
          1630.86980	         7.75216e+57
          1631.67610	         9.01711e+57
          1632.48240	         9.58659e+57
          1633.28870	         8.20291e+57
          1634.09500	         8.70388e+57
          1634.90130	         1.00008e+58
          1635.70760	         8.95521e+57
          1636.51390	         7.80560e+57
          1637.32020	         7.33960e+57
          1638.12650	         8.78656e+57
          1638.93280	         9.44017e+57
          1639.73910	         1.07613e+58
          1640.54540	         1.08645e+58
          1641.35170	         8.86839e+57
          1642.15800	         8.41830e+57
          1642.96430	         8.02869e+57
          1643.77060	         7.85576e+57
          1644.57690	         8.30164e+57
          1645.38320	         8.65995e+57
          1646.18950	         7.10518e+57
          1646.99580	         8.16158e+57
          1647.80210	         6.59507e+57
          1648.60840	         5.90670e+57
          1649.41470	         7.81945e+57
          1650.22100	         8.08881e+57
          1651.02730	         8.01388e+57
          1651.83360	         8.05283e+57
          1652.63990	         8.95276e+57
          1653.44620	         8.98407e+57
          1654.25250	         7.79979e+57
          1655.05880	         8.15850e+57
          1655.86510	         7.89239e+57
          1656.67140	         8.15921e+57
          1657.47770	         7.84053e+57
          1658.28400	         7.66999e+57
          1659.09030	         8.70044e+57
          1659.89660	         8.83995e+57
          1660.70290	         1.04770e+58
          1661.50920	         1.07214e+58
          1662.31550	         9.05317e+57
          1663.12180	         8.41135e+57
          1663.92810	         9.95716e+57
          1664.73440	         1.10826e+58
          1665.54070	         1.17980e+58
          1666.34700	         1.26170e+58
          1667.15330	         1.19173e+58
          1667.95960	         9.27168e+57
          1668.76590	         7.98502e+57
          1669.57220	         6.59134e+57
          1670.37850	         6.46105e+57
          1671.18480	         7.69913e+57
          1671.99110	         7.80530e+57
          1672.79740	         7.56038e+57
          1673.60370	         7.19278e+57
          1674.41000	         7.60499e+57
          1675.21630	         7.00332e+57
          1676.02260	         6.51228e+57
          1676.82890	         6.35874e+57
          1677.63520	         6.69776e+57
          1678.44150	         6.62474e+57
          1679.24780	         7.34500e+57
          1680.05410	         6.82654e+57
          1680.86040	         6.53442e+57
          1681.66670	         7.20354e+57
          1682.47300	         8.21178e+57
          1683.27930	         8.16811e+57
          1684.08560	         9.02206e+57
          1684.89190	         8.15592e+57
          1685.69820	         5.98436e+57
          1686.50450	         5.37556e+57
          1687.31080	         7.53819e+57
          1688.11710	         8.40275e+57
          1688.92340	         6.86595e+57
          1689.72970	         6.82187e+57
          1690.53600	         6.40721e+57
          1691.34230	         7.08908e+57
          1692.14860	         8.13700e+57
          1692.95490	         8.04038e+57
          1693.76120	         7.84076e+57
          1694.56750	         6.92642e+57
          1695.37380	         8.18098e+57
          1696.18010	         8.87507e+57
          1696.98640	         8.85040e+57
          1697.79270	         8.15602e+57
          1698.59900	         8.54787e+57
          1699.40530	         7.92131e+57
          1700.21160	         7.07661e+57
          1701.01790	         7.49916e+57
          1701.82420	         7.90477e+57
          1702.63050	         8.44792e+57
          1703.43680	         9.35950e+57
          1704.24310	         9.15541e+57
          1705.04940	         8.66753e+57
          1705.85570	         7.87965e+57
          1706.66200	         7.79324e+57
          1707.46830	         8.22361e+57
          1708.27460	         7.40036e+57
          1709.08090	         6.83270e+57
          1709.88720	         5.70416e+57
          1710.69350	         6.40682e+57
          1711.49980	         8.00951e+57
          1712.30610	         7.56397e+57
          1713.11240	         8.66198e+57
          1713.91870	         7.95579e+57
          1714.72500	         7.23650e+57
          1715.53130	         8.79898e+57
          1716.33760	         8.97766e+57
          1717.14390	         8.22971e+57
          1717.95020	         8.87852e+57
          1718.75650	         8.47381e+57
          1719.56280	         7.85619e+57
          1720.36910	         6.65383e+57
          1721.17540	         7.28195e+57
          1721.98170	         6.65386e+57
          1722.78800	         6.32712e+57
          1723.59430	         7.15103e+57
          1724.40060	         7.83374e+57
          1725.20690	         7.87502e+57
          1726.01320	         7.78693e+57
          1726.81950	         7.77106e+57
          1727.62580	         7.46939e+57
          1728.43210	         7.42070e+57
          1729.23840	         7.81005e+57
          1730.04470	         7.64359e+57
          1730.85100	         8.05282e+57
          1731.65730	         9.16482e+57
          1732.46360	         8.63650e+57
          1733.26990	         6.42697e+57
          1734.07620	         6.16799e+57
          1734.88250	         7.96264e+57
          1735.68880	         8.39004e+57
          1736.49510	         7.93481e+57
          1737.30140	         7.34818e+57
          1738.10770	         6.56073e+57
          1738.91400	         7.31807e+57
          1739.72030	         6.79990e+57
          1740.52660	         5.88322e+57
          1741.33290	         5.22711e+57
          1742.13920	         5.21078e+57
          1742.94550	         6.09002e+57
          1743.75180	         6.84160e+57
          1744.55810	         7.22419e+57
          1745.36440	         6.17157e+57
          1746.17070	         5.60082e+57
          1746.97700	         6.01846e+57
          1747.78330	         6.74031e+57
          1748.58960	         6.91623e+57
          1749.39590	         7.83959e+57
          1750.20220	         7.25646e+57
          1751.00850	         6.75615e+57
          1751.81480	         6.58615e+57
          1752.62110	         7.65636e+57
          1753.42740	         8.64363e+57
          1754.23370	         7.47992e+57
          1755.04000	         6.32248e+57
          1755.84630	         7.21370e+57
          1756.65260	         8.49170e+57
          1757.45890	         8.52325e+57
          1758.26520	         7.15197e+57
          1759.07150	         9.54000e+57
          1759.87780	         8.71555e+57
          1760.68410	         8.16318e+57
          1761.49040	         8.04756e+57
          1762.29670	         6.05394e+57
          1763.10300	         6.81261e+57
          1763.90930	         6.92613e+57
          1764.71560	         7.61066e+57
          1765.52190	         7.17203e+57
          1766.32820	         8.15996e+57
          1767.13450	         8.04847e+57
          1767.94080	         5.78738e+57
          1768.74710	         6.18001e+57
          1769.55340	         7.01082e+57
          1770.35970	         5.89256e+57
          1771.16600	         6.78156e+57
          1771.97230	         8.31018e+57
          1772.77860	         7.79067e+57
          1773.58490	         6.47791e+57
          1774.39120	         6.02761e+57
          1775.19750	         5.60380e+57
          1776.00380	         6.04601e+57
          1776.81010	         7.09309e+57
          1777.61640	         7.34919e+57
          1778.42270	         7.01440e+57
          1779.22900	         6.86895e+57
          1780.03530	         6.41209e+57
          1780.84160	         7.48025e+57
          1781.64790	         8.99276e+57
          1782.45420	         7.59753e+57
          1783.26050	         6.20351e+57
          1784.06680	         7.38619e+57
          1784.87310	         7.92825e+57
          1785.67940	         7.94161e+57
          1786.48570	         7.20427e+57
          1787.29200	         5.87330e+57
          1788.09830	         5.40345e+57
          1788.90460	         5.59385e+57
          1789.71090	         5.27014e+57
          1790.51720	         6.62035e+57
          1791.32350	         8.86550e+57
          1792.12980	         8.72779e+57
          1792.93610	         7.63887e+57
          1793.74240	         7.03886e+57
          1794.54870	         8.08234e+57
          1795.35500	         8.73777e+57
          1796.16130	         7.91101e+57
          1796.96760	         6.82811e+57
          1797.77390	         7.67291e+57
          1798.58020	         7.71697e+57
          1799.38650	         6.91842e+57
          1800.19280	         6.99587e+57
          1800.99910	         8.24882e+57
          1801.80540	         8.51775e+57
          1802.61170	         7.73181e+57
          1803.41800	         7.73167e+57
          1804.22430	         7.59093e+57
          1805.03060	         7.37141e+57
          1805.83690	         8.48428e+57
          1806.64320	         6.96023e+57
          1807.44950	         6.37214e+57
          1808.25580	         6.62863e+57
          1809.06210	         8.43998e+57
          1809.86840	         6.84634e+57
          1810.67470	         6.88808e+57
          1811.48100	         8.13851e+57
          1812.28730	         8.53284e+57
          1813.09360	         8.53701e+57
          1813.89990	         8.63029e+57
          1814.70620	         7.84002e+57
          1815.51250	         8.18100e+57
          1816.31880	         8.18465e+57
          1817.12510	         7.31110e+57
          1817.93140	         7.16816e+57
          1818.73770	         7.31518e+57
          1819.54400	         7.89992e+57
          1820.35030	         8.45249e+57
          1821.15660	         6.22279e+57
          1821.96290	         6.24948e+57
          1822.76920	         7.37481e+57
          1823.57550	         8.15320e+57
          1824.38180	         7.90683e+57
          1825.18810	         8.03538e+57
          1825.99440	         7.82883e+57
          1826.80070	         7.21922e+57
          1827.60700	         6.88849e+57
          1828.41330	         6.13841e+57
          1829.21960	         7.23097e+57
          1830.02590	         8.23979e+57
          1830.83220	         8.31186e+57
          1831.63850	         8.69355e+57
          1832.44480	         7.97306e+57
          1833.25110	         7.96362e+57
          1834.05740	         8.61673e+57
          1834.86370	         7.66719e+57
          1835.67000	         5.84055e+57
          1836.47630	         7.36709e+57
          1837.28260	         7.95087e+57
          1838.08890	         8.44192e+57
          1838.89520	         8.38307e+57
          1839.70150	         7.12141e+57
          1840.50780	         8.38177e+57
          1841.31410	         6.87921e+57
          1842.12040	         6.48023e+57
          1842.92670	         7.59318e+57
          1843.73300	         7.29920e+57
          1844.53930	         6.65480e+57
          1845.34560	         6.70753e+57
          1846.15190	         7.03995e+57
          1846.95820	         8.15159e+57
          1847.76450	         6.73746e+57
          1848.57080	         5.91604e+57
          1849.37710	         5.01601e+57
          1850.18340	         6.12803e+57
          1850.98970	         8.17118e+57
          1851.79600	         8.92920e+57
          1852.60230	         7.63533e+57
          1853.40860	         6.39462e+57
          1854.21490	         7.66193e+57
          1855.02120	         6.68355e+57
          1855.82750	         4.15663e+57
          1856.63380	         6.27176e+57
          1857.44010	         7.61174e+57
          1858.24640	         6.27386e+57
          1859.05270	         5.85954e+57
          1859.85900	         5.39192e+57
          1860.66530	         6.58112e+57
          1861.47160	         6.66005e+57
          1862.27790	         6.26343e+57
          1863.08420	         7.77332e+57
          1863.89050	         7.68547e+57
          1864.69680	         7.46963e+57
          1865.50310	         7.23182e+57
          1866.30940	         5.69927e+57
          1867.11570	         6.00850e+57
          1867.92200	         7.53443e+57
          1868.72830	         7.69755e+57
          1869.53460	         7.94797e+57
          1870.34090	         8.11513e+57
          1871.14720	         7.71311e+57
          1871.95350	         7.77006e+57
          1872.75980	         7.80776e+57
          1873.56610	         6.47637e+57
          1874.37240	         5.98234e+57
          1875.17870	         5.57058e+57
          1875.98500	         7.56091e+57
          1876.79130	         7.44586e+57
          1877.59760	         6.00560e+57
          1878.40390	         5.53734e+57
          1879.21020	         5.81608e+57
          1880.01650	         6.78914e+57
          1880.82280	         7.72990e+57
          1881.62910	         8.61945e+57
          1882.43540	         9.29818e+57
          1883.24170	         8.27413e+57
          1884.04800	         6.10159e+57
          1884.85430	         6.67336e+57
          1885.66060	         8.53907e+57
          1886.46690	         7.90687e+57
          1887.27320	         7.81234e+57
          1888.07950	         6.32621e+57
          1888.88580	         6.76816e+57
          1889.69210	         8.69086e+57
          1890.49840	         7.93486e+57
          1891.30470	         7.70906e+57
          1892.11100	         7.45185e+57
          1892.91730	         7.73340e+57
          1893.72360	         7.97552e+57
          1894.52990	         7.80471e+57
          1895.33620	         9.37829e+57
          1896.14250	         8.56665e+57
          1896.94880	         6.79204e+57
          1897.75510	         5.44008e+57
          1898.56140	         5.02626e+57
          1899.36770	         6.51939e+57
          1900.17400	         7.14067e+57
          1900.98030	         7.41121e+57
          1901.78660	         8.04726e+57
          1902.59290	         7.06447e+57
          1903.39920	         8.18398e+57
          1904.20550	         8.43368e+57
          1905.01180	         8.41109e+57
          1905.81810	         8.30242e+57
          1906.62440	         1.05570e+58
          1907.43070	         1.41019e+58
          1908.23700	         1.54882e+58
          1909.04330	         1.30635e+58
          1909.84960	         1.16098e+58
          1910.65590	         1.04149e+58
          1911.46220	         8.96291e+57
          1912.26850	         6.94865e+57
          1913.07480	         5.24481e+57
          1913.88110	         5.11344e+57
          1914.68740	         6.46907e+57
          1915.49370	         5.97771e+57
          1916.30000	         6.14578e+57
          1917.10630	         6.61245e+57
          1917.91260	         6.42731e+57
          1918.71890	         7.05572e+57
          1919.52520	         7.55270e+57
          1920.33150	         6.77280e+57
          1921.13780	         6.96797e+57
          1921.94410	         7.65057e+57
          1922.75040	         7.25497e+57
          1923.55670	         8.01772e+57
          1924.36300	         8.33726e+57
          1925.16930	         7.57806e+57
          1925.97560	         6.25684e+57
          1926.78190	         5.80245e+57
          1927.58820	         6.00481e+57
          1928.39450	         6.97868e+57
          1929.20080	         6.02808e+57
          1930.00710	         5.64092e+57
          1930.81340	         7.09963e+57
          1931.61970	         6.89097e+57
          1932.42600	         7.34770e+57
          1933.23230	         8.56733e+57
          1934.03860	         7.68921e+57
          1934.84490	         4.72888e+57
          1935.65120	         6.38579e+57
          1936.45750	         8.34537e+57
          1937.26380	         7.12444e+57
          1938.07010	         8.59303e+57
          1938.87640	         8.65010e+57
          1939.68270	         7.16501e+57
          1940.48900	         8.00469e+57
          1941.29530	         8.31913e+57
          1942.10160	         8.97740e+57
          1942.90790	         6.82672e+57
          1943.71420	         5.50314e+57
          1944.52050	         4.34030e+57
          1945.32680	         5.25876e+57
          1946.13310	         7.69759e+57
          1946.93940	         8.47484e+57
          1947.74570	         7.18841e+57
          1948.55200	         6.75000e+57
          1949.35830	         6.48943e+57
          1950.16460	         5.66007e+57
          1950.97090	         6.37542e+57
          1951.77720	         7.45074e+57
          1952.58350	         7.64305e+57
          1953.38980	         6.43388e+57
          1954.19610	         5.30296e+57
          1955.00240	         5.35474e+57
          1955.80870	         6.30751e+57
          1956.61500	         6.24558e+57
          1957.42130	         6.03183e+57
          1958.22760	         6.50478e+57
          1959.03390	         8.22850e+57
          1959.84020	         7.61074e+57
          1960.64650	         7.03704e+57
          1961.45280	         6.94011e+57
          1962.25910	         6.00603e+57
          1963.06540	         5.83314e+57
          1963.87170	         5.89443e+57
          1964.67800	         6.24946e+57
          1965.48430	         6.33568e+57
          1966.29060	         6.83776e+57
          1967.09690	         7.92919e+57
          1967.90320	         7.72448e+57
          1968.70950	         7.81024e+57
          1969.51580	         7.21738e+57
          1970.32210	         6.55054e+57
          1971.12840	         6.42148e+57
          1971.93470	         5.43254e+57
          1972.74100	         4.62583e+57
          1973.54730	         6.62459e+57
          1974.35360	         6.78166e+57
          1975.15990	         7.91992e+57
          1975.96620	         7.15898e+57
          1976.77250	         7.30623e+57
          1977.57880	         6.72739e+57
          1978.38510	         6.03984e+57
          1979.19140	         7.49596e+57
          1979.99770	         7.35399e+57
          1980.80400	         7.44514e+57
          1981.61030	         7.52960e+57
          1982.41660	         6.12861e+57
          1983.22290	         6.25082e+57
          1984.02920	         6.48705e+57
          1984.83550	         6.18949e+57
          1985.64180	         7.09787e+57
          1986.44810	         6.76005e+57
          1987.25440	         5.48360e+57
          1988.06070	         5.30415e+57
          1988.86700	         6.25215e+57
          1989.67330	         6.36717e+57
          1990.47960	         5.90081e+57
          1991.28590	         6.40742e+57
          1992.09220	         7.23488e+57
          1992.89850	         5.99751e+57
          1993.70480	         4.77439e+57
          1994.51110	         3.65155e+57
          1995.31740	         3.92583e+57
          1996.12370	         4.71852e+57
          1996.93000	         5.95442e+57
          1997.73630	         8.08971e+57
          1998.54260	         7.51815e+57
          1999.34890	         6.50948e+57
          2000.15520	         6.39114e+57
          2000.96150	         7.64884e+57
          2001.76780	         6.35197e+57
          2002.57410	         6.17177e+57
          2003.38040	         6.50227e+57
          2004.18670	         6.36878e+57
          2004.99300	         6.36822e+57
          2005.79930	         7.56002e+57
          2006.60560	         6.83422e+57
          2007.41190	         5.87308e+57
          2008.21820	         6.29984e+57
          2009.02450	         6.39133e+57
          2009.83080	         6.31394e+57
          2010.63710	         6.86441e+57
          2011.44340	         7.47751e+57
          2012.24970	         6.20989e+57
          2013.05600	         6.84769e+57
          2013.86230	         6.02264e+57
          2014.66860	         4.31827e+57
          2015.47490	         5.53637e+57
          2016.28120	         6.75378e+57
          2017.08750	         6.43626e+57
          2017.89380	         6.26114e+57
          2018.70010	         5.82377e+57
          2019.50640	         4.79709e+57
          2020.31270	         5.93591e+57
          2021.11900	         6.48395e+57
          2021.92530	         5.83668e+57
          2022.73160	         6.47838e+57
          2023.53790	         7.05580e+57
          2024.34420	         6.65382e+57
          2025.15050	         5.17480e+57
          2025.95680	         4.62486e+57
          2026.76310	         5.94224e+57
          2027.56940	         6.94755e+57
          2028.37570	         7.49778e+57
          2029.18200	         6.23988e+57
          2029.98830	         6.40760e+57
          2030.79460	         6.90442e+57
          2031.60090	         5.45984e+57
          2032.40720	         5.09741e+57
          2033.21350	         5.04495e+57
          2034.01980	         5.31721e+57
          2034.82610	         5.02050e+57
          2035.63240	         6.00949e+57
          2036.43870	         6.23445e+57
          2037.24500	         6.42445e+57
          2038.05130	         6.04632e+57
          2038.85760	         6.10350e+57
          2039.66390	         6.19086e+57
          2040.47020	         5.85370e+57
          2041.27650	         6.09182e+57
          2042.08280	         5.68657e+57
          2042.88910	         5.25052e+57
          2043.69540	         7.90147e+57
          2044.50170	         6.07737e+57
          2045.30800	         5.20809e+57
          2046.11430	         5.11496e+57
          2046.92060	         5.69684e+57
          2047.72690	         5.97581e+57
          2048.53320	         5.59267e+57
          2049.33950	         4.79449e+57
          2050.14580	         5.78526e+57
          2050.95210	         4.98131e+57
          2051.75840	         6.76839e+57
          2052.56470	         6.13211e+57
          2053.37100	         3.83127e+57
          2054.17730	         3.33777e+57
          2054.98360	         4.76954e+57
          2055.78990	         5.29121e+57
          2056.59620	         4.46323e+57
          2057.40250	         5.12924e+57
          2058.20880	         7.08647e+57
          2059.01510	         6.41411e+57
          2059.82140	         6.17639e+57
          2060.62770	         8.61852e+57
          2061.43400	         1.54147e+58
          2062.24030	         1.15536e+58
          2063.04660	         5.52173e+57
          2063.85290	         2.87765e+57
          2064.65920	         1.07204e+56
          2065.46550	        -5.87501e+57
          2066.27180	        -7.89981e+57
          2067.07810	         2.62702e+57
          2067.88440	         4.69739e+57
          2068.69070	         5.64794e+57
          2069.49700	         6.17409e+57
          2070.30330	         6.68295e+57
          2071.10960	         4.25429e+57
          2071.91590	         7.24802e+57
          2072.72220	         4.25369e+57
          2073.52850	         4.31239e+57
          2074.33480	         3.75407e+57
          2075.14110	         4.77433e+57
          2075.94740	         4.06680e+57
          2076.75370	         4.68388e+57
          2077.56000	         4.87549e+57
          2078.36630	         4.42280e+57
          2079.17260	         3.83381e+57
          2079.97890	         4.67831e+57
          2080.78520	         5.86766e+57
          2081.59150	         4.29684e+57
          2082.39780	         3.87583e+57
          2083.20410	         1.64358e+57
          2084.01040	         1.12254e+57
          2084.81670	         3.98832e+57
          2085.62300	         4.32525e+57
          2086.42930	         4.32600e+57
          2087.23560	         3.12517e+57
          2088.04190	         2.39645e+57
          2088.84820	         3.54568e+57
          2089.65450	         3.84971e+57
          2090.46080	         2.73995e+57
          2091.26710	         2.70401e+57
          2092.07340	         3.31887e+57
          2092.87970	         3.28253e+57
          2093.68600	         8.90597e+56
          2094.49230	         2.11792e+57
          2095.29860	         4.49879e+57
          2096.10490	         2.53994e+57
          2096.91120	         4.05997e+57
          2097.71750	         2.52458e+57
          2098.52380	        -5.14151e+56
          2099.33010	         6.45134e+56
          2100.13640	         2.35738e+57
          2100.94270	         2.00194e+57
          2101.74900	         1.37032e+57
          2102.55530	         2.24672e+57
          2103.36160	         3.10687e+57
          2104.16790	         1.06741e+57
          2104.97420	        -1.49719e+57
          2105.78050	        -1.98809e+56
          2106.58680	        -7.22998e+55
          2107.39310	         1.77006e+57
          2108.19940	         2.13918e+57
          2109.00570	        -3.37450e+56
          2109.81200	        -6.32910e+55
          2110.61830	        -8.75687e+56
          2111.42460	         1.72668e+57
          2112.23090	         1.47480e+57
          2113.03720	        -5.35260e+56
          2113.84350	         5.27701e+56
          2114.64980	        -6.53290e+56
          2115.45610	        -2.96744e+57
          2116.26240	        -4.30091e+57
          2117.06870	        -1.95281e+57
          2117.87500	        -5.99226e+57
          2118.68130	         2.27789e+57
          2119.48760	         3.46745e+57
          2120.29390	         6.47406e+57
          2121.10020	        -4.88983e+57
          2121.90650	        -2.62987e+57
          2122.71280	         1.27741e+57
          2123.51910	         1.24410e+57
          2124.32540	        -3.33748e+57
          2125.13170	        -2.80898e+57
          2125.93800	        -2.73107e+57
          2126.74430	        -1.06333e+57
          2127.55060	        -7.42025e+57
          2128.35690	        -3.09482e+57
          2129.16320	        -5.12947e+57
          2129.96950	        -9.54501e+57
          2130.77580	        -1.47236e+57
          2131.58210	         1.48441e+57
          2132.38840	        -3.39394e+57
          2133.19470	        -1.50590e+57
          2134.00100	         2.05004e+57
          2134.80730	        -1.38419e+57
          2135.61360	         1.00784e+58
          2136.41990	         1.09431e+58
          2137.22620	         5.21047e+57
          2138.03250	         3.97303e+57
          2138.83880	        -1.85313e+57
          2139.64510	        -6.07886e+57
          2140.45140	        -4.22945e+57
          2141.25770	        -6.40601e+57
          2142.06400	        -8.38970e+57
          2142.87030	        -1.14504e+57
          2143.67660	         7.26322e+57
          2144.48290	         1.24932e+58
          2145.28920	         9.47416e+57
          2146.09550	        -4.12023e+57
          2146.90180	        -4.15854e+57
          2147.70810	        -4.92015e+57
          2148.51440	        -4.16428e+56
          2149.32070	        -1.57831e+58
          2150.12700	        -1.11543e+58
          2150.93330	         2.68762e+57
          2151.73960	         4.13546e+57
          2152.54590	        -2.04791e+57
          2153.35220	        -1.16170e+58
          2154.15850	        -1.45377e+58
          2154.96480	         3.97595e+56
          2155.77110	        -8.61005e+57
          2156.57740	        -2.11824e+57
          2157.38370	        -7.31711e+57
          2158.19000	        -1.26846e+58
          2158.99630	        -1.15277e+58
          2159.80260	        -1.24450e+58
          2160.60890	        -2.69041e+57
          2161.41520	        -1.92364e+57
          2162.22150	        -3.11452e+57
          2163.02780	         3.53268e+57
          2163.83410	        -1.11207e+58
          2164.64040	        -5.66309e+57
          2165.44670	        -6.13639e+57
          2166.25300	        -4.71574e+57
          2167.05930	        -1.16085e+58
          2167.86560	        -1.36761e+58
          2168.67190	        -1.46126e+58
          2169.47820	        -1.42255e+58
          2170.28450	        -5.98933e+57
          2171.09080	        -3.89249e+57
          2171.89710	         7.16358e+57
          2172.70340	        -6.46037e+57
          2173.50970	        -1.36928e+58
          2174.31600	        -6.24452e+57
          2175.12230	        -3.68505e+55
          2175.92860	        -2.67881e+57
          2176.73490	        -4.45931e+57
          2177.54120	        -3.31316e+57
          2178.34750	        -5.07019e+57
          2179.15380	                 nan
          2179.96010	                 nan
          2180.76640	                 nan
          2181.57270	                 nan
          2182.37900	                 nan
          2183.18530	                 nan
          2183.99160	                 nan
          2184.79790	                 nan
          2185.60420	                 nan
          2186.41050	                 nan
          2187.21680	                 nan
          2188.02310	                 nan
          2188.82940	                 nan
          2189.63570	                 nan
          2190.44200	                 nan
          2191.24830	                 nan
          2192.05460	                 nan
          2192.86090	                 nan
          2193.66720	                 nan
          2194.47350	                 nan
          2195.27980	                 nan
          2196.08610	                 nan
          2196.89240	                 nan
          2197.69870	                 nan
          2198.50500	                 nan
          2199.31130	                 nan
          2200.11760	                 nan
          2200.92390	                 nan
          2201.73020	                 nan
          2202.53650	                 nan
          2203.34280	                 nan
          2204.14910	                 nan
          2204.95540	                 nan
          2205.76170	                 nan
          2206.56800	                 nan
          2207.37430	                 nan
          2208.18060	                 nan
          2208.98690	                 nan
          2209.79320	                 nan
          2210.59950	                 nan
          2211.40580	                 nan
          2212.21210	                 nan
          2213.01840	                 nan
          2213.82470	                 nan
          2214.63100	                 nan
          2215.43730	         0.00000e+00
