#sample_72_stacked_spectrum_rest_UV-bands_median_H-alpha_noDC.txt
#median Lum: 1.71867e+42
#Rest-frame wavelength (A) | Luminosity (erg/s/A)
#
          1110.00000	         0.00000e+00
          1110.80630	        -1.60873e+58
          1111.61260	         1.70037e+59
          1112.41890	         1.92507e+59
          1113.22520	         1.02156e+59
          1114.03150	        -1.81778e+58
          1114.83780	         1.90064e+59
          1115.64410	         1.61816e+59
          1116.45040	         7.14023e+58
          1117.25670	        -1.06935e+59
          1118.06300	         7.47836e+58
          1118.86930	         3.47973e+58
          1119.67560	         1.21288e+59
          1120.48190	         2.42574e+58
          1121.28820	        -9.93932e+58
          1122.09450	         7.99197e+57
          1122.90080	         2.81870e+58
          1123.70710	         6.09005e+58
          1124.51340	         4.23647e+58
          1125.31970	         5.02350e+58
          1126.12600	         1.38787e+58
          1126.93230	        -1.93885e+58
          1127.73860	        -2.44102e+58
          1128.54490	         2.86184e+58
          1129.35120	         2.50683e+58
          1130.15750	        -2.84430e+58
          1130.96380	        -3.25131e+58
          1131.77010	         2.73018e+58
          1132.57640	         3.36216e+58
          1133.38270	         3.46895e+58
          1134.18900	         1.38471e+58
          1134.99530	         1.27847e+58
          1135.80160	         2.26856e+58
          1136.60790	         2.49404e+57
          1137.41420	        -2.81506e+58
          1138.22050	         1.46587e+58
          1139.02680	         7.54339e+57
          1139.83310	         9.80029e+57
          1140.63940	         2.57177e+58
          1141.44570	        -1.65224e+58
          1142.25200	         5.77170e+57
          1143.05830	         3.08308e+58
          1143.86460	         1.35875e+58
          1144.67090	        -2.35000e+57
          1145.47720	         7.03110e+57
          1146.28350	         8.55905e+57
          1147.08980	         6.01524e+57
          1147.89610	         1.52965e+58
          1148.70240	         2.59322e+58
          1149.50870	         2.49832e+58
          1150.31500	         6.17011e+57
          1151.12130	        -2.29098e+57
          1151.92760	        -4.65878e+57
          1152.73390	         7.49856e+57
          1153.54020	         8.42192e+57
          1154.34650	         2.05997e+58
          1155.15280	         1.54483e+58
          1155.95910	         7.59189e+57
          1156.76540	         7.83741e+57
          1157.57170	        -9.92470e+56
          1158.37800	         1.07550e+56
          1159.18430	        -1.45901e+57
          1159.99060	         7.45360e+57
          1160.79690	         4.30342e+57
          1161.60320	         1.20403e+58
          1162.40950	         1.51767e+58
          1163.21580	         1.27740e+58
          1164.02210	         6.80984e+57
          1164.82840	         1.50059e+58
          1165.63470	         1.95082e+58
          1166.44100	         2.75790e+58
          1167.24730	         2.25894e+58
          1168.05360	         1.00150e+58
          1168.85990	         4.98152e+57
          1169.66620	         7.63750e+57
          1170.47250	         1.06479e+58
          1171.27880	         1.38492e+58
          1172.08510	         2.00937e+58
          1172.89140	         1.69982e+58
          1173.69770	         7.26111e+57
          1174.50400	         1.41658e+58
          1175.31030	         2.02227e+58
          1176.11660	         2.00001e+58
          1176.92290	         1.56423e+58
          1177.72920	         1.28928e+58
          1178.53550	         9.15681e+57
          1179.34180	         3.75682e+57
          1180.14810	         8.92558e+57
          1180.95440	         1.18987e+58
          1181.76070	         1.02147e+58
          1182.56700	         6.77108e+57
          1183.37330	         5.99210e+57
          1184.17960	         8.45726e+57
          1184.98590	         1.06598e+58
          1185.79220	         4.73904e+57
          1186.59850	         8.19680e+57
          1187.40480	         1.02636e+58
          1188.21110	         1.22111e+58
          1189.01740	         1.04865e+58
          1189.82370	         1.12929e+58
          1190.63000	         1.07915e+58
          1191.43630	         5.02950e+57
          1192.24260	         9.15365e+57
          1193.04890	         1.32351e+58
          1193.85520	         1.32875e+58
          1194.66150	         5.72997e+57
          1195.46780	         1.43553e+58
          1196.27410	         1.98887e+58
          1197.08040	         1.08363e+58
          1197.88670	         1.06025e+58
          1198.69300	         1.42071e+58
          1199.49930	         1.75480e+58
          1200.30560	         1.31324e+58
          1201.11190	         1.06562e+58
          1201.91820	         1.42316e+58
          1202.72450	         1.21830e+58
          1203.53080	         1.38105e+58
          1204.33710	         7.81195e+57
          1205.14340	         6.62069e+57
          1205.94970	         3.71490e+57
          1206.75600	         6.53829e+57
          1207.56230	         5.92631e+57
          1208.36860	         8.51040e+57
          1209.17490	         2.22793e+57
          1209.98120	         5.80632e+57
          1210.78750	         9.24133e+57
          1211.59380	         1.23768e+58
          1212.40010	         1.44111e+58
          1213.20640	         2.13076e+58
          1214.01270	         2.00774e+58
          1214.81900	         2.58058e+58
          1215.62530	         4.51525e+58
          1216.43160	         8.85012e+58
          1217.23790	         1.50749e+59
          1218.04420	         1.16893e+59
          1218.85050	         8.37377e+58
          1219.65680	         5.51325e+58
          1220.46310	         3.36205e+58
          1221.26940	         2.28263e+58
          1222.07570	         1.44655e+58
          1222.88200	         1.29201e+58
          1223.68830	         9.66013e+57
          1224.49460	         6.85676e+57
          1225.30090	         7.27382e+57
          1226.10720	         8.71885e+57
          1226.91350	         7.25880e+57
          1227.71980	         5.93440e+57
          1228.52610	         6.42958e+57
          1229.33240	         5.70278e+57
          1230.13870	         4.94955e+57
          1230.94500	         6.22932e+57
          1231.75130	         7.59473e+57
          1232.55760	         9.78740e+57
          1233.36390	         1.01688e+58
          1234.17020	         9.80633e+57
          1234.97650	         7.05744e+57
          1235.78280	         7.72818e+57
          1236.58910	         8.06573e+57
          1237.39540	         1.05821e+58
          1238.20170	         1.22339e+58
          1239.00800	         1.38658e+58
          1239.81430	         1.40435e+58
          1240.62060	         1.07383e+58
          1241.42690	         1.02438e+58
          1242.23320	         1.21923e+58
          1243.03950	         9.44607e+57
          1243.84580	         6.43385e+57
          1244.65210	         1.01984e+58
          1245.45840	         1.27910e+58
          1246.26470	         1.02395e+58
          1247.07100	         5.41987e+57
          1247.87730	         5.77776e+57
          1248.68360	         4.91810e+57
          1249.48990	         7.21851e+57
          1250.29620	         1.14800e+58
          1251.10250	         1.11310e+58
          1251.90880	         8.35660e+57
          1252.71510	         6.03298e+57
          1253.52140	         7.84122e+57
          1254.32770	         1.02482e+58
          1255.13400	         1.25150e+58
          1255.94030	         1.14123e+58
          1256.74660	         1.16595e+58
          1257.55290	         1.06946e+58
          1258.35920	         7.16028e+57
          1259.16550	         3.68068e+57
          1259.97180	         6.73784e+57
          1260.77810	         1.12116e+58
          1261.58440	         1.20268e+58
          1262.39070	         9.67116e+57
          1263.19700	         9.15372e+57
          1264.00330	         8.93789e+57
          1264.80960	         1.09204e+58
          1265.61590	         1.31423e+58
          1266.42220	         1.20547e+58
          1267.22850	         1.11825e+58
          1268.03480	         1.46764e+58
          1268.84110	         1.55549e+58
          1269.64740	         1.33075e+58
          1270.45370	         1.26501e+58
          1271.26000	         1.28548e+58
          1272.06630	         1.20408e+58
          1272.87260	         1.03885e+58
          1273.67890	         1.22544e+58
          1274.48520	         1.20483e+58
          1275.29150	         1.04620e+58
          1276.09780	         1.07911e+58
          1276.90410	         1.58310e+58
          1277.71040	         1.41380e+58
          1278.51670	         1.32045e+58
          1279.32300	         1.43022e+58
          1280.12930	         1.21613e+58
          1280.93560	         1.07855e+58
          1281.74190	         1.10615e+58
          1282.54820	         1.14249e+58
          1283.35450	         9.91500e+57
          1284.16080	         9.91347e+57
          1284.96710	         1.27426e+58
          1285.77340	         1.10005e+58
          1286.57970	         9.12344e+57
          1287.38600	         1.19828e+58
          1288.19230	         1.50119e+58
          1288.99860	         1.51788e+58
          1289.80490	         1.23365e+58
          1290.61120	         1.25495e+58
          1291.41750	         1.40263e+58
          1292.22380	         1.30348e+58
          1293.03010	         1.00912e+58
          1293.83640	         1.14880e+58
          1294.64270	         1.04081e+58
          1295.44900	         5.47064e+57
          1296.25530	         6.74685e+57
          1297.06160	         9.20075e+57
          1297.86790	         9.98913e+57
          1298.67420	         8.22822e+57
          1299.48050	         8.06962e+57
          1300.28680	         9.39414e+57
          1301.09310	         6.46561e+57
          1301.89940	         3.54126e+57
          1302.70570	         5.69799e+57
          1303.51200	         6.80613e+57
          1304.31830	         9.00014e+57
          1305.12460	         9.98664e+57
          1305.93090	         1.11204e+58
          1306.73720	         1.21074e+58
          1307.54350	         1.28030e+58
          1308.34980	         1.53386e+58
          1309.15610	         1.77027e+58
          1309.96240	         1.71976e+58
          1310.76870	         1.37300e+58
          1311.57500	         1.07901e+58
          1312.38130	         1.28446e+58
          1313.18760	         1.51211e+58
          1313.99390	         1.57969e+58
          1314.80020	         1.65132e+58
          1315.60650	         1.65658e+58
          1316.41280	         1.54095e+58
          1317.21910	         1.25927e+58
          1318.02540	         1.18651e+58
          1318.83170	         1.30262e+58
          1319.63800	         1.23396e+58
          1320.44430	         1.06794e+58
          1321.25060	         1.17049e+58
          1322.05690	         1.16304e+58
          1322.86320	         1.18645e+58
          1323.66950	         1.13155e+58
          1324.47580	         8.82639e+57
          1325.28210	         8.74947e+57
          1326.08840	         1.10594e+58
          1326.89470	         1.24013e+58
          1327.70100	         1.07235e+58
          1328.50730	         8.72364e+57
          1329.31360	         9.11322e+57
          1330.11990	         9.93174e+57
          1330.92620	         9.72329e+57
          1331.73250	         1.18328e+58
          1332.53880	         1.09693e+58
          1333.34510	         9.70668e+57
          1334.15140	         9.47156e+57
          1334.95770	         9.11934e+57
          1335.76400	         9.95223e+57
          1336.57030	         1.00983e+58
          1337.37660	         1.10718e+58
          1338.18290	         1.20675e+58
          1338.98920	         1.23956e+58
          1339.79550	         1.14610e+58
          1340.60180	         1.20979e+58
          1341.40810	         1.41059e+58
          1342.21440	         1.32018e+58
          1343.02070	         1.30661e+58
          1343.82700	         1.45917e+58
          1344.63330	         1.41797e+58
          1345.43960	         1.31183e+58
          1346.24590	         1.06803e+58
          1347.05220	         1.06100e+58
          1347.85850	         9.23770e+57
          1348.66480	         1.12475e+58
          1349.47110	         1.19032e+58
          1350.27740	         1.03480e+58
          1351.08370	         1.13794e+58
          1351.89000	         1.21955e+58
          1352.69630	         1.23405e+58
          1353.50260	         1.16463e+58
          1354.30890	         1.16876e+58
          1355.11520	         1.23314e+58
          1355.92150	         1.04251e+58
          1356.72780	         8.96534e+57
          1357.53410	         9.36916e+57
          1358.34040	         1.07275e+58
          1359.14670	         1.17233e+58
          1359.95300	         1.22909e+58
          1360.75930	         1.17687e+58
          1361.56560	         1.13877e+58
          1362.37190	         1.23452e+58
          1363.17820	         1.03975e+58
          1363.98450	         9.35496e+57
          1364.79080	         1.20567e+58
          1365.59710	         1.29058e+58
          1366.40340	         1.10492e+58
          1367.20970	         9.28356e+57
          1368.01600	         1.04272e+58
          1368.82230	         1.11523e+58
          1369.62860	         1.10453e+58
          1370.43490	         8.94447e+57
          1371.24120	         1.00672e+58
          1372.04750	         9.67714e+57
          1372.85380	         1.13892e+58
          1373.66010	         1.17864e+58
          1374.46640	         1.11195e+58
          1375.27270	         1.22286e+58
          1376.07900	         1.07205e+58
          1376.88530	         8.92857e+57
          1377.69160	         9.36795e+57
          1378.49790	         8.48814e+57
          1379.30420	         8.74102e+57
          1380.11050	         9.54851e+57
          1380.91680	         9.56657e+57
          1381.72310	         7.90233e+57
          1382.52940	         8.03910e+57
          1383.33570	         8.72867e+57
          1384.14200	         1.00465e+58
          1384.94830	         1.16448e+58
          1385.75460	         1.24486e+58
          1386.56090	         1.20721e+58
          1387.36720	         8.73027e+57
          1388.17350	         1.09178e+58
          1388.97980	         1.02200e+58
          1389.78610	         9.04289e+57
          1390.59240	         9.64547e+57
          1391.39870	         7.58470e+57
          1392.20500	         9.33995e+57
          1393.01130	         8.03687e+57
          1393.81760	         5.89670e+57
          1394.62390	         7.54813e+57
          1395.43020	         6.94867e+57
          1396.23650	         5.82936e+57
          1397.04280	         7.70030e+57
          1397.84910	         8.74545e+57
          1398.65540	         9.83324e+57
          1399.46170	         1.07094e+58
          1400.26800	         8.36456e+57
          1401.07430	         7.68657e+57
          1401.88060	         8.45237e+57
          1402.68690	         9.88595e+57
          1403.49320	         1.05887e+58
          1404.29950	         9.08364e+57
          1405.10580	         9.97957e+57
          1405.91210	         1.12337e+58
          1406.71840	         1.04021e+58
          1407.52470	         8.51844e+57
          1408.33100	         8.45342e+57
          1409.13730	         1.10025e+58
          1409.94360	         1.16258e+58
          1410.74990	         1.14597e+58
          1411.55620	         1.02808e+58
          1412.36250	         9.25707e+57
          1413.16880	         7.93826e+57
          1413.97510	         7.19089e+57
          1414.78140	         8.55136e+57
          1415.58770	         1.03597e+58
          1416.39400	         1.19336e+58
          1417.20030	         1.22720e+58
          1418.00660	         1.08381e+58
          1418.81290	         1.13347e+58
          1419.61920	         1.15803e+58
          1420.42550	         1.42524e+58
          1421.23180	         1.51579e+58
          1422.03810	         1.38120e+58
          1422.84440	         1.23062e+58
          1423.65070	         1.44245e+58
          1424.45700	         1.20672e+58
          1425.26330	         8.61590e+57
          1426.06960	         7.99844e+57
          1426.87590	         9.25608e+57
          1427.68220	         1.04904e+58
          1428.48850	         1.07377e+58
          1429.29480	         1.03932e+58
          1430.10110	         1.01979e+58
          1430.90740	         8.20367e+57
          1431.71370	         8.39322e+57
          1432.52000	         9.02553e+57
          1433.32630	         8.00606e+57
          1434.13260	         7.75220e+57
          1434.93890	         8.37403e+57
          1435.74520	         8.55879e+57
          1436.55150	         9.58919e+57
          1437.35780	         9.74120e+57
          1438.16410	         9.14553e+57
          1438.97040	         9.37891e+57
          1439.77670	         8.93330e+57
          1440.58300	         8.75012e+57
          1441.38930	         9.78751e+57
          1442.19560	         1.00573e+58
          1443.00190	         9.76348e+57
          1443.80820	         9.99092e+57
          1444.61450	         8.59342e+57
          1445.42080	         9.37542e+57
          1446.22710	         1.10279e+58
          1447.03340	         1.00814e+58
          1447.83970	         1.07251e+58
          1448.64600	         1.10044e+58
          1449.45230	         1.08381e+58
          1450.25860	         1.00780e+58
          1451.06490	         9.83547e+57
          1451.87120	         8.55501e+57
          1452.67750	         7.86820e+57
          1453.48380	         8.31363e+57
          1454.29010	         7.68326e+57
          1455.09640	         6.71807e+57
          1455.90270	         8.02221e+57
          1456.70900	         1.02525e+58
          1457.51530	         1.20002e+58
          1458.32160	         1.26024e+58
          1459.12790	         1.01848e+58
          1459.93420	         8.17629e+57
          1460.74050	         8.03823e+57
          1461.54680	         8.33471e+57
          1462.35310	         8.54626e+57
          1463.15940	         8.24816e+57
          1463.96570	         1.00690e+58
          1464.77200	         1.23234e+58
          1465.57830	         1.03849e+58
          1466.38460	         8.32588e+57
          1467.19090	         8.46896e+57
          1467.99720	         9.13499e+57
          1468.80350	         9.48162e+57
          1469.60980	         9.52459e+57
          1470.41610	         1.05631e+58
          1471.22240	         1.00104e+58
          1472.02870	         9.81871e+57
          1472.83500	         1.05505e+58
          1473.64130	         9.76541e+57
          1474.44760	         8.94637e+57
          1475.25390	         8.23752e+57
          1476.06020	         7.24721e+57
          1476.86650	         7.39993e+57
          1477.67280	         7.99376e+57
          1478.47910	         7.30177e+57
          1479.28540	         6.61975e+57
          1480.09170	         8.27032e+57
          1480.89800	         8.88264e+57
          1481.70430	         9.17693e+57
          1482.51060	         7.84016e+57
          1483.31690	         6.79681e+57
          1484.12320	         7.77660e+57
          1484.92950	         7.26690e+57
          1485.73580	         7.12421e+57
          1486.54210	         8.07868e+57
          1487.34840	         9.11550e+57
          1488.15470	         9.42523e+57
          1488.96100	         8.42869e+57
          1489.76730	         8.57449e+57
          1490.57360	         8.39462e+57
          1491.37990	         7.56314e+57
          1492.18620	         7.95688e+57
          1492.99250	         8.02911e+57
          1493.79880	         7.81837e+57
          1494.60510	         8.54092e+57
          1495.41140	         8.90622e+57
          1496.21770	         9.61871e+57
          1497.02400	         1.02702e+58
          1497.83030	         8.97860e+57
          1498.63660	         7.32748e+57
          1499.44290	         7.19182e+57
          1500.24920	         6.93528e+57
          1501.05550	         7.41978e+57
          1501.86180	         7.28666e+57
          1502.66810	         8.65505e+57
          1503.47440	         9.05812e+57
          1504.28070	         8.20249e+57
          1505.08700	         8.83254e+57
          1505.89330	         8.46431e+57
          1506.69960	         7.94591e+57
          1507.50590	         8.16771e+57
          1508.31220	         7.44781e+57
          1509.11850	         8.07647e+57
          1509.92480	         9.60297e+57
          1510.73110	         1.04311e+58
          1511.53740	         7.54923e+57
          1512.34370	         7.26559e+57
          1513.15000	         1.06200e+58
          1513.95630	         1.07784e+58
          1514.76260	         8.79836e+57
          1515.56890	         8.49350e+57
          1516.37520	         8.58237e+57
          1517.18150	         8.25382e+57
          1517.98780	         7.54410e+57
          1518.79410	         7.97948e+57
          1519.60040	         7.92086e+57
          1520.40670	         9.45533e+57
          1521.21300	         1.00956e+58
          1522.01930	         9.14882e+57
          1522.82560	         1.00536e+58
          1523.63190	         1.04636e+58
          1524.43820	         8.75222e+57
          1525.24450	         6.49718e+57
          1526.05080	         6.89706e+57
          1526.85710	         7.20859e+57
          1527.66340	         6.70005e+57
          1528.46970	         8.45513e+57
          1529.27600	         8.04557e+57
          1530.08230	         7.08195e+57
          1530.88860	         7.67803e+57
          1531.69490	         8.35648e+57
          1532.50120	         8.52476e+57
          1533.30750	         8.33363e+57
          1534.11380	         9.06120e+57
          1534.92010	         9.15199e+57
          1535.72640	         8.95284e+57
          1536.53270	         9.34708e+57
          1537.33900	         8.79391e+57
          1538.14530	         8.98160e+57
          1538.95160	         9.32110e+57
          1539.75790	         8.59649e+57
          1540.56420	         8.61031e+57
          1541.37050	         8.85524e+57
          1542.17680	         7.82567e+57
          1542.98310	         7.60907e+57
          1543.78940	         7.95783e+57
          1544.59570	         6.42964e+57
          1545.40200	         7.79957e+57
          1546.20830	         9.53236e+57
          1547.01460	         1.07238e+58
          1547.82090	         1.13700e+58
          1548.62720	         1.21250e+58
          1549.43350	         1.22232e+58
          1550.23980	         1.17618e+58
          1551.04610	         1.31424e+58
          1551.85240	         1.17057e+58
          1552.65870	         1.10618e+58
          1553.46500	         1.00198e+58
          1554.27130	         9.53312e+57
          1555.07760	         9.67031e+57
          1555.88390	         8.21254e+57
          1556.69020	         8.80918e+57
          1557.49650	         8.72788e+57
          1558.30280	         7.82292e+57
          1559.10910	         8.13461e+57
          1559.91540	         9.58440e+57
          1560.72170	         9.26654e+57
          1561.52800	         8.78210e+57
          1562.33430	         8.10356e+57
          1563.14060	         7.45528e+57
          1563.94690	         8.27678e+57
          1564.75320	         8.55047e+57
          1565.55950	         7.34748e+57
          1566.36580	         6.91899e+57
          1567.17210	         8.26321e+57
          1567.97840	         9.59209e+57
          1568.78470	         8.25816e+57
          1569.59100	         8.37210e+57
          1570.39730	         8.92918e+57
          1571.20360	         7.25799e+57
          1572.00990	         7.56351e+57
          1572.81620	         9.36954e+57
          1573.62250	         1.05775e+58
          1574.42880	         9.25252e+57
          1575.23510	         7.38160e+57
          1576.04140	         8.18803e+57
          1576.84770	         9.18064e+57
          1577.65400	         9.01755e+57
          1578.46030	         1.01387e+58
          1579.26660	         1.03323e+58
          1580.07290	         9.18905e+57
          1580.87920	         7.70898e+57
          1581.68550	         7.67911e+57
          1582.49180	         8.84161e+57
          1583.29810	         8.96225e+57
          1584.10440	         8.07411e+57
          1584.91070	         7.44949e+57
          1585.71700	         8.43488e+57
          1586.52330	         8.73817e+57
          1587.32960	         8.48612e+57
          1588.13590	         8.30032e+57
          1588.94220	         7.88274e+57
          1589.74850	         8.65250e+57
          1590.55480	         9.80884e+57
          1591.36110	         9.47410e+57
          1592.16740	         8.88175e+57
          1592.97370	         8.51334e+57
          1593.78000	         8.35370e+57
          1594.58630	         7.83243e+57
          1595.39260	         8.07197e+57
          1596.19890	         9.29510e+57
          1597.00520	         8.96760e+57
          1597.81150	         7.31421e+57
          1598.61780	         6.29596e+57
          1599.42410	         6.70492e+57
          1600.23040	         6.88920e+57
          1601.03670	         7.84912e+57
          1601.84300	         8.05510e+57
          1602.64930	         8.87011e+57
          1603.45560	         8.15078e+57
          1604.26190	         8.36418e+57
          1605.06820	         8.29782e+57
          1605.87450	         6.90105e+57
          1606.68080	         7.66609e+57
          1607.48710	         6.64958e+57
          1608.29340	         5.81584e+57
          1609.09970	         6.53477e+57
          1609.90600	         7.25904e+57
          1610.71230	         6.80585e+57
          1611.51860	         6.23104e+57
          1612.32490	         5.87859e+57
          1613.13120	         8.21105e+57
          1613.93750	         8.45050e+57
          1614.74380	         7.83409e+57
          1615.55010	         8.44612e+57
          1616.35640	         9.02855e+57
          1617.16270	         1.04075e+58
          1617.96900	         1.08328e+58
          1618.77530	         8.77684e+57
          1619.58160	         9.03437e+57
          1620.38790	         8.96121e+57
          1621.19420	         8.68887e+57
          1622.00050	         7.72509e+57
          1622.80680	         8.61257e+57
          1623.61310	         8.27274e+57
          1624.41940	         8.30852e+57
          1625.22570	         8.47890e+57
          1626.03200	         8.37827e+57
          1626.83830	         8.81948e+57
          1627.64460	         7.80712e+57
          1628.45090	         6.57396e+57
          1629.25720	         8.29323e+57
          1630.06350	         1.01624e+58
          1630.86980	         7.42441e+57
          1631.67610	         7.70254e+57
          1632.48240	         8.62078e+57
          1633.28870	         9.71483e+57
          1634.09500	         9.89516e+57
          1634.90130	         1.00607e+58
          1635.70760	         8.71602e+57
          1636.51390	         7.79454e+57
          1637.32020	         7.77136e+57
          1638.12650	         9.14709e+57
          1638.93280	         1.02433e+58
          1639.73910	         1.12477e+58
          1640.54540	         1.00023e+58
          1641.35170	         7.77470e+57
          1642.15800	         1.02729e+58
          1642.96430	         9.60323e+57
          1643.77060	         8.57630e+57
          1644.57690	         8.15705e+57
          1645.38320	         7.75871e+57
          1646.18950	         7.02201e+57
          1646.99580	         8.55556e+57
          1647.80210	         7.96879e+57
          1648.60840	         6.48221e+57
          1649.41470	         7.22390e+57
          1650.22100	         6.62402e+57
          1651.02730	         7.07782e+57
          1651.83360	         7.08461e+57
          1652.63990	         7.24679e+57
          1653.44620	         8.42476e+57
          1654.25250	         7.46041e+57
          1655.05880	         7.23832e+57
          1655.86510	         7.94154e+57
          1656.67140	         7.22883e+57
          1657.47770	         7.19145e+57
          1658.28400	         8.71320e+57
          1659.09030	         9.20321e+57
          1659.89660	         9.12816e+57
          1660.70290	         1.05493e+58
          1661.50920	         9.39368e+57
          1662.31550	         8.17933e+57
          1663.12180	         8.36095e+57
          1663.92810	         9.77575e+57
          1664.73440	         1.15331e+58
          1665.54070	         1.23155e+58
          1666.34700	         1.23401e+58
          1667.15330	         1.08177e+58
          1667.95960	         8.93346e+57
          1668.76590	         7.43110e+57
          1669.57220	         6.30379e+57
          1670.37850	         7.05509e+57
          1671.18480	         8.54192e+57
          1671.99110	         7.21939e+57
          1672.79740	         6.57631e+57
          1673.60370	         6.65480e+57
          1674.41000	         6.96233e+57
          1675.21630	         6.45774e+57
          1676.02260	         6.40622e+57
          1676.82890	         6.59955e+57
          1677.63520	         7.30714e+57
          1678.44150	         7.32193e+57
          1679.24780	         8.13119e+57
          1680.05410	         7.38886e+57
          1680.86040	         6.94844e+57
          1681.66670	         7.75887e+57
          1682.47300	         8.16884e+57
          1683.27930	         8.06530e+57
          1684.08560	         9.31691e+57
          1684.89190	         8.81972e+57
          1685.69820	         6.19550e+57
          1686.50450	         6.01689e+57
          1687.31080	         6.47844e+57
          1688.11710	         7.12497e+57
          1688.92340	         7.26707e+57
          1689.72970	         6.15271e+57
          1690.53600	         5.79220e+57
          1691.34230	         7.06614e+57
          1692.14860	         8.37450e+57
          1692.95490	         7.80040e+57
          1693.76120	         5.92101e+57
          1694.56750	         6.06447e+57
          1695.37380	         8.07356e+57
          1696.18010	         8.94830e+57
          1696.98640	         9.48285e+57
          1697.79270	         8.86947e+57
          1698.59900	         7.38629e+57
          1699.40530	         6.76596e+57
          1700.21160	         7.01397e+57
          1701.01790	         8.13502e+57
          1701.82420	         8.48898e+57
          1702.63050	         8.43188e+57
          1703.43680	         8.77270e+57
          1704.24310	         8.64702e+57
          1705.04940	         7.85073e+57
          1705.85570	         7.64619e+57
          1706.66200	         7.82295e+57
          1707.46830	         7.25752e+57
          1708.27460	         7.98873e+57
          1709.08090	         7.74739e+57
          1709.88720	         6.90853e+57
          1710.69350	         6.53375e+57
          1711.49980	         6.68083e+57
          1712.30610	         7.00625e+57
          1713.11240	         9.04447e+57
          1713.91870	         7.69014e+57
          1714.72500	         7.34256e+57
          1715.53130	         8.42530e+57
          1716.33760	         7.87544e+57
          1717.14390	         8.18588e+57
          1717.95020	         9.12264e+57
          1718.75650	         8.75967e+57
          1719.56280	         8.25059e+57
          1720.36910	         7.33035e+57
          1721.17540	         7.72261e+57
          1721.98170	         7.09182e+57
          1722.78800	         6.47664e+57
          1723.59430	         6.97803e+57
          1724.40060	         7.76495e+57
          1725.20690	         7.43130e+57
          1726.01320	         6.85868e+57
          1726.81950	         6.94656e+57
          1727.62580	         7.08875e+57
          1728.43210	         6.73421e+57
          1729.23840	         7.80272e+57
          1730.04470	         9.06295e+57
          1730.85100	         8.89917e+57
          1731.65730	         8.32145e+57
          1732.46360	         8.02074e+57
          1733.26990	         6.93889e+57
          1734.07620	         7.56233e+57
          1734.88250	         8.29405e+57
          1735.68880	         7.95167e+57
          1736.49510	         7.96037e+57
          1737.30140	         7.99354e+57
          1738.10770	         6.95354e+57
          1738.91400	         7.00065e+57
          1739.72030	         7.60781e+57
          1740.52660	         6.38019e+57
          1741.33290	         5.78017e+57
          1742.13920	         6.13090e+57
          1742.94550	         6.50573e+57
          1743.75180	         7.32728e+57
          1744.55810	         7.61030e+57
          1745.36440	         7.67051e+57
          1746.17070	         5.49626e+57
          1746.97700	         4.35485e+57
          1747.78330	         6.32478e+57
          1748.58960	         6.75411e+57
          1749.39590	         6.61156e+57
          1750.20220	         7.01513e+57
          1751.00850	         6.15172e+57
          1751.81480	         5.70945e+57
          1752.62110	         7.69009e+57
          1753.42740	         7.84655e+57
          1754.23370	         5.97433e+57
          1755.04000	         7.27632e+57
          1755.84630	         8.56636e+57
          1756.65260	         9.95379e+57
          1757.45890	         9.55338e+57
          1758.26520	         7.67679e+57
          1759.07150	         8.29578e+57
          1759.87780	         7.92678e+57
          1760.68410	         8.02955e+57
          1761.49040	         7.73580e+57
          1762.29670	         5.71927e+57
          1763.10300	         6.07371e+57
          1763.90930	         6.91093e+57
          1764.71560	         7.23757e+57
          1765.52190	         8.00610e+57
          1766.32820	         9.67531e+57
          1767.13450	         9.25048e+57
          1767.94080	         7.26001e+57
          1768.74710	         7.59419e+57
          1769.55340	         7.70309e+57
          1770.35970	         6.66808e+57
          1771.16600	         7.49628e+57
          1771.97230	         7.88341e+57
          1772.77860	         8.05816e+57
          1773.58490	         7.80812e+57
          1774.39120	         7.20668e+57
          1775.19750	         7.33152e+57
          1776.00380	         6.46763e+57
          1776.81010	         5.79544e+57
          1777.61640	         6.46020e+57
          1778.42270	         6.84524e+57
          1779.22900	         7.31624e+57
          1780.03530	         6.57036e+57
          1780.84160	         7.10809e+57
          1781.64790	         8.19236e+57
          1782.45420	         6.60607e+57
          1783.26050	         5.88834e+57
          1784.06680	         6.18754e+57
          1784.87310	         7.34705e+57
          1785.67940	         8.05570e+57
          1786.48570	         7.24764e+57
          1787.29200	         6.25019e+57
          1788.09830	         5.98659e+57
          1788.90460	         6.30331e+57
          1789.71090	         5.42342e+57
          1790.51720	         5.50912e+57
          1791.32350	         6.27345e+57
          1792.12980	         8.26476e+57
          1792.93610	         7.89855e+57
          1793.74240	         7.96237e+57
          1794.54870	         8.48735e+57
          1795.35500	         8.99281e+57
          1796.16130	         7.91282e+57
          1796.96760	         6.73420e+57
          1797.77390	         7.26827e+57
          1798.58020	         7.37842e+57
          1799.38650	         6.62620e+57
          1800.19280	         6.74517e+57
          1800.99910	         7.83552e+57
          1801.80540	         8.40010e+57
          1802.61170	         9.41443e+57
          1803.41800	         8.31570e+57
          1804.22430	         7.29987e+57
          1805.03060	         6.85594e+57
          1805.83690	         7.33497e+57
          1806.64320	         7.65269e+57
          1807.44950	         8.84263e+57
          1808.25580	         6.09701e+57
          1809.06210	         7.13756e+57
          1809.86840	         8.29136e+57
          1810.67470	         7.75383e+57
          1811.48100	         8.72753e+57
          1812.28730	         8.11194e+57
          1813.09360	         7.00970e+57
          1813.89990	         7.31893e+57
          1814.70620	         6.86257e+57
          1815.51250	         8.23131e+57
          1816.31880	         8.44086e+57
          1817.12510	         7.71893e+57
          1817.93140	         6.07967e+57
          1818.73770	         6.67294e+57
          1819.54400	         8.26057e+57
          1820.35030	         8.67520e+57
          1821.15660	         6.62524e+57
          1821.96290	         6.48040e+57
          1822.76920	         7.78203e+57
          1823.57550	         8.24759e+57
          1824.38180	         7.32087e+57
          1825.18810	         7.08340e+57
          1825.99440	         8.30080e+57
          1826.80070	         7.79139e+57
          1827.60700	         6.65005e+57
          1828.41330	         6.15321e+57
          1829.21960	         6.38615e+57
          1830.02590	         7.49679e+57
          1830.83220	         8.18344e+57
          1831.63850	         7.81195e+57
          1832.44480	         7.23037e+57
          1833.25110	         7.65679e+57
          1834.05740	         8.40412e+57
          1834.86370	         7.31708e+57
          1835.67000	         5.94783e+57
          1836.47630	         7.06703e+57
          1837.28260	         8.41544e+57
          1838.08890	         8.62278e+57
          1838.89520	         8.51700e+57
          1839.70150	         7.46508e+57
          1840.50780	         6.54491e+57
          1841.31410	         7.14551e+57
          1842.12040	         7.46033e+57
          1842.92670	         7.17214e+57
          1843.73300	         6.93350e+57
          1844.53930	         7.18372e+57
          1845.34560	         6.56756e+57
          1846.15190	         6.93366e+57
          1846.95820	         8.03444e+57
          1847.76450	         7.29970e+57
          1848.57080	         5.50968e+57
          1849.37710	         6.69372e+57
          1850.18340	         8.11747e+57
          1850.98970	         8.21473e+57
          1851.79600	         8.28433e+57
          1852.60230	         6.76185e+57
          1853.40860	         5.92790e+57
          1854.21490	         6.33073e+57
          1855.02120	         6.44508e+57
          1855.82750	         5.72610e+57
          1856.63380	         6.71722e+57
          1857.44010	         7.40551e+57
          1858.24640	         7.95627e+57
          1859.05270	         7.25894e+57
          1859.85900	         5.14511e+57
          1860.66530	         6.00317e+57
          1861.47160	         6.93616e+57
          1862.27790	         7.31841e+57
          1863.08420	         7.80208e+57
          1863.89050	         8.51043e+57
          1864.69680	         7.28127e+57
          1865.50310	         7.23939e+57
          1866.30940	         6.45534e+57
          1867.11570	         6.38147e+57
          1867.92200	         7.55884e+57
          1868.72830	         6.79934e+57
          1869.53460	         7.36399e+57
          1870.34090	         7.32936e+57
          1871.14720	         8.06165e+57
          1871.95350	         6.84474e+57
          1872.75980	         7.10446e+57
          1873.56610	         7.19260e+57
          1874.37240	         6.00296e+57
          1875.17870	         6.84170e+57
          1875.98500	         7.32822e+57
          1876.79130	         7.34298e+57
          1877.59760	         6.72673e+57
          1878.40390	         5.28600e+57
          1879.21020	         5.40518e+57
          1880.01650	         6.89703e+57
          1880.82280	         8.26586e+57
          1881.62910	         8.90338e+57
          1882.43540	         1.03585e+58
          1883.24170	         9.31152e+57
          1884.04800	         6.11891e+57
          1884.85430	         7.23948e+57
          1885.66060	         8.64764e+57
          1886.46690	         8.20096e+57
          1887.27320	         7.72485e+57
          1888.07950	         6.78320e+57
          1888.88580	         6.38837e+57
          1889.69210	         7.97588e+57
          1890.49840	         7.81598e+57
          1891.30470	         6.81451e+57
          1892.11100	         7.32165e+57
          1892.91730	         7.63056e+57
          1893.72360	         7.97545e+57
          1894.52990	         7.90902e+57
          1895.33620	         7.44653e+57
          1896.14250	         6.86225e+57
          1896.94880	         6.93937e+57
          1897.75510	         5.17782e+57
          1898.56140	         5.97677e+57
          1899.36770	         8.12646e+57
          1900.17400	         7.28022e+57
          1900.98030	         5.99371e+57
          1901.78660	         7.58805e+57
          1902.59290	         7.13969e+57
          1903.39920	         8.51671e+57
          1904.20550	         1.04132e+58
          1905.01180	         9.10997e+57
          1905.81810	         1.00238e+58
          1906.62440	         1.21842e+58
          1907.43070	         1.44735e+58
          1908.23700	         1.62093e+58
          1909.04330	         1.27902e+58
          1909.84960	         1.08347e+58
          1910.65590	         1.00984e+58
          1911.46220	         9.40688e+57
          1912.26850	         7.24047e+57
          1913.07480	         6.11459e+57
          1913.88110	         5.70366e+57
          1914.68740	         6.19369e+57
          1915.49370	         6.38423e+57
          1916.30000	         6.84145e+57
          1917.10630	         7.56005e+57
          1917.91260	         6.63190e+57
          1918.71890	         6.46474e+57
          1919.52520	         6.88921e+57
          1920.33150	         6.21920e+57
          1921.13780	         7.05288e+57
          1921.94410	         8.21632e+57
          1922.75040	         8.01174e+57
          1923.55670	         7.16766e+57
          1924.36300	         7.59729e+57
          1925.16930	         5.94660e+57
          1925.97560	         5.39940e+57
          1926.78190	         5.24444e+57
          1927.58820	         4.73264e+57
          1928.39450	         5.64371e+57
          1929.20080	         5.72299e+57
          1930.00710	         6.85875e+57
          1930.81340	         8.28121e+57
          1931.61970	         6.46403e+57
          1932.42600	         7.33807e+57
          1933.23230	         7.61944e+57
          1934.03860	         6.18272e+57
          1934.84490	         5.49634e+57
          1935.65120	         6.65787e+57
          1936.45750	         7.60750e+57
          1937.26380	         6.01269e+57
          1938.07010	         6.56437e+57
          1938.87640	         7.24666e+57
          1939.68270	         6.82365e+57
          1940.48900	         8.52577e+57
          1941.29530	         9.44493e+57
          1942.10160	         7.30808e+57
          1942.90790	         6.68345e+57
          1943.71420	         6.24940e+57
          1944.52050	         5.76098e+57
          1945.32680	         5.37181e+57
          1946.13310	         6.66407e+57
          1946.93940	         8.33136e+57
          1947.74570	         7.58340e+57
          1948.55200	         6.76326e+57
          1949.35830	         6.77696e+57
          1950.16460	         5.81858e+57
          1950.97090	         6.17724e+57
          1951.77720	         6.99998e+57
          1952.58350	         7.95643e+57
          1953.38980	         7.16969e+57
          1954.19610	         4.35912e+57
          1955.00240	         5.25667e+57
          1955.80870	         6.03834e+57
          1956.61500	         6.44101e+57
          1957.42130	         6.46364e+57
          1958.22760	         6.78055e+57
          1959.03390	         7.31850e+57
          1959.84020	         6.98069e+57
          1960.64650	         6.56979e+57
          1961.45280	         7.50966e+57
          1962.25910	         7.85243e+57
          1963.06540	         6.93878e+57
          1963.87170	         6.63821e+57
          1964.67800	         6.86370e+57
          1965.48430	         7.13177e+57
          1966.29060	         6.54090e+57
          1967.09690	         6.52460e+57
          1967.90320	         6.61476e+57
          1968.70950	         5.84034e+57
          1969.51580	         5.35781e+57
          1970.32210	         8.06520e+57
          1971.12840	         7.72469e+57
          1971.93470	         4.87866e+57
          1972.74100	         4.69759e+57
          1973.54730	         7.10855e+57
          1974.35360	         6.88488e+57
          1975.15990	         7.79803e+57
          1975.96620	         7.95773e+57
          1976.77250	         8.00053e+57
          1977.57880	         7.39795e+57
          1978.38510	         7.03103e+57
          1979.19140	         7.25702e+57
          1979.99770	         7.48900e+57
          1980.80400	         7.54091e+57
          1981.61030	         6.35125e+57
          1982.41660	         6.28669e+57
          1983.22290	         5.95360e+57
          1984.02920	         6.36729e+57
          1984.83550	         5.42806e+57
          1985.64180	         5.86320e+57
          1986.44810	         5.73627e+57
          1987.25440	         5.91634e+57
          1988.06070	         6.20049e+57
          1988.86700	         6.48284e+57
          1989.67330	         6.80650e+57
          1990.47960	         6.22633e+57
          1991.28590	         6.61282e+57
          1992.09220	         5.75601e+57
          1992.89850	         3.94015e+57
          1993.70480	         4.25360e+57
          1994.51110	         4.71100e+57
          1995.31740	         4.27440e+57
          1996.12370	         4.77326e+57
          1996.93000	         5.81295e+57
          1997.73630	         7.04592e+57
          1998.54260	         8.97828e+57
          1999.34890	         7.37314e+57
          2000.15520	         7.59456e+57
          2000.96150	         5.73598e+57
          2001.76780	         5.92213e+57
          2002.57410	         3.99308e+57
          2003.38040	         5.68582e+57
          2004.18670	         6.31698e+57
          2004.99300	         6.39041e+57
          2005.79930	         7.12306e+57
          2006.60560	         6.75951e+57
          2007.41190	         6.01525e+57
          2008.21820	         6.74689e+57
          2009.02450	         7.11761e+57
          2009.83080	         6.80913e+57
          2010.63710	         6.95470e+57
          2011.44340	         6.20202e+57
          2012.24970	         6.55239e+57
          2013.05600	         6.60352e+57
          2013.86230	         6.69070e+57
          2014.66860	         5.92146e+57
          2015.47490	         5.50079e+57
          2016.28120	         5.65249e+57
          2017.08750	         5.96837e+57
          2017.89380	         7.11991e+57
          2018.70010	         6.59516e+57
          2019.50640	         5.78817e+57
          2020.31270	         6.79592e+57
          2021.11900	         7.14405e+57
          2021.92530	         6.36396e+57
          2022.73160	         7.31499e+57
          2023.53790	         7.04157e+57
          2024.34420	         4.94706e+57
          2025.15050	         4.41537e+57
          2025.95680	         4.99349e+57
          2026.76310	         6.39808e+57
          2027.56940	         5.76365e+57
          2028.37570	         6.92752e+57
          2029.18200	         6.85237e+57
          2029.98830	         6.23782e+57
          2030.79460	         7.07365e+57
          2031.60090	         6.59812e+57
          2032.40720	         6.24943e+57
          2033.21350	         5.24312e+57
          2034.01980	         4.68412e+57
          2034.82610	         4.75435e+57
          2035.63240	         6.05514e+57
          2036.43870	         6.21061e+57
          2037.24500	         6.78893e+57
          2038.05130	         7.33813e+57
          2038.85760	         5.08574e+57
          2039.66390	         5.42265e+57
          2040.47020	         6.02445e+57
          2041.27650	         6.23409e+57
          2042.08280	         4.86081e+57
          2042.88910	         5.44026e+57
          2043.69540	         6.14727e+57
          2044.50170	         5.61334e+57
          2045.30800	         4.88501e+57
          2046.11430	         3.99707e+57
          2046.92060	         6.01185e+57
          2047.72690	         7.29867e+57
          2048.53320	         5.70022e+57
          2049.33950	         5.36264e+57
          2050.14580	         7.94377e+57
          2050.95210	         6.89939e+57
          2051.75840	         7.29002e+57
          2052.56470	         5.14615e+57
          2053.37100	         4.43377e+57
          2054.17730	         5.64178e+57
          2054.98360	         5.96088e+57
          2055.78990	         3.82188e+57
          2056.59620	         3.48516e+57
          2057.40250	         5.98898e+57
          2058.20880	         6.46739e+57
          2059.01510	         5.89628e+57
          2059.82140	         6.21058e+57
          2060.62770	         9.48038e+57
          2061.43400	         1.52492e+58
          2062.24030	         1.24754e+58
          2063.04660	         3.21904e+57
          2063.85290	         8.69059e+56
          2064.65920	        -2.39290e+57
          2065.46550	        -7.83375e+57
          2066.27180	        -1.01813e+58
          2067.07810	         3.19568e+57
          2067.88440	         4.94319e+57
          2068.69070	         4.74667e+57
          2069.49700	         6.67400e+57
          2070.30330	         5.35226e+57
          2071.10960	         3.82145e+57
          2071.91590	         5.78331e+57
          2072.72220	         3.79939e+57
          2073.52850	         5.93863e+57
          2074.33480	         5.75913e+57
          2075.14110	         5.46434e+57
          2075.94740	         5.00849e+57
          2076.75370	         5.82469e+57
          2077.56000	         5.29767e+57
          2078.36630	         4.59258e+57
          2079.17260	         4.66181e+57
          2079.97890	         5.31162e+57
          2080.78520	         5.34001e+57
          2081.59150	         5.53556e+57
          2082.39780	         5.04586e+57
          2083.20410	         3.06788e+57
          2084.01040	         3.64922e+57
          2084.81670	         3.78572e+57
          2085.62300	         2.96924e+57
          2086.42930	         3.90356e+57
          2087.23560	         3.10448e+57
          2088.04190	         3.06534e+57
          2088.84820	         3.82412e+57
          2089.65450	         3.17652e+57
          2090.46080	         1.90237e+57
          2091.26710	         3.20222e+57
          2092.07340	         5.08205e+57
          2092.87970	         3.62618e+57
          2093.68600	         7.64149e+56
          2094.49230	         5.28334e+56
          2095.29860	         4.76089e+57
          2096.10490	         4.14299e+57
          2096.91120	         2.25183e+57
          2097.71750	         3.13831e+57
          2098.52380	         1.14081e+57
          2099.33010	         9.34828e+56
          2100.13640	         1.76624e+57
          2100.94270	         8.55262e+56
          2101.74900	         4.07191e+57
          2102.55530	         6.23604e+57
          2103.36160	         4.68173e+57
          2104.16790	         3.05564e+57
          2104.97420	        -1.77527e+56
          2105.78050	        -1.22308e+56
          2106.58680	        -7.30556e+56
          2107.39310	        -2.26282e+57
          2108.19940	         1.02236e+57
          2109.00570	         1.55820e+57
          2109.81200	         2.66074e+57
          2110.61830	         2.19700e+57
          2111.42460	         1.00425e+57
          2112.23090	        -3.68423e+56
          2113.03720	        -2.30619e+56
          2113.84350	         2.40588e+57
          2114.64980	         5.93914e+54
          2115.45610	         2.82983e+57
          2116.26240	        -3.73137e+57
          2117.06870	        -1.60652e+57
          2117.87500	         7.02213e+56
          2118.68130	        -2.36662e+57
          2119.48760	        -1.57143e+57
          2120.29390	        -1.82923e+57
          2121.10020	        -4.17866e+57
          2121.90650	         8.77675e+56
          2122.71280	         3.85332e+57
          2123.51910	         5.80872e+57
          2124.32540	         6.22644e+57
          2125.13170	         2.16896e+56
          2125.93800	        -1.34582e+57
          2126.74430	        -9.02994e+57
          2127.55060	        -7.63787e+57
          2128.35690	        -3.07484e+57
          2129.16320	        -1.95068e+57
          2129.96950	        -2.49155e+57
          2130.77580	         3.21030e+57
          2131.58210	        -4.72238e+56
          2132.38840	        -1.64976e+56
          2133.19470	        -2.44955e+56
          2134.00100	        -2.47025e+57
          2134.80730	        -1.17142e+58
          2135.61360	        -2.97321e+56
          2136.41990	         6.60419e+57
          2137.22620	        -1.38925e+57
          2138.03250	        -1.45934e+57
          2138.83880	        -7.20940e+57
          2139.64510	        -2.61552e+57
          2140.45140	        -1.16163e+57
          2141.25770	        -9.66242e+57
          2142.06400	        -2.64818e+57
          2142.87030	         4.32745e+57
          2143.67660	         1.00206e+58
          2144.48290	         1.95907e+58
          2145.28920	         1.41395e+58
          2146.09550	        -4.84719e+57
          2146.90180	        -6.73784e+57
          2147.70810	         2.60902e+56
          2148.51440	        -8.35392e+57
          2149.32070	        -1.08681e+58
          2150.12700	        -6.52096e+57
          2150.93330	        -5.67207e+56
          2151.73960	         1.01728e+57
          2152.54590	         8.29284e+56
          2153.35220	        -2.90898e+56
          2154.15850	         1.33354e+57
          2154.96480	         3.87073e+55
          2155.77110	        -1.66129e+57
          2156.57740	        -1.59659e+58
          2157.38370	        -1.15633e+58
          2158.19000	         5.03903e+57
          2158.99630	        -2.07388e+57
          2159.80260	        -1.80422e+58
          2160.60890	        -1.41836e+58
          2161.41520	         3.36858e+57
          2162.22150	        -1.40260e+58
          2163.02780	        -1.11209e+58
          2163.83410	        -5.08055e+57
          2164.64040	        -6.32071e+57
          2165.44670	        -9.10956e+57
          2166.25300	        -2.68993e+57
          2167.05930	        -8.68074e+57
          2167.86560	        -1.74340e+58
          2168.67190	        -6.30880e+57
          2169.47820	         3.93957e+57
          2170.28450	         9.68943e+55
          2171.09080	        -3.79022e+57
          2171.89710	        -7.18478e+56
          2172.70340	         7.12619e+57
          2173.50970	        -7.85755e+57
          2174.31600	        -9.61273e+57
          2175.12230	        -2.29293e+57
          2175.92860	        -4.03521e+57
          2176.73490	        -9.53189e+57
          2177.54120	        -8.31961e+57
          2178.34750	        -4.24535e+57
          2179.15380	                 nan
          2179.96010	                 nan
          2180.76640	                 nan
          2181.57270	                 nan
          2182.37900	                 nan
          2183.18530	                 nan
          2183.99160	                 nan
          2184.79790	                 nan
          2185.60420	                 nan
          2186.41050	                 nan
          2187.21680	                 nan
          2188.02310	                 nan
          2188.82940	                 nan
          2189.63570	                 nan
          2190.44200	                 nan
          2191.24830	                 nan
          2192.05460	                 nan
          2192.86090	                 nan
          2193.66720	                 nan
          2194.47350	                 nan
          2195.27980	                 nan
          2196.08610	                 nan
          2196.89240	                 nan
          2197.69870	                 nan
          2198.50500	                 nan
          2199.31130	                 nan
          2200.11760	                 nan
          2200.92390	                 nan
          2201.73020	                 nan
          2202.53650	                 nan
          2203.34280	                 nan
          2204.14910	                 nan
          2204.95540	                 nan
          2205.76170	                 nan
          2206.56800	                 nan
          2207.37430	                 nan
          2208.18060	                 nan
          2208.98690	                 nan
          2209.79320	                 nan
          2210.59950	                 nan
          2211.40580	                 nan
          2212.21210	                 nan
          2213.01840	                 nan
          2213.82470	                 nan
          2214.63100	                 nan
          2215.43730	         0.00000e+00
