#sample_134_stacked_spectrum_rest_UV-bands_median_H-alpha_noDC.txt
#median Lum: 1.70495e+42
#Rest-frame wavelength (A) | Luminosity (erg/s/A)
#
          1110.00000	         0.00000e+00
          1110.80630	        -7.96890e+58
          1111.61260	        -1.55212e+59
          1112.41890	        -1.24029e+59
          1113.22520	         1.13458e+59
          1114.03150	         4.23828e+58
          1114.83780	         2.07874e+59
          1115.64410	         1.26520e+59
          1116.45040	         1.70087e+59
          1117.25670	        -9.36040e+57
          1118.06300	         6.87560e+58
          1118.86930	         7.59758e+57
          1119.67560	         1.20842e+59
          1120.48190	         1.12219e+59
          1121.28820	        -1.34197e+59
          1122.09450	         9.14378e+57
          1122.90080	        -3.31212e+58
          1123.70710	        -4.76056e+58
          1124.51340	         7.29818e+58
          1125.31970	        -2.14778e+58
          1126.12600	         1.60299e+58
          1126.93230	        -6.04982e+58
          1127.73860	        -7.53154e+58
          1128.54490	         1.20820e+58
          1129.35120	         3.30466e+57
          1130.15750	        -2.00088e+58
          1130.96380	        -1.39774e+58
          1131.77010	         8.21392e+58
          1132.57640	         6.42996e+58
          1133.38270	         3.09171e+58
          1134.18900	         9.81872e+57
          1134.99530	        -1.18298e+57
          1135.80160	         3.91493e+58
          1136.60790	         2.47848e+58
          1137.41420	        -1.98637e+58
          1138.22050	         2.66565e+58
          1139.02680	         1.83044e+58
          1139.83310	         2.97136e+58
          1140.63940	         3.09027e+58
          1141.44570	         5.10224e+57
          1142.25200	         2.08721e+57
          1143.05830	         1.75245e+58
          1143.86460	         2.44661e+58
          1144.67090	         3.15367e+58
          1145.47720	         2.03657e+58
          1146.28350	         1.48684e+58
          1147.08980	         3.34607e+57
          1147.89610	         1.44674e+58
          1148.70240	         3.63209e+58
          1149.50870	         2.65502e+58
          1150.31500	         1.08797e+58
          1151.12130	         1.39941e+57
          1151.92760	         2.97719e+57
          1152.73390	         2.79013e+57
          1153.54020	         7.04827e+57
          1154.34650	         1.83380e+58
          1155.15280	         3.16083e+58
          1155.95910	         1.47036e+58
          1156.76540	         9.01724e+57
          1157.57170	        -7.02538e+56
          1158.37800	         5.16972e+57
          1159.18430	         1.91248e+57
          1159.99060	         1.58967e+58
          1160.79690	         1.86914e+58
          1161.60320	         1.03053e+58
          1162.40950	         1.65227e+58
          1163.21580	         9.28680e+57
          1164.02210	         1.34968e+58
          1164.82840	         1.08778e+58
          1165.63470	         1.89205e+58
          1166.44100	         3.20002e+58
          1167.24730	         2.25545e+58
          1168.05360	         5.61199e+57
          1168.85990	         6.78221e+57
          1169.66620	         1.05176e+58
          1170.47250	         1.07601e+58
          1171.27880	         8.74389e+57
          1172.08510	         1.25422e+58
          1172.89140	         7.50746e+57
          1173.69770	         6.64168e+57
          1174.50400	         1.13333e+58
          1175.31030	         1.17924e+58
          1176.11660	         9.50078e+57
          1176.92290	         1.54417e+58
          1177.72920	         1.33654e+58
          1178.53550	         2.83761e+57
          1179.34180	        -1.72439e+57
          1180.14810	         8.79857e+57
          1180.95440	         8.77121e+57
          1181.76070	         3.58418e+57
          1182.56700	         8.95482e+57
          1183.37330	         1.07134e+58
          1184.17960	         1.38318e+58
          1184.98590	         1.10891e+58
          1185.79220	         8.51845e+57
          1186.59850	         1.06938e+58
          1187.40480	         1.25927e+58
          1188.21110	         2.00042e+58
          1189.01740	         1.30129e+58
          1189.82370	         1.03297e+58
          1190.63000	         1.20348e+58
          1191.43630	         1.40851e+58
          1192.24260	         6.80147e+57
          1193.04890	         1.26080e+58
          1193.85520	         1.18639e+58
          1194.66150	         7.51856e+57
          1195.46780	         1.26898e+58
          1196.27410	         1.28428e+58
          1197.08040	         5.99894e+57
          1197.88670	         1.09172e+58
          1198.69300	         1.46217e+58
          1199.49930	         1.68834e+58
          1200.30560	         1.31623e+58
          1201.11190	         8.39403e+57
          1201.91820	         1.04142e+58
          1202.72450	         7.12331e+57
          1203.53080	         1.41859e+58
          1204.33710	         1.14651e+58
          1205.14340	         6.86882e+57
          1205.94970	         8.23085e+57
          1206.75600	         5.52884e+57
          1207.56230	         2.64498e+57
          1208.36860	         6.59039e+57
          1209.17490	         5.08006e+57
          1209.98120	         9.68983e+57
          1210.78750	         5.98039e+57
          1211.59380	         1.10492e+58
          1212.40010	         1.76846e+58
          1213.20640	         2.18387e+58
          1214.01270	         2.12546e+58
          1214.81900	         2.46631e+58
          1215.62530	         4.43512e+58
          1216.43160	         9.25988e+58
          1217.23790	         1.52574e+59
          1218.04420	         1.18203e+59
          1218.85050	         8.45622e+58
          1219.65680	         5.45239e+58
          1220.46310	         3.19120e+58
          1221.26940	         2.17326e+58
          1222.07570	         1.14221e+58
          1222.88200	         1.02076e+58
          1223.68830	         1.19257e+58
          1224.49460	         1.15750e+58
          1225.30090	         8.08742e+57
          1226.10720	         6.64568e+57
          1226.91350	         8.82796e+57
          1227.71980	         1.06194e+58
          1228.52610	         1.21304e+58
          1229.33240	         8.87897e+57
          1230.13870	         8.16891e+57
          1230.94500	         1.06257e+58
          1231.75130	         7.24168e+57
          1232.55760	         7.83871e+57
          1233.36390	         1.09528e+58
          1234.17020	         9.22425e+57
          1234.97650	         7.75775e+57
          1235.78280	         7.43658e+57
          1236.58910	         8.03336e+57
          1237.39540	         7.82232e+57
          1238.20170	         8.66592e+57
          1239.00800	         1.26829e+58
          1239.81430	         1.41555e+58
          1240.62060	         1.08806e+58
          1241.42690	         1.07116e+58
          1242.23320	         1.07917e+58
          1243.03950	         8.35421e+57
          1243.84580	         7.55416e+57
          1244.65210	         1.15238e+58
          1245.45840	         1.23218e+58
          1246.26470	         9.02494e+57
          1247.07100	         6.10233e+57
          1247.87730	         7.80457e+57
          1248.68360	         4.48999e+57
          1249.48990	         6.19935e+57
          1250.29620	         1.07939e+58
          1251.10250	         8.92712e+57
          1251.90880	         4.68828e+57
          1252.71510	         7.59005e+57
          1253.52140	         6.88576e+57
          1254.32770	         1.04123e+58
          1255.13400	         1.40575e+58
          1255.94030	         1.04221e+58
          1256.74660	         1.05054e+58
          1257.55290	         1.01580e+58
          1258.35920	         8.02447e+57
          1259.16550	         4.72009e+57
          1259.97180	         5.10039e+57
          1260.77810	         8.01216e+57
          1261.58440	         1.28609e+58
          1262.39070	         1.05635e+58
          1263.19700	         9.27355e+57
          1264.00330	         9.55191e+57
          1264.80960	         1.03708e+58
          1265.61590	         1.06152e+58
          1266.42220	         1.23577e+58
          1267.22850	         1.27597e+58
          1268.03480	         1.43466e+58
          1268.84110	         1.63659e+58
          1269.64740	         1.49151e+58
          1270.45370	         1.38020e+58
          1271.26000	         1.21612e+58
          1272.06630	         1.23971e+58
          1272.87260	         1.11830e+58
          1273.67890	         1.13711e+58
          1274.48520	         1.30096e+58
          1275.29150	         1.27174e+58
          1276.09780	         1.21525e+58
          1276.90410	         1.32346e+58
          1277.71040	         1.30210e+58
          1278.51670	         1.33367e+58
          1279.32300	         1.47516e+58
          1280.12930	         1.34500e+58
          1280.93560	         9.49436e+57
          1281.74190	         1.16677e+58
          1282.54820	         1.50859e+58
          1283.35450	         1.26029e+58
          1284.16080	         1.03966e+58
          1284.96710	         1.19575e+58
          1285.77340	         1.15712e+58
          1286.57970	         1.14672e+58
          1287.38600	         1.42620e+58
          1288.19230	         1.62739e+58
          1288.99860	         1.41727e+58
          1289.80490	         1.03410e+58
          1290.61120	         1.32864e+58
          1291.41750	         1.35573e+58
          1292.22380	         1.09024e+58
          1293.03010	         1.10066e+58
          1293.83640	         1.23581e+58
          1294.64270	         1.06183e+58
          1295.44900	         7.60003e+57
          1296.25530	         8.39730e+57
          1297.06160	         8.42632e+57
          1297.86790	         9.26508e+57
          1298.67420	         1.07213e+58
          1299.48050	         1.17981e+58
          1300.28680	         8.85468e+57
          1301.09310	         7.47540e+57
          1301.89940	         4.61512e+57
          1302.70570	         5.99693e+57
          1303.51200	         6.55238e+57
          1304.31830	         9.73329e+57
          1305.12460	         1.24843e+58
          1305.93090	         1.26840e+58
          1306.73720	         1.27341e+58
          1307.54350	         1.42414e+58
          1308.34980	         1.58224e+58
          1309.15610	         1.65498e+58
          1309.96240	         1.57585e+58
          1310.76870	         1.47965e+58
          1311.57500	         1.14808e+58
          1312.38130	         9.78029e+57
          1313.18760	         1.43159e+58
          1313.99390	         1.60839e+58
          1314.80020	         1.69333e+58
          1315.60650	         1.63460e+58
          1316.41280	         1.39436e+58
          1317.21910	         1.28379e+58
          1318.02540	         1.19234e+58
          1318.83170	         1.08987e+58
          1319.63800	         1.22791e+58
          1320.44430	         1.12987e+58
          1321.25060	         1.21986e+58
          1322.05690	         1.26877e+58
          1322.86320	         1.22481e+58
          1323.66950	         1.19889e+58
          1324.47580	         9.49751e+57
          1325.28210	         8.76808e+57
          1326.08840	         1.19542e+58
          1326.89470	         1.39208e+58
          1327.70100	         1.10251e+58
          1328.50730	         8.13693e+57
          1329.31360	         9.84666e+57
          1330.11990	         1.06026e+58
          1330.92620	         9.73228e+57
          1331.73250	         1.07621e+58
          1332.53880	         1.06639e+58
          1333.34510	         8.98950e+57
          1334.15140	         7.81987e+57
          1334.95770	         8.07345e+57
          1335.76400	         9.98509e+57
          1336.57030	         1.02569e+58
          1337.37660	         9.33342e+57
          1338.18290	         1.10094e+58
          1338.98920	         1.36792e+58
          1339.79550	         1.14267e+58
          1340.60180	         1.20692e+58
          1341.40810	         1.35116e+58
          1342.21440	         1.13054e+58
          1343.02070	         1.07019e+58
          1343.82700	         1.30052e+58
          1344.63330	         1.34577e+58
          1345.43960	         1.19644e+58
          1346.24590	         9.92806e+57
          1347.05220	         1.24820e+58
          1347.85850	         1.24883e+58
          1348.66480	         1.38481e+58
          1349.47110	         1.41665e+58
          1350.27740	         1.30048e+58
          1351.08370	         1.20898e+58
          1351.89000	         1.22289e+58
          1352.69630	         1.23952e+58
          1353.50260	         1.19769e+58
          1354.30890	         1.15582e+58
          1355.11520	         1.24171e+58
          1355.92150	         1.11615e+58
          1356.72780	         1.11902e+58
          1357.53410	         1.09632e+58
          1358.34040	         1.16402e+58
          1359.14670	         9.47013e+57
          1359.95300	         1.02476e+58
          1360.75930	         1.23942e+58
          1361.56560	         1.18209e+58
          1362.37190	         1.13804e+58
          1363.17820	         1.04302e+58
          1363.98450	         1.17920e+58
          1364.79080	         1.25240e+58
          1365.59710	         1.19160e+58
          1366.40340	         1.20437e+58
          1367.20970	         1.16073e+58
          1368.01600	         9.74498e+57
          1368.82230	         8.96313e+57
          1369.62860	         1.20299e+58
          1370.43490	         1.14466e+58
          1371.24120	         1.08800e+58
          1372.04750	         9.40729e+57
          1372.85380	         1.15738e+58
          1373.66010	         1.22124e+58
          1374.46640	         1.19277e+58
          1375.27270	         1.16202e+58
          1376.07900	         9.79655e+57
          1376.88530	         9.53506e+57
          1377.69160	         9.02252e+57
          1378.49790	         6.82160e+57
          1379.30420	         6.68059e+57
          1380.11050	         8.83160e+57
          1380.91680	         8.53804e+57
          1381.72310	         6.38655e+57
          1382.52940	         6.16367e+57
          1383.33570	         7.21353e+57
          1384.14200	         9.42377e+57
          1384.94830	         1.04624e+58
          1385.75460	         9.74815e+57
          1386.56090	         1.09503e+58
          1387.36720	         1.13948e+58
          1388.17350	         1.26595e+58
          1388.97980	         1.13685e+58
          1389.78610	         8.81679e+57
          1390.59240	         8.26268e+57
          1391.39870	         7.65420e+57
          1392.20500	         8.71788e+57
          1393.01130	         8.81588e+57
          1393.81760	         7.96376e+57
          1394.62390	         8.38589e+57
          1395.43020	         7.04784e+57
          1396.23650	         6.01229e+57
          1397.04280	         7.42053e+57
          1397.84910	         8.52397e+57
          1398.65540	         8.91802e+57
          1399.46170	         1.02443e+58
          1400.26800	         8.71490e+57
          1401.07430	         7.68955e+57
          1401.88060	         7.86879e+57
          1402.68690	         9.75227e+57
          1403.49320	         9.19866e+57
          1404.29950	         8.73846e+57
          1405.10580	         1.04470e+58
          1405.91210	         1.12900e+58
          1406.71840	         1.11980e+58
          1407.52470	         1.03605e+58
          1408.33100	         1.06126e+58
          1409.13730	         1.21697e+58
          1409.94360	         1.16713e+58
          1410.74990	         1.18228e+58
          1411.55620	         1.12710e+58
          1412.36250	         8.82556e+57
          1413.16880	         8.50475e+57
          1413.97510	         8.95145e+57
          1414.78140	         9.27588e+57
          1415.58770	         1.01068e+58
          1416.39400	         1.04155e+58
          1417.20030	         1.11667e+58
          1418.00660	         1.03707e+58
          1418.81290	         1.00916e+58
          1419.61920	         1.06242e+58
          1420.42550	         1.25534e+58
          1421.23180	         1.46869e+58
          1422.03810	         1.31821e+58
          1422.84440	         1.19080e+58
          1423.65070	         1.32923e+58
          1424.45700	         1.25856e+58
          1425.26330	         9.97171e+57
          1426.06960	         9.34131e+57
          1426.87590	         1.00553e+58
          1427.68220	         1.09842e+58
          1428.48850	         1.15833e+58
          1429.29480	         1.16204e+58
          1430.10110	         1.06456e+58
          1430.90740	         9.47186e+57
          1431.71370	         8.53008e+57
          1432.52000	         8.89220e+57
          1433.32630	         8.19591e+57
          1434.13260	         8.71446e+57
          1434.93890	         9.16494e+57
          1435.74520	         9.01536e+57
          1436.55150	         1.00322e+58
          1437.35780	         1.03085e+58
          1438.16410	         9.68306e+57
          1438.97040	         8.17738e+57
          1439.77670	         8.33204e+57
          1440.58300	         9.11363e+57
          1441.38930	         9.47123e+57
          1442.19560	         1.00229e+58
          1443.00190	         1.09193e+58
          1443.80820	         1.19730e+58
          1444.61450	         1.06256e+58
          1445.42080	         1.00837e+58
          1446.22710	         1.12475e+58
          1447.03340	         9.86039e+57
          1447.83970	         1.04270e+58
          1448.64600	         1.12322e+58
          1449.45230	         9.94286e+57
          1450.25860	         1.02720e+58
          1451.06490	         9.58865e+57
          1451.87120	         8.57678e+57
          1452.67750	         8.02408e+57
          1453.48380	         1.00046e+58
          1454.29010	         8.87113e+57
          1455.09640	         7.53444e+57
          1455.90270	         9.12642e+57
          1456.70900	         8.59377e+57
          1457.51530	         8.82324e+57
          1458.32160	         1.18918e+58
          1459.12790	         1.25460e+58
          1459.93420	         1.11280e+58
          1460.74050	         9.06776e+57
          1461.54680	         7.79681e+57
          1462.35310	         6.60084e+57
          1463.15940	         9.13845e+57
          1463.96570	         1.13420e+58
          1464.77200	         1.15306e+58
          1465.57830	         1.14747e+58
          1466.38460	         1.02997e+58
          1467.19090	         9.63350e+57
          1467.99720	         8.93975e+57
          1468.80350	         1.07811e+58
          1469.60980	         1.06056e+58
          1470.41610	         1.09166e+58
          1471.22240	         9.34794e+57
          1472.02870	         9.93428e+57
          1472.83500	         1.09876e+58
          1473.64130	         9.76677e+57
          1474.44760	         1.03624e+58
          1475.25390	         9.48166e+57
          1476.06020	         8.25031e+57
          1476.86650	         9.79204e+57
          1477.67280	         9.05474e+57
          1478.47910	         6.24134e+57
          1479.28540	         6.58566e+57
          1480.09170	         9.21911e+57
          1480.89800	         9.87838e+57
          1481.70430	         8.71761e+57
          1482.51060	         7.40610e+57
          1483.31690	         7.10233e+57
          1484.12320	         8.40713e+57
          1484.92950	         8.45083e+57
          1485.73580	         8.37092e+57
          1486.54210	         8.57062e+57
          1487.34840	         9.01105e+57
          1488.15470	         8.60977e+57
          1488.96100	         8.52783e+57
          1489.76730	         8.70666e+57
          1490.57360	         8.79621e+57
          1491.37990	         9.41560e+57
          1492.18620	         8.95963e+57
          1492.99250	         8.89906e+57
          1493.79880	         8.97262e+57
          1494.60510	         8.49769e+57
          1495.41140	         7.98474e+57
          1496.21770	         9.37056e+57
          1497.02400	         1.01134e+58
          1497.83030	         8.60836e+57
          1498.63660	         7.59127e+57
          1499.44290	         7.04262e+57
          1500.24920	         6.40801e+57
          1501.05550	         7.65957e+57
          1501.86180	         8.30423e+57
          1502.66810	         8.85657e+57
          1503.47440	         9.53006e+57
          1504.28070	         8.66369e+57
          1505.08700	         9.15375e+57
          1505.89330	         9.33394e+57
          1506.69960	         8.64055e+57
          1507.50590	         8.74369e+57
          1508.31220	         8.50649e+57
          1509.11850	         9.77860e+57
          1509.92480	         1.03271e+58
          1510.73110	         9.32704e+57
          1511.53740	         7.83164e+57
          1512.34370	         7.36697e+57
          1513.15000	         8.91940e+57
          1513.95630	         9.84503e+57
          1514.76260	         8.90829e+57
          1515.56890	         8.08872e+57
          1516.37520	         8.30682e+57
          1517.18150	         7.81745e+57
          1517.98780	         7.11832e+57
          1518.79410	         7.99864e+57
          1519.60040	         8.10000e+57
          1520.40670	         8.89670e+57
          1521.21300	         9.19648e+57
          1522.01930	         7.97825e+57
          1522.82560	         9.24270e+57
          1523.63190	         1.02993e+58
          1524.43820	         8.29405e+57
          1525.24450	         6.38951e+57
          1526.05080	         6.89625e+57
          1526.85710	         6.84960e+57
          1527.66340	         6.83890e+57
          1528.46970	         8.43007e+57
          1529.27600	         8.97025e+57
          1530.08230	         8.41922e+57
          1530.88860	         8.39765e+57
          1531.69490	         9.50681e+57
          1532.50120	         9.37033e+57
          1533.30750	         9.69922e+57
          1534.11380	         1.01169e+58
          1534.92010	         9.73942e+57
          1535.72640	         8.69574e+57
          1536.53270	         9.13300e+57
          1537.33900	         9.06604e+57
          1538.14530	         8.80088e+57
          1538.95160	         8.78348e+57
          1539.75790	         8.37276e+57
          1540.56420	         8.42516e+57
          1541.37050	         8.59379e+57
          1542.17680	         8.17785e+57
          1542.98310	         7.38609e+57
          1543.78940	         7.95572e+57
          1544.59570	         7.77162e+57
          1545.40200	         8.57725e+57
          1546.20830	         9.19512e+57
          1547.01460	         1.07199e+58
          1547.82090	         1.14876e+58
          1548.62720	         1.17473e+58
          1549.43350	         1.12127e+58
          1550.23980	         1.03628e+58
          1551.04610	         1.24471e+58
          1551.85240	         1.24227e+58
          1552.65870	         1.20987e+58
          1553.46500	         1.11428e+58
          1554.27130	         9.88471e+57
          1555.07760	         9.08086e+57
          1555.88390	         8.75820e+57
          1556.69020	         9.21024e+57
          1557.49650	         8.34831e+57
          1558.30280	         8.39806e+57
          1559.10910	         8.26672e+57
          1559.91540	         8.94229e+57
          1560.72170	         1.00766e+58
          1561.52800	         8.63904e+57
          1562.33430	         8.19219e+57
          1563.14060	         7.80243e+57
          1563.94690	         8.14177e+57
          1564.75320	         8.10549e+57
          1565.55950	         7.22212e+57
          1566.36580	         6.67179e+57
          1567.17210	         8.91972e+57
          1567.97840	         1.03472e+58
          1568.78470	         9.37824e+57
          1569.59100	         9.33359e+57
          1570.39730	         8.69584e+57
          1571.20360	         7.37809e+57
          1572.00990	         8.22901e+57
          1572.81620	         8.84909e+57
          1573.62250	         9.52904e+57
          1574.42880	         9.56307e+57
          1575.23510	         8.16102e+57
          1576.04140	         8.68552e+57
          1576.84770	         9.38035e+57
          1577.65400	         9.14589e+57
          1578.46030	         1.03949e+58
          1579.26660	         1.18398e+58
          1580.07290	         9.78102e+57
          1580.87920	         7.42588e+57
          1581.68550	         7.98274e+57
          1582.49180	         8.68087e+57
          1583.29810	         7.70239e+57
          1584.10440	         8.33287e+57
          1584.91070	         8.87321e+57
          1585.71700	         8.53306e+57
          1586.52330	         8.86403e+57
          1587.32960	         8.79300e+57
          1588.13590	         8.95217e+57
          1588.94220	         9.00879e+57
          1589.74850	         9.94273e+57
          1590.55480	         9.58216e+57
          1591.36110	         9.12496e+57
          1592.16740	         9.51205e+57
          1592.97370	         9.25602e+57
          1593.78000	         9.21098e+57
          1594.58630	         9.14692e+57
          1595.39260	         8.84706e+57
          1596.19890	         1.00996e+58
          1597.00520	         1.01861e+58
          1597.81150	         9.33902e+57
          1598.61780	         7.27493e+57
          1599.42410	         6.75877e+57
          1600.23040	         6.88491e+57
          1601.03670	         7.85998e+57
          1601.84300	         7.02644e+57
          1602.64930	         8.06981e+57
          1603.45560	         8.35893e+57
          1604.26190	         7.65297e+57
          1605.06820	         7.94297e+57
          1605.87450	         7.55278e+57
          1606.68080	         7.01660e+57
          1607.48710	         6.27538e+57
          1608.29340	         6.49168e+57
          1609.09970	         7.21417e+57
          1609.90600	         8.08067e+57
          1610.71230	         7.61798e+57
          1611.51860	         7.36547e+57
          1612.32490	         7.36094e+57
          1613.13120	         8.16829e+57
          1613.93750	         8.95586e+57
          1614.74380	         9.03911e+57
          1615.55010	         9.17853e+57
          1616.35640	         9.95122e+57
          1617.16270	         1.09477e+58
          1617.96900	         1.02445e+58
          1618.77530	         7.63594e+57
          1619.58160	         8.41864e+57
          1620.38790	         9.31884e+57
          1621.19420	         1.05287e+58
          1622.00050	         9.47292e+57
          1622.80680	         9.00676e+57
          1623.61310	         7.91788e+57
          1624.41940	         8.32473e+57
          1625.22570	         1.07160e+58
          1626.03200	         1.12951e+58
          1626.83830	         9.18860e+57
          1627.64460	         7.13589e+57
          1628.45090	         6.58480e+57
          1629.25720	         7.66775e+57
          1630.06350	         9.06804e+57
          1630.86980	         6.32125e+57
          1631.67610	         7.89080e+57
          1632.48240	         8.56481e+57
          1633.28870	         7.06656e+57
          1634.09500	         8.95872e+57
          1634.90130	         9.90761e+57
          1635.70760	         8.95057e+57
          1636.51390	         8.47214e+57
          1637.32020	         7.77712e+57
          1638.12650	         1.03969e+58
          1638.93280	         1.05947e+58
          1639.73910	         1.03572e+58
          1640.54540	         9.65847e+57
          1641.35170	         9.28050e+57
          1642.15800	         1.04353e+58
          1642.96430	         9.50138e+57
          1643.77060	         9.03787e+57
          1644.57690	         9.18909e+57
          1645.38320	         9.42629e+57
          1646.18950	         7.94344e+57
          1646.99580	         8.34876e+57
          1647.80210	         8.28794e+57
          1648.60840	         7.83983e+57
          1649.41470	         8.61795e+57
          1650.22100	         7.68334e+57
          1651.02730	         6.84049e+57
          1651.83360	         7.34597e+57
          1652.63990	         8.26193e+57
          1653.44620	         8.99956e+57
          1654.25250	         6.42180e+57
          1655.05880	         6.62586e+57
          1655.86510	         8.64061e+57
          1656.67140	         8.03437e+57
          1657.47770	         7.57426e+57
          1658.28400	         8.38483e+57
          1659.09030	         9.34805e+57
          1659.89660	         9.64340e+57
          1660.70290	         9.95390e+57
          1661.50920	         1.04657e+58
          1662.31550	         9.20429e+57
          1663.12180	         8.33690e+57
          1663.92810	         8.74817e+57
          1664.73440	         9.85293e+57
          1665.54070	         1.19266e+58
          1666.34700	         1.25270e+58
          1667.15330	         1.19266e+58
          1667.95960	         9.81591e+57
          1668.76590	         6.88770e+57
          1669.57220	         6.44059e+57
          1670.37850	         7.86661e+57
          1671.18480	         8.34170e+57
          1671.99110	         7.49931e+57
          1672.79740	         6.98007e+57
          1673.60370	         6.66798e+57
          1674.41000	         7.73102e+57
          1675.21630	         7.38805e+57
          1676.02260	         6.73570e+57
          1676.82890	         6.91630e+57
          1677.63520	         7.41524e+57
          1678.44150	         8.10348e+57
          1679.24780	         8.96919e+57
          1680.05410	         7.85516e+57
          1680.86040	         5.53046e+57
          1681.66670	         6.72146e+57
          1682.47300	         8.67446e+57
          1683.27930	         8.16911e+57
          1684.08560	         8.83667e+57
          1684.89190	         8.49064e+57
          1685.69820	         5.68958e+57
          1686.50450	         6.06631e+57
          1687.31080	         6.84297e+57
          1688.11710	         7.04625e+57
          1688.92340	         6.27948e+57
          1689.72970	         6.06636e+57
          1690.53600	         6.31821e+57
          1691.34230	         6.87912e+57
          1692.14860	         7.79590e+57
          1692.95490	         7.46004e+57
          1693.76120	         6.60111e+57
          1694.56750	         6.67900e+57
          1695.37380	         8.94994e+57
          1696.18010	         8.92430e+57
          1696.98640	         8.34966e+57
          1697.79270	         8.66818e+57
          1698.59900	         8.97500e+57
          1699.40530	         8.37609e+57
          1700.21160	         7.19575e+57
          1701.01790	         8.19203e+57
          1701.82420	         8.46294e+57
          1702.63050	         8.76938e+57
          1703.43680	         8.42906e+57
          1704.24310	         8.73264e+57
          1705.04940	         9.50366e+57
          1705.85570	         8.55038e+57
          1706.66200	         8.64631e+57
          1707.46830	         8.29866e+57
          1708.27460	         7.37027e+57
          1709.08090	         6.61379e+57
          1709.88720	         5.99786e+57
          1710.69350	         6.75764e+57
          1711.49980	         6.77003e+57
          1712.30610	         6.92014e+57
          1713.11240	         7.78952e+57
          1713.91870	         7.63332e+57
          1714.72500	         8.31764e+57
          1715.53130	         9.10067e+57
          1716.33760	         7.93291e+57
          1717.14390	         7.16486e+57
          1717.95020	         8.67623e+57
          1718.75650	         9.27505e+57
          1719.56280	         7.98207e+57
          1720.36910	         6.69433e+57
          1721.17540	         7.48949e+57
          1721.98170	         7.41187e+57
          1722.78800	         7.31743e+57
          1723.59430	         8.16792e+57
          1724.40060	         8.12368e+57
          1725.20690	         7.80182e+57
          1726.01320	         6.66797e+57
          1726.81950	         6.96814e+57
          1727.62580	         7.51029e+57
          1728.43210	         6.84615e+57
          1729.23840	         7.26773e+57
          1730.04470	         8.24666e+57
          1730.85100	         8.70212e+57
          1731.65730	         8.92515e+57
          1732.46360	         6.86849e+57
          1733.26990	         5.88935e+57
          1734.07620	         7.02747e+57
          1734.88250	         6.44527e+57
          1735.68880	         7.57936e+57
          1736.49510	         7.91224e+57
          1737.30140	         7.46220e+57
          1738.10770	         6.39705e+57
          1738.91400	         7.18364e+57
          1739.72030	         8.27538e+57
          1740.52660	         7.76515e+57
          1741.33290	         6.97241e+57
          1742.13920	         6.85212e+57
          1742.94550	         7.66812e+57
          1743.75180	         7.13269e+57
          1744.55810	         7.49798e+57
          1745.36440	         7.49907e+57
          1746.17070	         5.03138e+57
          1746.97700	         5.84785e+57
          1747.78330	         6.72057e+57
          1748.58960	         6.93095e+57
          1749.39590	         7.17298e+57
          1750.20220	         6.86298e+57
          1751.00850	         6.98267e+57
          1751.81480	         6.15679e+57
          1752.62110	         7.30150e+57
          1753.42740	         7.95253e+57
          1754.23370	         6.08772e+57
          1755.04000	         7.14227e+57
          1755.84630	         8.63747e+57
          1756.65260	         9.31041e+57
          1757.45890	         8.08046e+57
          1758.26520	         7.17039e+57
          1759.07150	         8.12855e+57
          1759.87780	         7.48675e+57
          1760.68410	         7.72188e+57
          1761.49040	         8.28336e+57
          1762.29670	         6.79833e+57
          1763.10300	         7.62381e+57
          1763.90930	         8.65175e+57
          1764.71560	         7.82444e+57
          1765.52190	         7.34404e+57
          1766.32820	         9.24886e+57
          1767.13450	         7.80522e+57
          1767.94080	         6.87992e+57
          1768.74710	         7.12778e+57
          1769.55340	         7.11320e+57
          1770.35970	         7.24652e+57
          1771.16600	         8.07184e+57
          1771.97230	         9.65223e+57
          1772.77860	         9.58521e+57
          1773.58490	         7.66735e+57
          1774.39120	         7.16041e+57
          1775.19750	         7.57756e+57
          1776.00380	         7.63392e+57
          1776.81010	         7.89335e+57
          1777.61640	         7.64782e+57
          1778.42270	         7.78018e+57
          1779.22900	         7.34065e+57
          1780.03530	         6.55200e+57
          1780.84160	         7.27134e+57
          1781.64790	         8.31476e+57
          1782.45420	         6.77749e+57
          1783.26050	         6.08212e+57
          1784.06680	         7.25126e+57
          1784.87310	         7.88762e+57
          1785.67940	         7.98792e+57
          1786.48570	         7.11363e+57
          1787.29200	         5.64246e+57
          1788.09830	         5.87451e+57
          1788.90460	         6.30810e+57
          1789.71090	         4.96432e+57
          1790.51720	         5.18522e+57
          1791.32350	         7.36418e+57
          1792.12980	         8.90296e+57
          1792.93610	         9.20640e+57
          1793.74240	         7.14435e+57
          1794.54870	         7.80385e+57
          1795.35500	         8.71141e+57
          1796.16130	         7.71588e+57
          1796.96760	         6.60568e+57
          1797.77390	         6.80889e+57
          1798.58020	         6.65900e+57
          1799.38650	         6.57548e+57
          1800.19280	         6.86216e+57
          1800.99910	         7.72045e+57
          1801.80540	         6.63120e+57
          1802.61170	         8.00435e+57
          1803.41800	         8.86316e+57
          1804.22430	         7.82217e+57
          1805.03060	         6.94623e+57
          1805.83690	         7.11009e+57
          1806.64320	         8.29743e+57
          1807.44950	         8.25631e+57
          1808.25580	         7.52745e+57
          1809.06210	         8.75396e+57
          1809.86840	         7.91950e+57
          1810.67470	         7.59345e+57
          1811.48100	         9.27222e+57
          1812.28730	         9.51320e+57
          1813.09360	         8.01951e+57
          1813.89990	         8.59954e+57
          1814.70620	         8.01161e+57
          1815.51250	         8.20856e+57
          1816.31880	         7.66493e+57
          1817.12510	         7.86622e+57
          1817.93140	         8.19530e+57
          1818.73770	         7.62208e+57
          1819.54400	         8.77901e+57
          1820.35030	         8.48991e+57
          1821.15660	         6.60737e+57
          1821.96290	         7.15224e+57
          1822.76920	         7.53307e+57
          1823.57550	         7.61762e+57
          1824.38180	         7.35066e+57
          1825.18810	         8.21585e+57
          1825.99440	         8.82079e+57
          1826.80070	         8.13853e+57
          1827.60700	         7.67199e+57
          1828.41330	         6.21851e+57
          1829.21960	         5.69321e+57
          1830.02590	         6.84612e+57
          1830.83220	         8.36477e+57
          1831.63850	         7.94001e+57
          1832.44480	         7.53640e+57
          1833.25110	         8.74950e+57
          1834.05740	         9.65076e+57
          1834.86370	         7.56176e+57
          1835.67000	         5.62162e+57
          1836.47630	         7.14279e+57
          1837.28260	         8.54110e+57
          1838.08890	         9.01834e+57
          1838.89520	         8.55008e+57
          1839.70150	         8.40693e+57
          1840.50780	         8.26090e+57
          1841.31410	         7.70427e+57
          1842.12040	         8.02955e+57
          1842.92670	         8.17431e+57
          1843.73300	         6.80602e+57
          1844.53930	         6.35162e+57
          1845.34560	         7.46749e+57
          1846.15190	         7.86086e+57
          1846.95820	         8.39752e+57
          1847.76450	         8.56029e+57
          1848.57080	         6.64051e+57
          1849.37710	         6.54019e+57
          1850.18340	         6.74756e+57
          1850.98970	         7.19208e+57
          1851.79600	         8.47358e+57
          1852.60230	         7.82650e+57
          1853.40860	         7.83147e+57
          1854.21490	         7.81804e+57
          1855.02120	         7.30884e+57
          1855.82750	         6.62338e+57
          1856.63380	         6.88072e+57
          1857.44010	         7.55484e+57
          1858.24640	         6.78540e+57
          1859.05270	         6.86475e+57
          1859.85900	         5.81333e+57
          1860.66530	         6.30178e+57
          1861.47160	         6.56164e+57
          1862.27790	         6.89434e+57
          1863.08420	         8.02720e+57
          1863.89050	         8.42083e+57
          1864.69680	         7.57683e+57
          1865.50310	         7.41470e+57
          1866.30940	         6.86547e+57
          1867.11570	         6.02400e+57
          1867.92200	         6.62020e+57
          1868.72830	         7.70378e+57
          1869.53460	         7.04128e+57
          1870.34090	         7.35808e+57
          1871.14720	         8.04160e+57
          1871.95350	         7.28286e+57
          1872.75980	         7.88234e+57
          1873.56610	         7.22418e+57
          1874.37240	         6.09811e+57
          1875.17870	         5.80036e+57
          1875.98500	         6.76284e+57
          1876.79130	         8.22908e+57
          1877.59760	         8.33849e+57
          1878.40390	         7.04590e+57
          1879.21020	         6.64482e+57
          1880.01650	         7.74679e+57
          1880.82280	         9.34210e+57
          1881.62910	         8.77400e+57
          1882.43540	         9.29222e+57
          1883.24170	         8.44211e+57
          1884.04800	         6.89292e+57
          1884.85430	         6.89783e+57
          1885.66060	         8.37973e+57
          1886.46690	         8.46642e+57
          1887.27320	         7.83120e+57
          1888.07950	         5.62179e+57
          1888.88580	         6.53772e+57
          1889.69210	         8.33091e+57
          1890.49840	         8.02104e+57
          1891.30470	         7.94659e+57
          1892.11100	         9.22182e+57
          1892.91730	         8.48966e+57
          1893.72360	         7.09636e+57
          1894.52990	         6.97418e+57
          1895.33620	         7.98093e+57
          1896.14250	         7.26903e+57
          1896.94880	         6.53950e+57
          1897.75510	         4.65899e+57
          1898.56140	         5.21609e+57
          1899.36770	         7.26148e+57
          1900.17400	         5.75442e+57
          1900.98030	         6.16609e+57
          1901.78660	         7.19910e+57
          1902.59290	         7.40950e+57
          1903.39920	         8.68994e+57
          1904.20550	         9.24707e+57
          1905.01180	         8.37372e+57
          1905.81810	         9.71747e+57
          1906.62440	         1.27861e+58
          1907.43070	         1.51900e+58
          1908.23700	         1.52566e+58
          1909.04330	         1.30497e+58
          1909.84960	         1.14540e+58
          1910.65590	         1.01984e+58
          1911.46220	         8.46443e+57
          1912.26850	         6.80268e+57
          1913.07480	         6.06680e+57
          1913.88110	         5.95702e+57
          1914.68740	         5.77834e+57
          1915.49370	         5.14728e+57
          1916.30000	         6.46112e+57
          1917.10630	         6.06767e+57
          1917.91260	         5.76557e+57
          1918.71890	         5.72256e+57
          1919.52520	         5.74841e+57
          1920.33150	         5.83178e+57
          1921.13780	         6.79069e+57
          1921.94410	         7.93027e+57
          1922.75040	         8.37359e+57
          1923.55670	         7.56790e+57
          1924.36300	         7.54495e+57
          1925.16930	         6.41732e+57
          1925.97560	         6.40406e+57
          1926.78190	         5.52812e+57
          1927.58820	         5.64534e+57
          1928.39450	         5.73293e+57
          1929.20080	         6.02295e+57
          1930.00710	         7.59283e+57
          1930.81340	         8.95364e+57
          1931.61970	         8.21251e+57
          1932.42600	         7.85025e+57
          1933.23230	         8.34508e+57
          1934.03860	         7.25036e+57
          1934.84490	         5.83062e+57
          1935.65120	         7.09926e+57
          1936.45750	         7.39900e+57
          1937.26380	         6.82454e+57
          1938.07010	         7.83647e+57
          1938.87640	         9.85946e+57
          1939.68270	         8.09365e+57
          1940.48900	         7.62723e+57
          1941.29530	         8.64289e+57
          1942.10160	         7.91335e+57
          1942.90790	         6.63548e+57
          1943.71420	         6.29882e+57
          1944.52050	         6.55268e+57
          1945.32680	         5.67057e+57
          1946.13310	         6.55796e+57
          1946.93940	         7.83753e+57
          1947.74570	         8.32697e+57
          1948.55200	         7.49697e+57
          1949.35830	         6.22796e+57
          1950.16460	         5.06233e+57
          1950.97090	         6.75385e+57
          1951.77720	         7.72404e+57
          1952.58350	         8.10134e+57
          1953.38980	         5.67365e+57
          1954.19610	         4.51126e+57
          1955.00240	         5.93693e+57
          1955.80870	         5.56949e+57
          1956.61500	         6.32291e+57
          1957.42130	         6.39140e+57
          1958.22760	         6.90408e+57
          1959.03390	         7.73627e+57
          1959.84020	         8.22938e+57
          1960.64650	         8.00053e+57
          1961.45280	         7.31388e+57
          1962.25910	         7.13237e+57
          1963.06540	         6.96504e+57
          1963.87170	         6.82438e+57
          1964.67800	         6.83074e+57
          1965.48430	         7.28918e+57
          1966.29060	         7.60651e+57
          1967.09690	         7.97060e+57
          1967.90320	         7.38643e+57
          1968.70950	         7.71212e+57
          1969.51580	         6.96769e+57
          1970.32210	         7.51769e+57
          1971.12840	         7.36192e+57
          1971.93470	         5.48969e+57
          1972.74100	         4.83775e+57
          1973.54730	         6.65303e+57
          1974.35360	         7.39732e+57
          1975.15990	         7.07826e+57
          1975.96620	         6.46762e+57
          1976.77250	         6.95773e+57
          1977.57880	         7.79272e+57
          1978.38510	         6.92105e+57
          1979.19140	         7.33335e+57
          1979.99770	         7.85557e+57
          1980.80400	         7.56866e+57
          1981.61030	         7.54175e+57
          1982.41660	         6.74215e+57
          1983.22290	         6.93884e+57
          1984.02920	         5.80052e+57
          1984.83550	         5.28960e+57
          1985.64180	         6.30980e+57
          1986.44810	         6.26775e+57
          1987.25440	         5.85454e+57
          1988.06070	         6.20182e+57
          1988.86700	         5.59491e+57
          1989.67330	         5.92537e+57
          1990.47960	         6.24664e+57
          1991.28590	         6.87296e+57
          1992.09220	         6.53250e+57
          1992.89850	         5.13258e+57
          1993.70480	         5.80089e+57
          1994.51110	         5.46856e+57
          1995.31740	         4.60328e+57
          1996.12370	         4.99327e+57
          1996.93000	         5.26940e+57
          1997.73630	         6.92854e+57
          1998.54260	         8.86884e+57
          1999.34890	         8.01379e+57
          2000.15520	         5.45380e+57
          2000.96150	         6.80426e+57
          2001.76780	         5.93403e+57
          2002.57410	         5.65556e+57
          2003.38040	         6.22045e+57
          2004.18670	         5.80016e+57
          2004.99300	         5.21022e+57
          2005.79930	         7.38613e+57
          2006.60560	         7.38899e+57
          2007.41190	         6.84618e+57
          2008.21820	         7.03310e+57
          2009.02450	         6.77175e+57
          2009.83080	         6.26462e+57
          2010.63710	         7.13770e+57
          2011.44340	         7.39112e+57
          2012.24970	         8.21698e+57
          2013.05600	         7.06926e+57
          2013.86230	         5.60439e+57
          2014.66860	         5.67922e+57
          2015.47490	         5.92527e+57
          2016.28120	         5.07222e+57
          2017.08750	         5.78590e+57
          2017.89380	         6.30143e+57
          2018.70010	         5.63023e+57
          2019.50640	         6.56051e+57
          2020.31270	         7.46697e+57
          2021.11900	         7.79063e+57
          2021.92530	         7.69757e+57
          2022.73160	         7.01068e+57
          2023.53790	         7.17200e+57
          2024.34420	         5.63003e+57
          2025.15050	         5.51470e+57
          2025.95680	         6.22835e+57
          2026.76310	         7.43997e+57
          2027.56940	         7.37219e+57
          2028.37570	         5.94528e+57
          2029.18200	         5.56082e+57
          2029.98830	         5.83072e+57
          2030.79460	         6.39456e+57
          2031.60090	         5.55432e+57
          2032.40720	         5.95235e+57
          2033.21350	         5.75706e+57
          2034.01980	         5.53338e+57
          2034.82610	         4.12636e+57
          2035.63240	         5.66208e+57
          2036.43870	         5.82505e+57
          2037.24500	         6.45057e+57
          2038.05130	         7.69727e+57
          2038.85760	         6.50379e+57
          2039.66390	         6.77619e+57
          2040.47020	         5.91554e+57
          2041.27650	         5.97353e+57
          2042.08280	         6.07510e+57
          2042.88910	         5.54742e+57
          2043.69540	         6.87498e+57
          2044.50170	         6.66068e+57
          2045.30800	         6.20562e+57
          2046.11430	         5.62348e+57
          2046.92060	         4.84560e+57
          2047.72690	         5.33800e+57
          2048.53320	         6.15297e+57
          2049.33950	         4.63096e+57
          2050.14580	         5.69711e+57
          2050.95210	         6.61509e+57
          2051.75840	         7.67114e+57
          2052.56470	         4.91080e+57
          2053.37100	         4.27645e+57
          2054.17730	         5.21990e+57
          2054.98360	         4.82841e+57
          2055.78990	         3.96837e+57
          2056.59620	         3.16299e+57
          2057.40250	         5.05346e+57
          2058.20880	         7.44894e+57
          2059.01510	         6.42540e+57
          2059.82140	         5.71782e+57
          2060.62770	         1.16666e+58
          2061.43400	         1.62916e+58
          2062.24030	         1.19462e+58
          2063.04660	         3.41861e+57
          2063.85290	         1.94685e+57
          2064.65920	        -4.46585e+57
          2065.46550	        -9.32857e+57
          2066.27180	        -8.02816e+57
          2067.07810	         4.04616e+57
          2067.88440	         7.98456e+57
          2068.69070	         6.87894e+57
          2069.49700	         5.09679e+57
          2070.30330	         4.46549e+57
          2071.10960	         5.75151e+57
          2071.91590	         7.08474e+57
          2072.72220	         5.10473e+57
          2073.52850	         5.27943e+57
          2074.33480	         4.66434e+57
          2075.14110	         5.70816e+57
          2075.94740	         5.16503e+57
          2076.75370	         5.64842e+57
          2077.56000	         5.00037e+57
          2078.36630	         6.51224e+57
          2079.17260	         5.96665e+57
          2079.97890	         6.09019e+57
          2080.78520	         6.38548e+57
          2081.59150	         5.98704e+57
          2082.39780	         5.63422e+57
          2083.20410	         3.59247e+57
          2084.01040	         3.31337e+57
          2084.81670	         4.78830e+57
          2085.62300	         2.60109e+57
          2086.42930	         3.24813e+57
          2087.23560	         4.03472e+57
          2088.04190	         4.62969e+57
          2088.84820	         4.70440e+57
          2089.65450	         2.48882e+57
          2090.46080	         6.89132e+56
          2091.26710	         2.43974e+57
          2092.07340	         3.50684e+57
          2092.87970	         4.30378e+57
          2093.68600	         3.13282e+56
          2094.49230	         1.11514e+57
          2095.29860	         5.48778e+57
          2096.10490	         1.76981e+57
          2096.91120	         1.67927e+57
          2097.71750	         3.33922e+55
          2098.52380	         1.04192e+57
          2099.33010	         1.70553e+57
          2100.13640	         6.88376e+56
          2100.94270	         5.03137e+56
          2101.74900	         1.84809e+57
          2102.55530	         4.08180e+56
          2103.36160	         2.90706e+57
          2104.16790	         3.79255e+57
          2104.97420	         2.06991e+57
          2105.78050	        -3.08458e+56
          2106.58680	         4.18088e+55
          2107.39310	         1.40121e+57
          2108.19940	         2.06918e+57
          2109.00570	         7.66209e+56
          2109.81200	         5.07900e+56
          2110.61830	         2.49867e+57
          2111.42460	         8.19382e+56
          2112.23090	        -3.05192e+56
          2113.03720	        -2.36051e+57
          2113.84350	        -2.19293e+57
          2114.64980	         3.58735e+57
          2115.45610	        -2.14330e+57
          2116.26240	         6.31932e+56
          2117.06870	         1.31366e+57
          2117.87500	        -2.29982e+57
          2118.68130	        -1.69269e+57
          2119.48760	         1.15190e+57
          2120.29390	         1.28582e+57
          2121.10020	        -1.44051e+57
          2121.90650	        -1.15312e+57
          2122.71280	         2.92202e+57
          2123.51910	         6.37940e+57
          2124.32540	        -8.46039e+56
          2125.13170	         1.55125e+57
          2125.93800	         4.79410e+57
          2126.74430	        -2.68384e+57
          2127.55060	        -6.09291e+57
          2128.35690	        -8.62904e+57
          2129.16320	        -9.77044e+57
          2129.96950	         4.58431e+56
          2130.77580	        -7.11702e+56
          2131.58210	        -2.30190e+57
          2132.38840	        -3.57018e+57
          2133.19470	        -1.71621e+57
          2134.00100	         3.08911e+57
          2134.80730	        -6.02681e+57
          2135.61360	        -1.38661e+57
          2136.41990	        -3.33055e+57
          2137.22620	        -1.01836e+57
          2138.03250	        -3.00866e+57
          2138.83880	        -9.24265e+57
          2139.64510	        -3.68377e+57
          2140.45140	        -6.57492e+57
          2141.25770	        -1.46396e+58
          2142.06400	        -4.02527e+57
          2142.87030	         7.76186e+57
          2143.67660	         8.29648e+57
          2144.48290	         4.76911e+57
          2145.28920	         1.31536e+58
          2146.09550	        -2.43633e+57
          2146.90180	        -6.86627e+57
          2147.70810	        -5.01676e+57
          2148.51440	        -1.48086e+58
          2149.32070	        -1.60151e+58
          2150.12700	        -1.17840e+58
          2150.93330	        -9.81709e+57
          2151.73960	        -8.38859e+56
          2152.54590	        -1.79573e+57
          2153.35220	        -6.80665e+57
          2154.15850	        -7.58312e+57
          2154.96480	        -1.56528e+57
          2155.77110	        -8.78654e+57
          2156.57740	         1.09576e+57
          2157.38370	         4.25579e+57
          2158.19000	        -5.25187e+57
          2158.99630	         3.83327e+57
          2159.80260	        -1.09477e+58
          2160.60890	        -1.65360e+58
          2161.41520	        -1.97441e+57
          2162.22150	        -2.68369e+57
          2163.02780	        -2.14971e+57
          2163.83410	        -8.06387e+57
          2164.64040	        -1.21560e+58
          2165.44670	        -7.40043e+57
          2166.25300	        -2.09314e+57
          2167.05930	        -6.68141e+57
          2167.86560	        -7.18906e+57
          2168.67190	        -1.21841e+58
          2169.47820	        -1.74202e+58
          2170.28450	        -1.28213e+58
          2171.09080	         1.57406e+57
          2171.89710	        -1.20071e+57
          2172.70340	        -1.44697e+57
          2173.50970	        -8.64159e+57
          2174.31600	        -5.13734e+57
          2175.12230	         1.98111e+57
          2175.92860	        -7.27600e+56
          2176.73490	        -4.24128e+57
          2177.54120	        -4.12889e+56
          2178.34750	        -5.40785e+57
          2179.15380	                 nan
          2179.96010	                 nan
          2180.76640	                 nan
          2181.57270	                 nan
          2182.37900	                 nan
          2183.18530	                 nan
          2183.99160	                 nan
          2184.79790	                 nan
          2185.60420	                 nan
          2186.41050	                 nan
          2187.21680	                 nan
          2188.02310	                 nan
          2188.82940	                 nan
          2189.63570	                 nan
          2190.44200	                 nan
          2191.24830	                 nan
          2192.05460	                 nan
          2192.86090	                 nan
          2193.66720	                 nan
          2194.47350	                 nan
          2195.27980	                 nan
          2196.08610	                 nan
          2196.89240	                 nan
          2197.69870	                 nan
          2198.50500	                 nan
          2199.31130	                 nan
          2200.11760	                 nan
          2200.92390	                 nan
          2201.73020	                 nan
          2202.53650	                 nan
          2203.34280	                 nan
          2204.14910	                 nan
          2204.95540	                 nan
          2205.76170	                 nan
          2206.56800	                 nan
          2207.37430	                 nan
          2208.18060	                 nan
          2208.98690	                 nan
          2209.79320	                 nan
          2210.59950	                 nan
          2211.40580	                 nan
          2212.21210	                 nan
          2213.01840	                 nan
          2213.82470	                 nan
          2214.63100	                 nan
          2215.43730	         0.00000e+00
