#sample_92_stacked_spectrum_rest_UV-bands_median_H-alpha_noDC.txt
#median Lum: 1.69069e+42
#Rest-frame wavelength (A) | Luminosity (erg/s/A)
#
          1110.00000	         0.00000e+00
          1110.80630	         7.98068e+59
          1111.61260	         5.25450e+59
          1112.41890	         2.62303e+59
          1113.22520	        -9.53315e+58
          1114.03150	        -1.37044e+59
          1114.83780	         1.23380e+59
          1115.64410	         2.39093e+59
          1116.45040	         2.18429e+59
          1117.25670	        -1.87942e+58
          1118.06300	         1.57188e+59
          1118.86930	        -7.73460e+58
          1119.67560	         8.18607e+58
          1120.48190	         3.67008e+58
          1121.28820	        -1.04613e+59
          1122.09450	        -4.69168e+58
          1122.90080	        -4.71501e+58
          1123.70710	         6.34678e+58
          1124.51340	         1.05625e+59
          1125.31970	         7.70773e+58
          1126.12600	         2.72144e+58
          1126.93230	        -5.56851e+58
          1127.73860	        -3.54804e+58
          1128.54490	        -2.70303e+58
          1129.35120	        -1.52970e+58
          1130.15750	        -5.78671e+57
          1130.96380	        -4.58280e+57
          1131.77010	         3.11644e+58
          1132.57640	         1.77627e+58
          1133.38270	         1.71033e+58
          1134.18900	         1.96314e+58
          1134.99530	         2.30444e+58
          1135.80160	         2.14449e+58
          1136.60790	         1.58261e+58
          1137.41420	         8.88995e+57
          1138.22050	         5.24628e+58
          1139.02680	         5.55641e+58
          1139.83310	         3.83454e+58
          1140.63940	         3.07838e+58
          1141.44570	        -6.05669e+57
          1142.25200	        -4.78989e+57
          1143.05830	         2.25574e+58
          1143.86460	         4.38026e+58
          1144.67090	         2.59732e+58
          1145.47720	         1.37402e+58
          1146.28350	         1.16357e+58
          1147.08980	         2.32375e+57
          1147.89610	         1.38266e+58
          1148.70240	         2.84519e+58
          1149.50870	         2.01158e+58
          1150.31500	         1.04758e+58
          1151.12130	         1.81774e+58
          1151.92760	         8.58010e+57
          1152.73390	         1.12635e+58
          1153.54020	         1.46903e+58
          1154.34650	         2.34771e+58
          1155.15280	         1.73924e+58
          1155.95910	         9.24342e+57
          1156.76540	         1.45850e+58
          1157.57170	         4.33490e+57
          1158.37800	        -7.96594e+57
          1159.18430	        -3.98361e+57
          1159.99060	         4.97944e+57
          1160.79690	         1.32965e+58
          1161.60320	         2.22581e+58
          1162.40950	         1.59058e+58
          1163.21580	         2.12900e+58
          1164.02210	         1.21790e+58
          1164.82840	         1.04481e+57
          1165.63470	         1.67913e+58
          1166.44100	         3.47886e+58
          1167.24730	         2.29543e+58
          1168.05360	         7.15034e+57
          1168.85990	         9.76600e+57
          1169.66620	         1.35617e+58
          1170.47250	         1.84940e+58
          1171.27880	         1.23154e+58
          1172.08510	         1.31804e+58
          1172.89140	         1.33343e+58
          1173.69770	         1.37942e+58
          1174.50400	         1.16974e+58
          1175.31030	         1.55213e+58
          1176.11660	         1.58021e+58
          1176.92290	         1.75325e+58
          1177.72920	         1.15125e+58
          1178.53550	         9.27564e+57
          1179.34180	         4.68462e+57
          1180.14810	         1.02154e+58
          1180.95440	         1.23569e+58
          1181.76070	         8.48487e+57
          1182.56700	         1.02119e+58
          1183.37330	         1.23294e+58
          1184.17960	         1.52246e+58
          1184.98590	         1.80173e+58
          1185.79220	         1.18717e+58
          1186.59850	         1.12226e+58
          1187.40480	         1.15312e+58
          1188.21110	         1.74576e+58
          1189.01740	         7.00815e+57
          1189.82370	         1.25899e+58
          1190.63000	         1.21936e+58
          1191.43630	         7.15957e+57
          1192.24260	         5.42456e+57
          1193.04890	         1.12921e+58
          1193.85520	         1.07225e+58
          1194.66150	         4.86912e+57
          1195.46780	         9.36790e+57
          1196.27410	         1.09318e+58
          1197.08040	         8.20628e+57
          1197.88670	         1.24187e+58
          1198.69300	         1.59046e+58
          1199.49930	         1.68877e+58
          1200.30560	         7.79597e+57
          1201.11190	         9.69746e+57
          1201.91820	         1.31767e+58
          1202.72450	         1.13371e+58
          1203.53080	         1.20300e+58
          1204.33710	         6.07921e+57
          1205.14340	         5.77460e+57
          1205.94970	         7.79476e+57
          1206.75600	         8.91250e+57
          1207.56230	         6.11346e+57
          1208.36860	         1.07902e+58
          1209.17490	         6.32583e+57
          1209.98120	         7.12327e+57
          1210.78750	         4.88412e+57
          1211.59380	         8.85609e+57
          1212.40010	         1.80577e+58
          1213.20640	         1.88566e+58
          1214.01270	         2.23805e+58
          1214.81900	         2.96692e+58
          1215.62530	         5.04789e+58
          1216.43160	         9.59744e+58
          1217.23790	         1.53771e+59
          1218.04420	         1.18511e+59
          1218.85050	         8.88284e+58
          1219.65680	         5.71784e+58
          1220.46310	         3.87730e+58
          1221.26940	         2.60520e+58
          1222.07570	         1.29761e+58
          1222.88200	         9.19289e+57
          1223.68830	         8.24902e+57
          1224.49460	         5.59120e+57
          1225.30090	         5.03838e+57
          1226.10720	         6.00216e+57
          1226.91350	         6.26912e+57
          1227.71980	         1.03552e+58
          1228.52610	         9.62725e+57
          1229.33240	         8.46264e+57
          1230.13870	         7.10024e+57
          1230.94500	         6.83371e+57
          1231.75130	         8.54534e+57
          1232.55760	         1.00522e+58
          1233.36390	         9.33720e+57
          1234.17020	         7.41293e+57
          1234.97650	         7.71779e+57
          1235.78280	         9.02907e+57
          1236.58910	         1.01344e+58
          1237.39540	         9.08682e+57
          1238.20170	         7.61457e+57
          1239.00800	         1.10750e+58
          1239.81430	         1.18068e+58
          1240.62060	         8.77194e+57
          1241.42690	         1.00885e+58
          1242.23320	         1.22077e+58
          1243.03950	         8.21009e+57
          1243.84580	         9.53120e+57
          1244.65210	         1.11394e+58
          1245.45840	         9.48855e+57
          1246.26470	         8.23774e+57
          1247.07100	         7.03693e+57
          1247.87730	         4.23735e+57
          1248.68360	         2.35324e+57
          1249.48990	         6.64936e+57
          1250.29620	         1.19792e+58
          1251.10250	         9.04242e+57
          1251.90880	         4.30708e+57
          1252.71510	         4.34805e+57
          1253.52140	         7.78226e+57
          1254.32770	         9.30040e+57
          1255.13400	         1.05690e+58
          1255.94030	         1.02664e+58
          1256.74660	         9.33851e+57
          1257.55290	         9.38913e+57
          1258.35920	         9.01946e+57
          1259.16550	         6.53634e+57
          1259.97180	         4.87062e+57
          1260.77810	         6.49616e+57
          1261.58440	         1.01667e+58
          1262.39070	         9.39022e+57
          1263.19700	         8.51017e+57
          1264.00330	         7.95109e+57
          1264.80960	         8.78113e+57
          1265.61590	         1.18257e+58
          1266.42220	         1.14199e+58
          1267.22850	         1.12005e+58
          1268.03480	         1.45036e+58
          1268.84110	         1.49378e+58
          1269.64740	         1.44910e+58
          1270.45370	         1.16024e+58
          1271.26000	         1.14515e+58
          1272.06630	         1.19918e+58
          1272.87260	         1.13254e+58
          1273.67890	         1.03019e+58
          1274.48520	         9.59764e+57
          1275.29150	         1.20850e+58
          1276.09780	         1.32404e+58
          1276.90410	         1.59756e+58
          1277.71040	         1.25275e+58
          1278.51670	         1.22364e+58
          1279.32300	         1.49895e+58
          1280.12930	         1.11860e+58
          1280.93560	         9.62562e+57
          1281.74190	         9.44034e+57
          1282.54820	         9.57034e+57
          1283.35450	         1.08177e+58
          1284.16080	         1.32833e+58
          1284.96710	         1.39000e+58
          1285.77340	         1.13204e+58
          1286.57970	         1.14092e+58
          1287.38600	         1.82120e+58
          1288.19230	         1.86740e+58
          1288.99860	         1.41747e+58
          1289.80490	         1.20881e+58
          1290.61120	         1.36599e+58
          1291.41750	         1.45667e+58
          1292.22380	         1.35595e+58
          1293.03010	         9.99927e+57
          1293.83640	         1.03064e+58
          1294.64270	         9.98531e+57
          1295.44900	         7.35456e+57
          1296.25530	         7.98866e+57
          1297.06160	         9.63842e+57
          1297.86790	         8.92653e+57
          1298.67420	         8.31907e+57
          1299.48050	         9.36690e+57
          1300.28680	         9.98010e+57
          1301.09310	         8.19286e+57
          1301.89940	         5.45102e+57
          1302.70570	         7.97206e+57
          1303.51200	         9.00937e+57
          1304.31830	         9.41557e+57
          1305.12460	         1.09867e+58
          1305.93090	         1.20992e+58
          1306.73720	         1.28769e+58
          1307.54350	         1.46056e+58
          1308.34980	         1.46687e+58
          1309.15610	         1.64545e+58
          1309.96240	         1.66464e+58
          1310.76870	         1.36637e+58
          1311.57500	         1.27158e+58
          1312.38130	         1.13324e+58
          1313.18760	         1.14418e+58
          1313.99390	         1.52723e+58
          1314.80020	         1.59997e+58
          1315.60650	         1.46591e+58
          1316.41280	         1.31409e+58
          1317.21910	         1.10534e+58
          1318.02540	         1.28958e+58
          1318.83170	         1.38216e+58
          1319.63800	         1.20381e+58
          1320.44430	         1.14192e+58
          1321.25060	         1.31053e+58
          1322.05690	         1.28661e+58
          1322.86320	         1.20947e+58
          1323.66950	         1.14999e+58
          1324.47580	         1.05434e+58
          1325.28210	         1.02948e+58
          1326.08840	         1.16798e+58
          1326.89470	         1.39010e+58
          1327.70100	         1.14098e+58
          1328.50730	         8.84655e+57
          1329.31360	         8.97287e+57
          1330.11990	         1.09559e+58
          1330.92620	         1.17037e+58
          1331.73250	         1.21088e+58
          1332.53880	         1.10542e+58
          1333.34510	         9.55421e+57
          1334.15140	         8.98986e+57
          1334.95770	         9.42560e+57
          1335.76400	         1.13657e+58
          1336.57030	         1.11852e+58
          1337.37660	         8.60495e+57
          1338.18290	         9.47334e+57
          1338.98920	         1.19730e+58
          1339.79550	         1.16775e+58
          1340.60180	         1.29193e+58
          1341.40810	         1.72586e+58
          1342.21440	         1.30744e+58
          1343.02070	         1.13342e+58
          1343.82700	         1.36183e+58
          1344.63330	         1.38112e+58
          1345.43960	         1.27012e+58
          1346.24590	         1.18119e+58
          1347.05220	         1.33201e+58
          1347.85850	         1.23247e+58
          1348.66480	         1.21428e+58
          1349.47110	         1.17019e+58
          1350.27740	         1.11319e+58
          1351.08370	         1.16773e+58
          1351.89000	         1.20024e+58
          1352.69630	         1.16212e+58
          1353.50260	         1.12468e+58
          1354.30890	         1.10391e+58
          1355.11520	         1.19719e+58
          1355.92150	         1.12528e+58
          1356.72780	         9.59496e+57
          1357.53410	         9.95259e+57
          1358.34040	         1.14333e+58
          1359.14670	         1.07016e+58
          1359.95300	         1.11847e+58
          1360.75930	         1.15640e+58
          1361.56560	         1.16176e+58
          1362.37190	         1.15544e+58
          1363.17820	         1.02080e+58
          1363.98450	         1.19727e+58
          1364.79080	         1.49021e+58
          1365.59710	         1.51632e+58
          1366.40340	         1.19522e+58
          1367.20970	         9.03021e+57
          1368.01600	         9.05048e+57
          1368.82230	         9.01761e+57
          1369.62860	         9.93450e+57
          1370.43490	         9.13725e+57
          1371.24120	         8.70002e+57
          1372.04750	         7.12275e+57
          1372.85380	         1.00421e+58
          1373.66010	         1.23821e+58
          1374.46640	         1.09004e+58
          1375.27270	         9.81292e+57
          1376.07900	         9.91688e+57
          1376.88530	         1.00477e+58
          1377.69160	         9.29686e+57
          1378.49790	         7.19687e+57
          1379.30420	         7.15348e+57
          1380.11050	         8.83041e+57
          1380.91680	         7.84787e+57
          1381.72310	         6.66383e+57
          1382.52940	         7.06394e+57
          1383.33570	         8.10134e+57
          1384.14200	         1.09843e+58
          1384.94830	         1.25136e+58
          1385.75460	         1.22757e+58
          1386.56090	         1.21404e+58
          1387.36720	         1.24670e+58
          1388.17350	         1.19182e+58
          1388.97980	         1.13923e+58
          1389.78610	         1.02878e+58
          1390.59240	         7.86418e+57
          1391.39870	         5.70171e+57
          1392.20500	         6.40389e+57
          1393.01130	         6.25935e+57
          1393.81760	         7.05947e+57
          1394.62390	         7.07164e+57
          1395.43020	         5.46472e+57
          1396.23650	         6.32527e+57
          1397.04280	         6.80477e+57
          1397.84910	         8.24133e+57
          1398.65540	         9.00983e+57
          1399.46170	         9.40462e+57
          1400.26800	         8.28075e+57
          1401.07430	         8.68214e+57
          1401.88060	         9.55061e+57
          1402.68690	         9.50766e+57
          1403.49320	         8.37411e+57
          1404.29950	         9.16677e+57
          1405.10580	         1.09289e+58
          1405.91210	         1.20984e+58
          1406.71840	         1.13368e+58
          1407.52470	         1.16731e+58
          1408.33100	         1.18686e+58
          1409.13730	         1.19518e+58
          1409.94360	         1.14308e+58
          1410.74990	         1.10680e+58
          1411.55620	         9.36170e+57
          1412.36250	         8.94863e+57
          1413.16880	         9.33939e+57
          1413.97510	         8.80192e+57
          1414.78140	         8.32207e+57
          1415.58770	         1.09431e+58
          1416.39400	         1.24424e+58
          1417.20030	         1.05589e+58
          1418.00660	         8.38656e+57
          1418.81290	         1.01446e+58
          1419.61920	         1.10224e+58
          1420.42550	         1.22209e+58
          1421.23180	         1.39534e+58
          1422.03810	         1.33817e+58
          1422.84440	         1.04451e+58
          1423.65070	         1.15678e+58
          1424.45700	         1.14835e+58
          1425.26330	         9.30948e+57
          1426.06960	         1.00190e+58
          1426.87590	         1.13098e+58
          1427.68220	         1.20293e+58
          1428.48850	         1.08577e+58
          1429.29480	         9.91779e+57
          1430.10110	         8.89810e+57
          1430.90740	         8.04476e+57
          1431.71370	         8.28553e+57
          1432.52000	         8.40676e+57
          1433.32630	         6.88888e+57
          1434.13260	         8.29948e+57
          1434.93890	         9.25634e+57
          1435.74520	         8.85522e+57
          1436.55150	         9.62616e+57
          1437.35780	         9.58529e+57
          1438.16410	         9.80807e+57
          1438.97040	         8.62204e+57
          1439.77670	         8.26140e+57
          1440.58300	         8.46814e+57
          1441.38930	         9.76610e+57
          1442.19560	         1.04583e+58
          1443.00190	         1.00348e+58
          1443.80820	         1.01407e+58
          1444.61450	         9.85947e+57
          1445.42080	         9.33483e+57
          1446.22710	         1.08572e+58
          1447.03340	         1.07739e+58
          1447.83970	         1.07276e+58
          1448.64600	         1.00178e+58
          1449.45230	         8.98482e+57
          1450.25860	         9.86882e+57
          1451.06490	         9.70682e+57
          1451.87120	         7.49389e+57
          1452.67750	         7.13298e+57
          1453.48380	         9.13725e+57
          1454.29010	         7.62507e+57
          1455.09640	         6.72212e+57
          1455.90270	         7.41446e+57
          1456.70900	         7.26748e+57
          1457.51530	         1.00396e+58
          1458.32160	         1.19943e+58
          1459.12790	         1.15221e+58
          1459.93420	         9.84387e+57
          1460.74050	         8.29214e+57
          1461.54680	         8.31069e+57
          1462.35310	         7.52183e+57
          1463.15940	         9.48758e+57
          1463.96570	         1.16682e+58
          1464.77200	         1.20872e+58
          1465.57830	         1.04516e+58
          1466.38460	         9.02706e+57
          1467.19090	         8.96015e+57
          1467.99720	         9.18662e+57
          1468.80350	         9.74519e+57
          1469.60980	         9.94337e+57
          1470.41610	         1.00261e+58
          1471.22240	         9.12659e+57
          1472.02870	         8.79023e+57
          1472.83500	         9.10787e+57
          1473.64130	         9.88332e+57
          1474.44760	         1.00436e+58
          1475.25390	         1.00521e+58
          1476.06020	         9.47020e+57
          1476.86650	         9.56295e+57
          1477.67280	         8.27950e+57
          1478.47910	         7.42541e+57
          1479.28540	         8.39493e+57
          1480.09170	         9.52198e+57
          1480.89800	         8.85462e+57
          1481.70430	         9.24026e+57
          1482.51060	         8.14710e+57
          1483.31690	         7.34745e+57
          1484.12320	         7.55992e+57
          1484.92950	         7.79796e+57
          1485.73580	         8.40219e+57
          1486.54210	         8.87978e+57
          1487.34840	         8.63571e+57
          1488.15470	         8.55135e+57
          1488.96100	         8.56267e+57
          1489.76730	         9.53111e+57
          1490.57360	         9.93246e+57
          1491.37990	         8.87772e+57
          1492.18620	         8.17721e+57
          1492.99250	         7.62534e+57
          1493.79880	         8.44843e+57
          1494.60510	         8.87958e+57
          1495.41140	         7.44674e+57
          1496.21770	         8.87658e+57
          1497.02400	         1.09545e+58
          1497.83030	         9.68695e+57
          1498.63660	         7.14655e+57
          1499.44290	         6.39666e+57
          1500.24920	         7.56115e+57
          1501.05550	         8.53473e+57
          1501.86180	         8.83229e+57
          1502.66810	         9.16365e+57
          1503.47440	         9.91440e+57
          1504.28070	         9.28121e+57
          1505.08700	         9.33841e+57
          1505.89330	         9.33829e+57
          1506.69960	         8.72476e+57
          1507.50590	         8.11392e+57
          1508.31220	         6.98132e+57
          1509.11850	         7.02237e+57
          1509.92480	         8.38277e+57
          1510.73110	         9.30195e+57
          1511.53740	         7.89458e+57
          1512.34370	         7.71847e+57
          1513.15000	         9.18546e+57
          1513.95630	         9.37753e+57
          1514.76260	         8.55251e+57
          1515.56890	         8.01403e+57
          1516.37520	         9.10941e+57
          1517.18150	         8.87769e+57
          1517.98780	         7.97663e+57
          1518.79410	         7.63120e+57
          1519.60040	         8.18291e+57
          1520.40670	         8.84430e+57
          1521.21300	         9.21816e+57
          1522.01930	         8.47367e+57
          1522.82560	         8.57755e+57
          1523.63190	         9.56312e+57
          1524.43820	         8.74050e+57
          1525.24450	         6.81763e+57
          1526.05080	         5.77639e+57
          1526.85710	         6.02093e+57
          1527.66340	         7.22361e+57
          1528.46970	         8.25037e+57
          1529.27600	         8.25032e+57
          1530.08230	         7.77007e+57
          1530.88860	         8.23011e+57
          1531.69490	         8.78952e+57
          1532.50120	         9.43284e+57
          1533.30750	         9.69177e+57
          1534.11380	         9.75689e+57
          1534.92010	         9.63154e+57
          1535.72640	         9.88882e+57
          1536.53270	         9.86678e+57
          1537.33900	         8.94906e+57
          1538.14530	         8.76863e+57
          1538.95160	         8.86827e+57
          1539.75790	         9.69289e+57
          1540.56420	         1.03572e+58
          1541.37050	         9.31330e+57
          1542.17680	         8.11735e+57
          1542.98310	         7.73277e+57
          1543.78940	         7.53722e+57
          1544.59570	         7.27347e+57
          1545.40200	         7.40888e+57
          1546.20830	         8.91893e+57
          1547.01460	         1.06093e+58
          1547.82090	         1.10690e+58
          1548.62720	         1.12051e+58
          1549.43350	         1.16490e+58
          1550.23980	         1.14021e+58
          1551.04610	         1.16329e+58
          1551.85240	         1.19645e+58
          1552.65870	         1.12729e+58
          1553.46500	         1.05542e+58
          1554.27130	         1.02500e+58
          1555.07760	         1.01888e+58
          1555.88390	         9.39471e+57
          1556.69020	         9.43822e+57
          1557.49650	         9.10784e+57
          1558.30280	         8.35241e+57
          1559.10910	         8.59344e+57
          1559.91540	         9.17711e+57
          1560.72170	         8.65089e+57
          1561.52800	         8.59640e+57
          1562.33430	         8.38354e+57
          1563.14060	         7.69712e+57
          1563.94690	         7.83606e+57
          1564.75320	         7.33163e+57
          1565.55950	         6.25350e+57
          1566.36580	         7.00346e+57
          1567.17210	         8.15917e+57
          1567.97840	         9.06995e+57
          1568.78470	         9.26346e+57
          1569.59100	         9.89942e+57
          1570.39730	         9.03088e+57
          1571.20360	         8.08647e+57
          1572.00990	         7.54504e+57
          1572.81620	         9.05802e+57
          1573.62250	         1.05535e+58
          1574.42880	         9.29213e+57
          1575.23510	         7.12266e+57
          1576.04140	         8.09086e+57
          1576.84770	         9.14788e+57
          1577.65400	         8.96092e+57
          1578.46030	         9.65693e+57
          1579.26660	         1.05470e+58
          1580.07290	         9.07257e+57
          1580.87920	         7.39966e+57
          1581.68550	         7.87601e+57
          1582.49180	         8.60447e+57
          1583.29810	         8.00547e+57
          1584.10440	         8.33730e+57
          1584.91070	         8.79612e+57
          1585.71700	         8.70117e+57
          1586.52330	         8.91993e+57
          1587.32960	         8.33582e+57
          1588.13590	         8.59081e+57
          1588.94220	         8.82889e+57
          1589.74850	         9.79427e+57
          1590.55480	         1.03918e+58
          1591.36110	         9.40431e+57
          1592.16740	         9.20543e+57
          1592.97370	         7.75166e+57
          1593.78000	         8.54435e+57
          1594.58630	         9.53927e+57
          1595.39260	         8.21889e+57
          1596.19890	         8.01624e+57
          1597.00520	         8.38426e+57
          1597.81150	         7.91667e+57
          1598.61780	         7.65673e+57
          1599.42410	         7.12448e+57
          1600.23040	         7.05503e+57
          1601.03670	         8.73385e+57
          1601.84300	         8.73014e+57
          1602.64930	         8.70111e+57
          1603.45560	         8.46803e+57
          1604.26190	         7.34493e+57
          1605.06820	         7.28357e+57
          1605.87450	         7.70380e+57
          1606.68080	         7.98518e+57
          1607.48710	         7.70349e+57
          1608.29340	         6.47221e+57
          1609.09970	         6.29059e+57
          1609.90600	         8.36708e+57
          1610.71230	         7.32612e+57
          1611.51860	         7.32169e+57
          1612.32490	         7.69515e+57
          1613.13120	         8.17667e+57
          1613.93750	         8.81376e+57
          1614.74380	         9.70509e+57
          1615.55010	         9.43878e+57
          1616.35640	         9.01174e+57
          1617.16270	         1.01941e+58
          1617.96900	         1.13900e+58
          1618.77530	         9.78065e+57
          1619.58160	         8.60052e+57
          1620.38790	         8.83647e+57
          1621.19420	         9.75063e+57
          1622.00050	         9.05700e+57
          1622.80680	         8.33219e+57
          1623.61310	         7.78573e+57
          1624.41940	         7.81083e+57
          1625.22570	         9.15718e+57
          1626.03200	         8.99031e+57
          1626.83830	         7.95175e+57
          1627.64460	         7.10480e+57
          1628.45090	         6.66615e+57
          1629.25720	         9.15468e+57
          1630.06350	         9.50297e+57
          1630.86980	         6.74228e+57
          1631.67610	         7.02969e+57
          1632.48240	         8.30709e+57
          1633.28870	         7.76776e+57
          1634.09500	         8.25844e+57
          1634.90130	         9.70609e+57
          1635.70760	         8.71486e+57
          1636.51390	         7.83519e+57
          1637.32020	         6.46419e+57
          1638.12650	         8.05958e+57
          1638.93280	         8.29648e+57
          1639.73910	         8.75813e+57
          1640.54540	         1.01360e+58
          1641.35170	         9.65771e+57
          1642.15800	         1.00839e+58
          1642.96430	         9.12045e+57
          1643.77060	         8.53553e+57
          1644.57690	         8.09688e+57
          1645.38320	         7.93438e+57
          1646.18950	         7.28645e+57
          1646.99580	         8.08562e+57
          1647.80210	         7.77536e+57
          1648.60840	         6.99986e+57
          1649.41470	         7.81726e+57
          1650.22100	         7.63171e+57
          1651.02730	         7.35865e+57
          1651.83360	         6.88414e+57
          1652.63990	         8.22490e+57
          1653.44620	         8.93431e+57
          1654.25250	         8.23490e+57
          1655.05880	         7.22755e+57
          1655.86510	         7.66075e+57
          1656.67140	         8.39962e+57
          1657.47770	         8.15493e+57
          1658.28400	         8.46769e+57
          1659.09030	         8.08013e+57
          1659.89660	         8.72821e+57
          1660.70290	         1.03057e+58
          1661.50920	         1.01812e+58
          1662.31550	         8.40944e+57
          1663.12180	         7.54637e+57
          1663.92810	         9.02293e+57
          1664.73440	         1.11927e+58
          1665.54070	         1.17562e+58
          1666.34700	         1.18158e+58
          1667.15330	         1.08255e+58
          1667.95960	         8.82772e+57
          1668.76590	         8.08626e+57
          1669.57220	         7.25148e+57
          1670.37850	         7.69692e+57
          1671.18480	         7.93885e+57
          1671.99110	         7.95678e+57
          1672.79740	         7.62636e+57
          1673.60370	         7.18627e+57
          1674.41000	         6.52607e+57
          1675.21630	         6.60044e+57
          1676.02260	         6.18828e+57
          1676.82890	         6.23324e+57
          1677.63520	         6.64113e+57
          1678.44150	         7.74764e+57
          1679.24780	         8.55078e+57
          1680.05410	         7.66504e+57
          1680.86040	         5.90867e+57
          1681.66670	         7.55555e+57
          1682.47300	         8.48426e+57
          1683.27930	         8.32834e+57
          1684.08560	         8.73537e+57
          1684.89190	         7.55213e+57
          1685.69820	         5.04693e+57
          1686.50450	         4.72527e+57
          1687.31080	         6.45278e+57
          1688.11710	         7.41478e+57
          1688.92340	         7.06479e+57
          1689.72970	         6.98698e+57
          1690.53600	         6.75302e+57
          1691.34230	         6.89396e+57
          1692.14860	         6.70058e+57
          1692.95490	         7.36734e+57
          1693.76120	         7.66248e+57
          1694.56750	         7.45998e+57
          1695.37380	         9.29208e+57
          1696.18010	         8.86197e+57
          1696.98640	         8.64731e+57
          1697.79270	         8.84441e+57
          1698.59900	         8.12302e+57
          1699.40530	         7.68271e+57
          1700.21160	         8.60223e+57
          1701.01790	         9.67960e+57
          1701.82420	         7.93537e+57
          1702.63050	         7.80033e+57
          1703.43680	         8.53562e+57
          1704.24310	         9.37127e+57
          1705.04940	         9.24004e+57
          1705.85570	         8.60088e+57
          1706.66200	         7.24563e+57
          1707.46830	         7.42653e+57
          1708.27460	         7.28542e+57
          1709.08090	         6.53413e+57
          1709.88720	         5.58936e+57
          1710.69350	         5.20540e+57
          1711.49980	         6.21143e+57
          1712.30610	         7.42519e+57
          1713.11240	         8.32855e+57
          1713.91870	         7.46677e+57
          1714.72500	         8.01435e+57
          1715.53130	         8.43764e+57
          1716.33760	         7.63753e+57
          1717.14390	         7.27122e+57
          1717.95020	         8.90375e+57
          1718.75650	         9.03283e+57
          1719.56280	         8.44730e+57
          1720.36910	         7.10390e+57
          1721.17540	         6.90770e+57
          1721.98170	         6.61308e+57
          1722.78800	         6.76021e+57
          1723.59430	         7.65353e+57
          1724.40060	         8.63785e+57
          1725.20690	         8.37682e+57
          1726.01320	         7.86351e+57
          1726.81950	         7.40206e+57
          1727.62580	         7.50663e+57
          1728.43210	         7.49078e+57
          1729.23840	         7.78361e+57
          1730.04470	         8.23035e+57
          1730.85100	         8.57986e+57
          1731.65730	         8.74844e+57
          1732.46360	         8.57233e+57
          1733.26990	         7.64349e+57
          1734.07620	         7.70250e+57
          1734.88250	         7.74129e+57
          1735.68880	         8.49883e+57
          1736.49510	         8.49577e+57
          1737.30140	         8.26071e+57
          1738.10770	         7.90027e+57
          1738.91400	         7.74683e+57
          1739.72030	         7.55463e+57
          1740.52660	         6.52394e+57
          1741.33290	         6.30782e+57
          1742.13920	         6.44393e+57
          1742.94550	         7.14964e+57
          1743.75180	         7.75138e+57
          1744.55810	         8.02582e+57
          1745.36440	         7.29788e+57
          1746.17070	         6.04460e+57
          1746.97700	         6.34724e+57
          1747.78330	         6.79094e+57
          1748.58960	         6.52034e+57
          1749.39590	         6.73094e+57
          1750.20220	         7.00763e+57
          1751.00850	         5.97884e+57
          1751.81480	         6.07727e+57
          1752.62110	         6.69018e+57
          1753.42740	         7.98274e+57
          1754.23370	         7.65046e+57
          1755.04000	         6.56852e+57
          1755.84630	         6.77135e+57
          1756.65260	         8.70781e+57
          1757.45890	         9.20289e+57
          1758.26520	         8.01837e+57
          1759.07150	         8.83482e+57
          1759.87780	         7.65768e+57
          1760.68410	         7.32507e+57
          1761.49040	         8.14769e+57
          1762.29670	         7.34676e+57
          1763.10300	         8.57129e+57
          1763.90930	         9.32343e+57
          1764.71560	         8.12589e+57
          1765.52190	         7.20582e+57
          1766.32820	         8.11296e+57
          1767.13450	         8.27795e+57
          1767.94080	         6.70888e+57
          1768.74710	         6.79713e+57
          1769.55340	         6.74221e+57
          1770.35970	         5.85540e+57
          1771.16600	         6.47859e+57
          1771.97230	         7.67028e+57
          1772.77860	         7.86322e+57
          1773.58490	         6.85509e+57
          1774.39120	         6.24620e+57
          1775.19750	         5.71997e+57
          1776.00380	         5.67406e+57
          1776.81010	         6.52349e+57
          1777.61640	         6.16748e+57
          1778.42270	         7.30623e+57
          1779.22900	         7.55944e+57
          1780.03530	         6.68236e+57
          1780.84160	         6.67750e+57
          1781.64790	         8.17603e+57
          1782.45420	         7.90550e+57
          1783.26050	         6.70739e+57
          1784.06680	         6.59427e+57
          1784.87310	         6.93701e+57
          1785.67940	         7.64227e+57
          1786.48570	         7.72023e+57
          1787.29200	         6.53544e+57
          1788.09830	         5.54879e+57
          1788.90460	         5.92259e+57
          1789.71090	         5.76182e+57
          1790.51720	         4.96464e+57
          1791.32350	         5.87892e+57
          1792.12980	         7.66613e+57
          1792.93610	         8.73216e+57
          1793.74240	         7.32171e+57
          1794.54870	         6.81171e+57
          1795.35500	         7.58816e+57
          1796.16130	         7.76205e+57
          1796.96760	         6.93731e+57
          1797.77390	         6.68316e+57
          1798.58020	         7.29382e+57
          1799.38650	         7.11777e+57
          1800.19280	         7.18529e+57
          1800.99910	         7.60100e+57
          1801.80540	         8.26486e+57
          1802.61170	         8.33892e+57
          1803.41800	         8.29444e+57
          1804.22430	         7.27876e+57
          1805.03060	         6.66391e+57
          1805.83690	         8.24799e+57
          1806.64320	         9.73299e+57
          1807.44950	         8.59719e+57
          1808.25580	         7.81964e+57
          1809.06210	         8.43821e+57
          1809.86840	         7.59576e+57
          1810.67470	         6.86889e+57
          1811.48100	         8.73270e+57
          1812.28730	         9.13849e+57
          1813.09360	         7.82217e+57
          1813.89990	         8.64936e+57
          1814.70620	         7.21421e+57
          1815.51250	         7.09124e+57
          1816.31880	         7.71822e+57
          1817.12510	         7.53435e+57
          1817.93140	         7.37179e+57
          1818.73770	         7.34152e+57
          1819.54400	         8.94207e+57
          1820.35030	         9.34597e+57
          1821.15660	         6.40858e+57
          1821.96290	         6.66848e+57
          1822.76920	         7.52972e+57
          1823.57550	         7.67181e+57
          1824.38180	         7.29621e+57
          1825.18810	         6.88222e+57
          1825.99440	         8.01456e+57
          1826.80070	         7.22530e+57
          1827.60700	         6.44233e+57
          1828.41330	         5.52622e+57
          1829.21960	         5.52964e+57
          1830.02590	         6.70752e+57
          1830.83220	         7.67222e+57
          1831.63850	         6.98960e+57
          1832.44480	         6.08643e+57
          1833.25110	         7.23357e+57
          1834.05740	         8.24866e+57
          1834.86370	         7.01104e+57
          1835.67000	         5.86142e+57
          1836.47630	         7.73152e+57
          1837.28260	         8.56314e+57
          1838.08890	         8.81679e+57
          1838.89520	         8.21867e+57
          1839.70150	         7.93508e+57
          1840.50780	         7.95875e+57
          1841.31410	         7.13167e+57
          1842.12040	         7.79829e+57
          1842.92670	         7.09622e+57
          1843.73300	         6.41461e+57
          1844.53930	         5.79430e+57
          1845.34560	         5.52656e+57
          1846.15190	         6.78682e+57
          1846.95820	         7.82326e+57
          1847.76450	         7.89631e+57
          1848.57080	         5.99897e+57
          1849.37710	         6.07094e+57
          1850.18340	         6.90770e+57
          1850.98970	         8.54709e+57
          1851.79600	         8.56610e+57
          1852.60230	         7.18859e+57
          1853.40860	         8.08131e+57
          1854.21490	         7.92284e+57
          1855.02120	         5.56471e+57
          1855.82750	         3.99031e+57
          1856.63380	         6.26772e+57
          1857.44010	         7.35441e+57
          1858.24640	         7.30629e+57
          1859.05270	         7.40464e+57
          1859.85900	         7.17252e+57
          1860.66530	         6.75566e+57
          1861.47160	         7.30844e+57
          1862.27790	         7.82250e+57
          1863.08420	         7.68701e+57
          1863.89050	         7.03990e+57
          1864.69680	         6.53701e+57
          1865.50310	         7.36813e+57
          1866.30940	         5.78190e+57
          1867.11570	         6.13529e+57
          1867.92200	         7.25222e+57
          1868.72830	         7.45836e+57
          1869.53460	         7.08732e+57
          1870.34090	         8.41310e+57
          1871.14720	         9.08151e+57
          1871.95350	         8.02328e+57
          1872.75980	         7.52940e+57
          1873.56610	         7.04325e+57
          1874.37240	         5.33298e+57
          1875.17870	         5.35699e+57
          1875.98500	         6.69551e+57
          1876.79130	         7.49438e+57
          1877.59760	         7.44966e+57
          1878.40390	         6.69683e+57
          1879.21020	         6.08693e+57
          1880.01650	         7.28318e+57
          1880.82280	         9.30729e+57
          1881.62910	         8.54038e+57
          1882.43540	         1.00352e+58
          1883.24170	         7.89476e+57
          1884.04800	         6.87539e+57
          1884.85430	         6.85642e+57
          1885.66060	         6.80719e+57
          1886.46690	         7.41234e+57
          1887.27320	         7.60032e+57
          1888.07950	         5.88273e+57
          1888.88580	         6.47139e+57
          1889.69210	         9.47735e+57
          1890.49840	         8.38595e+57
          1891.30470	         7.84641e+57
          1892.11100	         8.57740e+57
          1892.91730	         8.58799e+57
          1893.72360	         7.78530e+57
          1894.52990	         6.90357e+57
          1895.33620	         7.03964e+57
          1896.14250	         7.72083e+57
          1896.94880	         7.04635e+57
          1897.75510	         4.77751e+57
          1898.56140	         6.17228e+57
          1899.36770	         8.41003e+57
          1900.17400	         6.96837e+57
          1900.98030	         5.93979e+57
          1901.78660	         6.69531e+57
          1902.59290	         7.87282e+57
          1903.39920	         8.66463e+57
          1904.20550	         8.77460e+57
          1905.01180	         8.21745e+57
          1905.81810	         1.00811e+58
          1906.62440	         1.23759e+58
          1907.43070	         1.52902e+58
          1908.23700	         1.50925e+58
          1909.04330	         1.27600e+58
          1909.84960	         9.97039e+57
          1910.65590	         9.47160e+57
          1911.46220	         9.60765e+57
          1912.26850	         8.13617e+57
          1913.07480	         6.53278e+57
          1913.88110	         5.88549e+57
          1914.68740	         5.39524e+57
          1915.49370	         5.10723e+57
          1916.30000	         5.87503e+57
          1917.10630	         6.86280e+57
          1917.91260	         6.23677e+57
          1918.71890	         6.15858e+57
          1919.52520	         5.26508e+57
          1920.33150	         5.28308e+57
          1921.13780	         6.42343e+57
          1921.94410	         8.79448e+57
          1922.75040	         9.18251e+57
          1923.55670	         7.58569e+57
          1924.36300	         7.65096e+57
          1925.16930	         6.18840e+57
          1925.97560	         4.52809e+57
          1926.78190	         4.19588e+57
          1927.58820	         4.86227e+57
          1928.39450	         5.61954e+57
          1929.20080	         5.85645e+57
          1930.00710	         6.97921e+57
          1930.81340	         7.20801e+57
          1931.61970	         5.72101e+57
          1932.42600	         6.31274e+57
          1933.23230	         8.21299e+57
          1934.03860	         6.25117e+57
          1934.84490	         6.61697e+57
          1935.65120	         7.28471e+57
          1936.45750	         8.08605e+57
          1937.26380	         6.91267e+57
          1938.07010	         7.05732e+57
          1938.87640	         6.19420e+57
          1939.68270	         6.28639e+57
          1940.48900	         8.05845e+57
          1941.29530	         8.42877e+57
          1942.10160	         8.65820e+57
          1942.90790	         8.31060e+57
          1943.71420	         6.53409e+57
          1944.52050	         6.32609e+57
          1945.32680	         6.03535e+57
          1946.13310	         6.85517e+57
          1946.93940	         7.86522e+57
          1947.74570	         7.01190e+57
          1948.55200	         6.47983e+57
          1949.35830	         7.27554e+57
          1950.16460	         6.32919e+57
          1950.97090	         6.20816e+57
          1951.77720	         7.48302e+57
          1952.58350	         7.67758e+57
          1953.38980	         5.99004e+57
          1954.19610	         4.75025e+57
          1955.00240	         4.86284e+57
          1955.80870	         5.91508e+57
          1956.61500	         6.27786e+57
          1957.42130	         7.67420e+57
          1958.22760	         7.56448e+57
          1959.03390	         7.21865e+57
          1959.84020	         7.07009e+57
          1960.64650	         6.87249e+57
          1961.45280	         5.90981e+57
          1962.25910	         6.10044e+57
          1963.06540	         6.44206e+57
          1963.87170	         5.87164e+57
          1964.67800	         6.37523e+57
          1965.48430	         6.26654e+57
          1966.29060	         6.24479e+57
          1967.09690	         7.95141e+57
          1967.90320	         7.20257e+57
          1968.70950	         6.60606e+57
          1969.51580	         7.18346e+57
          1970.32210	         8.71763e+57
          1971.12840	         7.80371e+57
          1971.93470	         4.53882e+57
          1972.74100	         6.03809e+57
          1973.54730	         6.66739e+57
          1974.35360	         6.57279e+57
          1975.15990	         7.85529e+57
          1975.96620	         7.40853e+57
          1976.77250	         7.21502e+57
          1977.57880	         6.70070e+57
          1978.38510	         6.61755e+57
          1979.19140	         7.15924e+57
          1979.99770	         8.14726e+57
          1980.80400	         7.12202e+57
          1981.61030	         7.30214e+57
          1982.41660	         6.21085e+57
          1983.22290	         7.10321e+57
          1984.02920	         5.84964e+57
          1984.83550	         5.52000e+57
          1985.64180	         6.41893e+57
          1986.44810	         6.15272e+57
          1987.25440	         6.24125e+57
          1988.06070	         5.74176e+57
          1988.86700	         5.31766e+57
          1989.67330	         7.45015e+57
          1990.47960	         7.18928e+57
          1991.28590	         6.60102e+57
          1992.09220	         5.95860e+57
          1992.89850	         5.53951e+57
          1993.70480	         5.01418e+57
          1994.51110	         4.74292e+57
          1995.31740	         4.07257e+57
          1996.12370	         4.26734e+57
          1996.93000	         6.11755e+57
          1997.73630	         8.33993e+57
          1998.54260	         8.19799e+57
          1999.34890	         7.11106e+57
          2000.15520	         5.70671e+57
          2000.96150	         6.43270e+57
          2001.76780	         6.32572e+57
          2002.57410	         4.55389e+57
          2003.38040	         6.40921e+57
          2004.18670	         6.92525e+57
          2004.99300	         7.12006e+57
          2005.79930	         7.14856e+57
          2006.60560	         6.47418e+57
          2007.41190	         6.29936e+57
          2008.21820	         6.35250e+57
          2009.02450	         6.14202e+57
          2009.83080	         6.33018e+57
          2010.63710	         6.15785e+57
          2011.44340	         6.67199e+57
          2012.24970	         7.14915e+57
          2013.05600	         7.50858e+57
          2013.86230	         6.82547e+57
          2014.66860	         6.24545e+57
          2015.47490	         6.48712e+57
          2016.28120	         5.30448e+57
          2017.08750	         5.58279e+57
          2017.89380	         6.49142e+57
          2018.70010	         6.02480e+57
          2019.50640	         6.16099e+57
          2020.31270	         7.39105e+57
          2021.11900	         7.22795e+57
          2021.92530	         6.89143e+57
          2022.73160	         6.62880e+57
          2023.53790	         7.65975e+57
          2024.34420	         6.48151e+57
          2025.15050	         5.73187e+57
          2025.95680	         5.40441e+57
          2026.76310	         6.50822e+57
          2027.56940	         5.17433e+57
          2028.37570	         5.08275e+57
          2029.18200	         5.38344e+57
          2029.98830	         4.85519e+57
          2030.79460	         5.84847e+57
          2031.60090	         6.53831e+57
          2032.40720	         5.94397e+57
          2033.21350	         5.17724e+57
          2034.01980	         5.21072e+57
          2034.82610	         4.71055e+57
          2035.63240	         4.95105e+57
          2036.43870	         4.71502e+57
          2037.24500	         6.29404e+57
          2038.05130	         6.44837e+57
          2038.85760	         6.37613e+57
          2039.66390	         5.90445e+57
          2040.47020	         6.55343e+57
          2041.27650	         6.07110e+57
          2042.08280	         5.11385e+57
          2042.88910	         5.74039e+57
          2043.69540	         5.60007e+57
          2044.50170	         4.71460e+57
          2045.30800	         5.29482e+57
          2046.11430	         5.38443e+57
          2046.92060	         5.15524e+57
          2047.72690	         6.47195e+57
          2048.53320	         5.03555e+57
          2049.33950	         4.79562e+57
          2050.14580	         5.63823e+57
          2050.95210	         5.95527e+57
          2051.75840	         7.71767e+57
          2052.56470	         6.41239e+57
          2053.37100	         4.16148e+57
          2054.17730	         5.60483e+57
          2054.98360	         5.63894e+57
          2055.78990	         3.95052e+57
          2056.59620	         3.23657e+57
          2057.40250	         5.68166e+57
          2058.20880	         7.13990e+57
          2059.01510	         6.30047e+57
          2059.82140	         7.38616e+57
          2060.62770	         9.70427e+57
          2061.43400	         1.57726e+58
          2062.24030	         1.49249e+58
          2063.04660	         4.50920e+57
          2063.85290	         3.10736e+57
          2064.65920	         4.01828e+56
          2065.46550	        -5.34578e+57
          2066.27180	        -7.55193e+57
          2067.07810	         4.06485e+57
          2067.88440	         5.84197e+57
          2068.69070	         4.83138e+57
          2069.49700	         5.03623e+57
          2070.30330	         4.15160e+57
          2071.10960	         7.12784e+57
          2071.91590	         6.83414e+57
          2072.72220	         4.76573e+57
          2073.52850	         5.02577e+57
          2074.33480	         5.42835e+57
          2075.14110	         5.74970e+57
          2075.94740	         4.80818e+57
          2076.75370	         4.06698e+57
          2077.56000	         3.19915e+57
          2078.36630	         5.61273e+57
          2079.17260	         4.88292e+57
          2079.97890	         6.06631e+57
          2080.78520	         4.58208e+57
          2081.59150	         5.69919e+57
          2082.39780	         5.00267e+57
          2083.20410	         2.74132e+57
          2084.01040	         1.24138e+57
          2084.81670	         3.16337e+57
          2085.62300	         4.25344e+57
          2086.42930	         2.93880e+57
          2087.23560	         1.87020e+57
          2088.04190	         4.46342e+57
          2088.84820	         6.24649e+57
          2089.65450	         3.76802e+57
          2090.46080	         1.27739e+57
          2091.26710	         2.89141e+57
          2092.07340	         2.73682e+57
          2092.87970	         1.18986e+57
          2093.68600	        -1.18744e+57
          2094.49230	         2.47626e+57
          2095.29860	         3.60576e+57
          2096.10490	         1.34648e+57
          2096.91120	         1.42835e+56
          2097.71750	         1.82480e+57
          2098.52380	         2.28163e+57
          2099.33010	        -7.05137e+56
          2100.13640	         9.06557e+56
          2100.94270	         2.12012e+57
          2101.74900	         3.49223e+57
          2102.55530	         2.53891e+57
          2103.36160	         1.40872e+57
          2104.16790	         1.52794e+57
          2104.97420	        -6.17170e+55
          2105.78050	         1.30244e+57
          2106.58680	         2.61141e+57
          2107.39310	        -2.24953e+57
          2108.19940	        -1.41096e+57
          2109.00570	        -8.02692e+56
          2109.81200	         2.69720e+54
          2110.61830	         4.02982e+57
          2111.42460	         3.44556e+57
          2112.23090	         2.10188e+57
          2113.03720	         7.81396e+56
          2113.84350	        -1.10379e+57
          2114.64980	         8.31136e+56
          2115.45610	        -2.31781e+57
          2116.26240	        -2.66973e+57
          2117.06870	         3.21596e+55
          2117.87500	        -7.13325e+56
          2118.68130	        -8.62348e+56
          2119.48760	         2.84502e+56
          2120.29390	         1.45087e+57
          2121.10020	        -3.07220e+57
          2121.90650	        -5.60346e+56
          2122.71280	         1.36846e+57
          2123.51910	         2.92301e+57
          2124.32540	         1.58018e+56
          2125.13170	         7.19326e+56
          2125.93800	         6.46935e+57
          2126.74430	         6.17546e+56
          2127.55060	        -5.62033e+57
          2128.35690	        -4.99884e+56
          2129.16320	        -3.42359e+57
          2129.96950	        -4.84711e+57
          2130.77580	        -8.98892e+56
          2131.58210	         5.42865e+57
          2132.38840	        -1.36439e+57
          2133.19470	        -4.06074e+57
          2134.00100	        -3.09622e+57
          2134.80730	        -1.09689e+58
          2135.61360	         5.96492e+57
          2136.41990	         7.79482e+57
          2137.22620	        -2.45265e+57
          2138.03250	         1.74232e+57
          2138.83880	         5.78946e+56
          2139.64510	        -1.57990e+57
          2140.45140	        -6.97093e+57
          2141.25770	        -6.61867e+57
          2142.06400	        -8.93588e+57
          2142.87030	         3.64207e+56
          2143.67660	         2.00942e+57
          2144.48290	         6.68615e+57
          2145.28920	        -1.86188e+57
          2146.09550	        -1.98803e+58
          2146.90180	        -2.09058e+58
          2147.70810	        -6.93751e+57
          2148.51440	        -1.16880e+58
          2149.32070	        -9.21950e+57
          2150.12700	        -1.06673e+58
          2150.93330	        -5.06731e+57
          2151.73960	         7.00498e+57
          2152.54590	         8.67655e+56
          2153.35220	         1.74208e+56
          2154.15850	        -2.67781e+57
          2154.96480	         6.83643e+57
          2155.77110	         6.07519e+57
          2156.57740	         6.77701e+57
          2157.38370	         3.61481e+57
          2158.19000	        -3.81768e+57
          2158.99630	        -7.53455e+57
          2159.80260	        -1.88003e+58
          2160.60890	         5.68383e+55
          2161.41520	        -5.65329e+56
          2162.22150	         1.00641e+58
          2163.02780	        -8.16399e+57
          2163.83410	        -1.33611e+58
          2164.64040	        -9.87462e+57
          2165.44670	        -7.85637e+57
          2166.25300	        -2.17922e+57
          2167.05930	        -5.21204e+57
          2167.86560	        -1.03340e+58
          2168.67190	        -1.32155e+58
          2169.47820	        -1.51014e+57
          2170.28450	        -6.22556e+57
          2171.09080	         5.26233e+55
          2171.89710	         6.52839e+57
          2172.70340	        -4.42407e+57
          2173.50970	        -1.81190e+58
          2174.31600	        -5.06002e+57
          2175.12230	         1.79852e+57
          2175.92860	        -1.21013e+57
          2176.73490	        -6.18398e+57
          2177.54120	        -8.51318e+57
          2178.34750	        -3.96060e+57
          2179.15380	                 nan
          2179.96010	                 nan
          2180.76640	                 nan
          2181.57270	                 nan
          2182.37900	                 nan
          2183.18530	                 nan
          2183.99160	                 nan
          2184.79790	                 nan
          2185.60420	                 nan
          2186.41050	                 nan
          2187.21680	                 nan
          2188.02310	                 nan
          2188.82940	                 nan
          2189.63570	                 nan
          2190.44200	                 nan
          2191.24830	                 nan
          2192.05460	                 nan
          2192.86090	                 nan
          2193.66720	                 nan
          2194.47350	                 nan
          2195.27980	                 nan
          2196.08610	                 nan
          2196.89240	                 nan
          2197.69870	                 nan
          2198.50500	                 nan
          2199.31130	                 nan
          2200.11760	                 nan
          2200.92390	                 nan
          2201.73020	                 nan
          2202.53650	                 nan
          2203.34280	                 nan
          2204.14910	                 nan
          2204.95540	                 nan
          2205.76170	                 nan
          2206.56800	                 nan
          2207.37430	                 nan
          2208.18060	                 nan
          2208.98690	                 nan
          2209.79320	                 nan
          2210.59950	                 nan
          2211.40580	                 nan
          2212.21210	                 nan
          2213.01840	                 nan
          2213.82470	                 nan
          2214.63100	                 nan
          2215.43730	         0.00000e+00
