#sample_39_stacked_spectrum_rest_UV-bands_median_H-alpha_noDC.txt
#median Lum: 1.67641e+42
#Rest-frame wavelength (A) | Luminosity (erg/s/A)
#
          1110.00000	         0.00000e+00
          1110.80630	        -2.05955e+59
          1111.61260	         3.15630e+59
          1112.41890	         3.40662e+59
          1113.22520	         3.69824e+58
          1114.03150	        -9.86424e+58
          1114.83780	         2.38694e+59
          1115.64410	         1.11684e+59
          1116.45040	         4.68595e+58
          1117.25670	        -1.10851e+59
          1118.06300	         5.98904e+58
          1118.86930	         7.68965e+58
          1119.67560	         1.39176e+59
          1120.48190	         4.46740e+58
          1121.28820	        -9.13140e+58
          1122.09450	         8.36822e+58
          1122.90080	         4.80574e+58
          1123.70710	         9.38227e+58
          1124.51340	         8.96653e+58
          1125.31970	         9.11969e+57
          1126.12600	         2.51092e+58
          1126.93230	        -8.36962e+58
          1127.73860	        -8.02902e+58
          1128.54490	         5.87242e+57
          1129.35120	         2.43711e+58
          1130.15750	         1.45550e+58
          1130.96380	        -1.55147e+58
          1131.77010	         4.47597e+58
          1132.57640	         2.73604e+58
          1133.38270	         4.28055e+58
          1134.18900	         4.61799e+58
          1134.99530	        -2.65766e+57
          1135.80160	         9.02960e+57
          1136.60790	         3.01794e+58
          1137.41420	         1.02620e+58
          1138.22050	         2.72801e+58
          1139.02680	         3.62644e+58
          1139.83310	         2.27822e+58
          1140.63940	         8.33539e+57
          1141.44570	        -1.91452e+58
          1142.25200	        -2.08180e+58
          1143.05830	         6.26797e+57
          1143.86460	         2.83890e+58
          1144.67090	         1.80588e+58
          1145.47720	         4.39876e+57
          1146.28350	         3.28521e+57
          1147.08980	         9.94416e+57
          1147.89610	        -1.55198e+57
          1148.70240	         2.10009e+58
          1149.50870	         2.25700e+58
          1150.31500	         2.59669e+58
          1151.12130	         1.62052e+58
          1151.92760	        -7.26495e+57
          1152.73390	         5.98265e+57
          1153.54020	         3.93398e+57
          1154.34650	         2.29732e+58
          1155.15280	         2.36480e+58
          1155.95910	         1.03681e+58
          1156.76540	         7.11463e+57
          1157.57170	        -2.03757e+57
          1158.37800	        -1.39465e+58
          1159.18430	         1.34010e+57
          1159.99060	         1.44634e+58
          1160.79690	         8.74468e+57
          1161.60320	         2.04202e+58
          1162.40950	         1.93368e+58
          1163.21580	         2.68339e+58
          1164.02210	         1.21604e+58
          1164.82840	         7.50630e+57
          1165.63470	         7.99150e+57
          1166.44100	         2.65811e+58
          1167.24730	         1.81405e+58
          1168.05360	         7.86910e+57
          1168.85990	         9.23263e+57
          1169.66620	         1.29960e+58
          1170.47250	         1.31467e+58
          1171.27880	         1.73396e+58
          1172.08510	         1.67642e+58
          1172.89140	         1.27399e+58
          1173.69770	         1.52520e+58
          1174.50400	         1.67432e+58
          1175.31030	         1.88904e+58
          1176.11660	         1.43391e+58
          1176.92290	         1.28020e+58
          1177.72920	         1.16921e+58
          1178.53550	         1.00927e+58
          1179.34180	         9.45890e+57
          1180.14810	         1.14205e+58
          1180.95440	         9.46197e+57
          1181.76070	         7.30130e+57
          1182.56700	         1.00065e+58
          1183.37330	         5.97980e+57
          1184.17960	         1.06491e+58
          1184.98590	         1.09702e+58
          1185.79220	         6.75989e+57
          1186.59850	         9.62657e+57
          1187.40480	         9.53227e+57
          1188.21110	         1.86344e+58
          1189.01740	         1.05339e+58
          1189.82370	         5.28252e+57
          1190.63000	         9.41060e+57
          1191.43630	         1.19205e+58
          1192.24260	         1.15342e+58
          1193.04890	         1.18953e+58
          1193.85520	         1.24855e+58
          1194.66150	         3.36232e+57
          1195.46780	         4.36996e+57
          1196.27410	         1.23427e+58
          1197.08040	         8.37141e+57
          1197.88670	         8.16322e+57
          1198.69300	         1.44372e+58
          1199.49930	         1.90733e+58
          1200.30560	         1.56963e+58
          1201.11190	         1.13740e+58
          1201.91820	         1.14505e+58
          1202.72450	         1.27897e+58
          1203.53080	         1.42150e+58
          1204.33710	         1.01108e+58
          1205.14340	         4.36049e+57
          1205.94970	         8.15764e+57
          1206.75600	         5.74906e+57
          1207.56230	         5.20733e+57
          1208.36860	         1.00881e+58
          1209.17490	         6.80122e+57
          1209.98120	         8.59131e+57
          1210.78750	         5.73109e+57
          1211.59380	         7.73831e+57
          1212.40010	         1.79351e+58
          1213.20640	         2.14906e+58
          1214.01270	         2.06325e+58
          1214.81900	         2.66664e+58
          1215.62530	         4.81135e+58
          1216.43160	         9.29102e+58
          1217.23790	         1.51829e+59
          1218.04420	         1.16921e+59
          1218.85050	         8.71080e+58
          1219.65680	         5.36915e+58
          1220.46310	         3.20128e+58
          1221.26940	         2.43253e+58
          1222.07570	         1.54383e+58
          1222.88200	         1.28674e+58
          1223.68830	         8.95881e+57
          1224.49460	         7.86256e+57
          1225.30090	         5.27819e+57
          1226.10720	         7.58576e+57
          1226.91350	         6.68993e+57
          1227.71980	         6.79014e+57
          1228.52610	         9.90521e+57
          1229.33240	         7.90503e+57
          1230.13870	         9.50712e+57
          1230.94500	         1.01020e+58
          1231.75130	         8.19640e+57
          1232.55760	         9.91170e+57
          1233.36390	         8.91286e+57
          1234.17020	         6.20381e+57
          1234.97650	         7.87046e+57
          1235.78280	         6.67309e+57
          1236.58910	         8.35881e+57
          1237.39540	         1.17518e+58
          1238.20170	         9.50141e+57
          1239.00800	         1.16730e+58
          1239.81430	         1.70236e+58
          1240.62060	         1.10645e+58
          1241.42690	         9.52588e+57
          1242.23320	         1.34904e+58
          1243.03950	         9.03156e+57
          1243.84580	         7.83729e+57
          1244.65210	         9.62808e+57
          1245.45840	         1.05562e+58
          1246.26470	         9.91669e+57
          1247.07100	         1.02727e+58
          1247.87730	         7.19146e+57
          1248.68360	         3.34668e+57
          1249.48990	         9.44808e+57
          1250.29620	         1.17257e+58
          1251.10250	         1.08351e+58
          1251.90880	         7.60805e+57
          1252.71510	         6.67151e+57
          1253.52140	         5.89773e+57
          1254.32770	         1.00980e+58
          1255.13400	         1.25522e+58
          1255.94030	         1.16134e+58
          1256.74660	         1.17030e+58
          1257.55290	         1.05112e+58
          1258.35920	         8.32174e+57
          1259.16550	         6.92102e+57
          1259.97180	         6.86901e+57
          1260.77810	         8.23099e+57
          1261.58440	         1.06119e+58
          1262.39070	         7.41878e+57
          1263.19700	         5.75919e+57
          1264.00330	         8.37330e+57
          1264.80960	         1.16854e+58
          1265.61590	         1.41133e+58
          1266.42220	         1.26969e+58
          1267.22850	         1.16993e+58
          1268.03480	         1.47267e+58
          1268.84110	         1.30002e+58
          1269.64740	         1.33523e+58
          1270.45370	         1.39175e+58
          1271.26000	         1.37234e+58
          1272.06630	         1.38302e+58
          1272.87260	         1.28192e+58
          1273.67890	         1.17199e+58
          1274.48520	         1.16870e+58
          1275.29150	         1.28461e+58
          1276.09780	         1.24762e+58
          1276.90410	         1.39231e+58
          1277.71040	         1.19952e+58
          1278.51670	         1.12374e+58
          1279.32300	         1.48454e+58
          1280.12930	         1.38228e+58
          1280.93560	         1.32880e+58
          1281.74190	         1.39451e+58
          1282.54820	         1.14169e+58
          1283.35450	         9.83086e+57
          1284.16080	         1.22001e+58
          1284.96710	         1.43351e+58
          1285.77340	         1.41692e+58
          1286.57970	         1.33645e+58
          1287.38600	         1.70992e+58
          1288.19230	         1.89013e+58
          1288.99860	         1.57918e+58
          1289.80490	         1.15088e+58
          1290.61120	         1.25344e+58
          1291.41750	         1.37094e+58
          1292.22380	         1.20789e+58
          1293.03010	         1.16806e+58
          1293.83640	         1.12121e+58
          1294.64270	         1.06533e+58
          1295.44900	         6.30101e+57
          1296.25530	         7.41717e+57
          1297.06160	         1.02195e+58
          1297.86790	         1.03215e+58
          1298.67420	         9.06020e+57
          1299.48050	         9.15021e+57
          1300.28680	         1.04001e+58
          1301.09310	         6.39011e+57
          1301.89940	         2.81221e+57
          1302.70570	         7.61210e+57
          1303.51200	         8.80685e+57
          1304.31830	         9.72946e+57
          1305.12460	         1.03781e+58
          1305.93090	         1.03267e+58
          1306.73720	         1.24065e+58
          1307.54350	         1.49899e+58
          1308.34980	         1.60685e+58
          1309.15610	         1.55064e+58
          1309.96240	         1.41136e+58
          1310.76870	         1.24417e+58
          1311.57500	         1.33913e+58
          1312.38130	         1.80659e+58
          1313.18760	         1.61764e+58
          1313.99390	         1.66889e+58
          1314.80020	         1.74149e+58
          1315.60650	         1.70930e+58
          1316.41280	         1.43138e+58
          1317.21910	         1.17668e+58
          1318.02540	         1.38171e+58
          1318.83170	         1.48882e+58
          1319.63800	         1.25051e+58
          1320.44430	         1.08626e+58
          1321.25060	         1.09958e+58
          1322.05690	         1.06938e+58
          1322.86320	         1.21901e+58
          1323.66950	         1.28548e+58
          1324.47580	         1.03590e+58
          1325.28210	         9.54459e+57
          1326.08840	         1.21333e+58
          1326.89470	         1.38103e+58
          1327.70100	         1.14525e+58
          1328.50730	         8.41073e+57
          1329.31360	         9.25964e+57
          1330.11990	         1.01174e+58
          1330.92620	         9.11144e+57
          1331.73250	         1.01825e+58
          1332.53880	         9.18214e+57
          1333.34510	         8.11015e+57
          1334.15140	         8.57007e+57
          1334.95770	         8.17244e+57
          1335.76400	         9.65000e+57
          1336.57030	         1.03956e+58
          1337.37660	         1.03309e+58
          1338.18290	         1.12745e+58
          1338.98920	         1.22354e+58
          1339.79550	         1.22055e+58
          1340.60180	         1.14036e+58
          1341.40810	         1.32801e+58
          1342.21440	         1.32246e+58
          1343.02070	         1.27060e+58
          1343.82700	         1.35414e+58
          1344.63330	         1.18061e+58
          1345.43960	         1.32575e+58
          1346.24590	         1.26688e+58
          1347.05220	         1.11558e+58
          1347.85850	         9.96074e+57
          1348.66480	         1.11426e+58
          1349.47110	         1.32451e+58
          1350.27740	         1.19735e+58
          1351.08370	         1.20637e+58
          1351.89000	         1.14896e+58
          1352.69630	         1.17250e+58
          1353.50260	         1.13800e+58
          1354.30890	         1.06505e+58
          1355.11520	         1.26418e+58
          1355.92150	         1.05031e+58
          1356.72780	         1.01937e+58
          1357.53410	         1.13877e+58
          1358.34040	         1.00130e+58
          1359.14670	         1.02604e+58
          1359.95300	         1.11157e+58
          1360.75930	         1.08126e+58
          1361.56560	         9.77501e+57
          1362.37190	         1.15700e+58
          1363.17820	         1.14439e+58
          1363.98450	         1.09923e+58
          1364.79080	         1.19360e+58
          1365.59710	         1.37680e+58
          1366.40340	         1.23903e+58
          1367.20970	         9.93033e+57
          1368.01600	         9.42020e+57
          1368.82230	         8.95775e+57
          1369.62860	         9.09871e+57
          1370.43490	         8.24493e+57
          1371.24120	         8.62136e+57
          1372.04750	         8.23407e+57
          1372.85380	         9.37802e+57
          1373.66010	         1.03388e+58
          1374.46640	         9.86406e+57
          1375.27270	         9.89213e+57
          1376.07900	         9.83668e+57
          1376.88530	         9.78347e+57
          1377.69160	         8.54559e+57
          1378.49790	         7.72323e+57
          1379.30420	         8.35421e+57
          1380.11050	         8.61050e+57
          1380.91680	         8.73745e+57
          1381.72310	         9.18965e+57
          1382.52940	         8.90473e+57
          1383.33570	         9.26682e+57
          1384.14200	         1.07264e+58
          1384.94830	         1.13299e+58
          1385.75460	         1.03266e+58
          1386.56090	         9.91611e+57
          1387.36720	         1.05158e+58
          1388.17350	         1.25183e+58
          1388.97980	         1.08899e+58
          1389.78610	         9.41815e+57
          1390.59240	         8.51216e+57
          1391.39870	         8.28349e+57
          1392.20500	         7.89506e+57
          1393.01130	         6.72273e+57
          1393.81760	         7.26694e+57
          1394.62390	         7.84671e+57
          1395.43020	         7.93657e+57
          1396.23650	         7.53683e+57
          1397.04280	         7.14822e+57
          1397.84910	         7.78165e+57
          1398.65540	         8.21670e+57
          1399.46170	         9.91535e+57
          1400.26800	         9.16412e+57
          1401.07430	         6.77113e+57
          1401.88060	         7.46067e+57
          1402.68690	         9.41792e+57
          1403.49320	         9.33580e+57
          1404.29950	         9.43931e+57
          1405.10580	         1.00901e+58
          1405.91210	         1.05426e+58
          1406.71840	         1.11286e+58
          1407.52470	         1.11123e+58
          1408.33100	         1.05544e+58
          1409.13730	         1.10340e+58
          1409.94360	         1.16025e+58
          1410.74990	         1.29751e+58
          1411.55620	         1.17062e+58
          1412.36250	         9.68901e+57
          1413.16880	         9.11605e+57
          1413.97510	         8.34262e+57
          1414.78140	         8.65928e+57
          1415.58770	         9.25064e+57
          1416.39400	         9.75986e+57
          1417.20030	         1.05478e+58
          1418.00660	         1.01171e+58
          1418.81290	         1.05442e+58
          1419.61920	         9.70912e+57
          1420.42550	         1.22494e+58
          1421.23180	         1.37151e+58
          1422.03810	         1.31800e+58
          1422.84440	         1.15643e+58
          1423.65070	         1.30822e+58
          1424.45700	         1.14509e+58
          1425.26330	         9.28375e+57
          1426.06960	         8.57141e+57
          1426.87590	         9.64655e+57
          1427.68220	         1.02626e+58
          1428.48850	         1.05752e+58
          1429.29480	         1.03253e+58
          1430.10110	         1.02179e+58
          1430.90740	         8.45536e+57
          1431.71370	         7.89654e+57
          1432.52000	         9.09566e+57
          1433.32630	         8.98467e+57
          1434.13260	         7.97015e+57
          1434.93890	         7.75800e+57
          1435.74520	         8.17456e+57
          1436.55150	         9.42028e+57
          1437.35780	         9.16983e+57
          1438.16410	         9.36301e+57
          1438.97040	         9.66036e+57
          1439.77670	         9.01046e+57
          1440.58300	         8.44797e+57
          1441.38930	         9.59515e+57
          1442.19560	         9.65200e+57
          1443.00190	         9.60747e+57
          1443.80820	         1.10469e+58
          1444.61450	         9.92017e+57
          1445.42080	         7.61481e+57
          1446.22710	         9.15096e+57
          1447.03340	         1.01119e+58
          1447.83970	         1.08795e+58
          1448.64600	         1.08272e+58
          1449.45230	         9.37826e+57
          1450.25860	         1.01379e+58
          1451.06490	         9.94184e+57
          1451.87120	         8.46520e+57
          1452.67750	         6.88200e+57
          1453.48380	         8.04610e+57
          1454.29010	         8.50737e+57
          1455.09640	         7.82184e+57
          1455.90270	         8.97542e+57
          1456.70900	         9.27194e+57
          1457.51530	         9.45517e+57
          1458.32160	         1.03396e+58
          1459.12790	         1.08382e+58
          1459.93420	         9.91337e+57
          1460.74050	         8.04280e+57
          1461.54680	         8.12022e+57
          1462.35310	         8.33640e+57
          1463.15940	         8.21600e+57
          1463.96570	         1.02117e+58
          1464.77200	         1.06884e+58
          1465.57830	         1.00232e+58
          1466.38460	         9.82522e+57
          1467.19090	         9.56295e+57
          1467.99720	         9.44738e+57
          1468.80350	         9.99429e+57
          1469.60980	         9.62759e+57
          1470.41610	         1.01408e+58
          1471.22240	         1.01622e+58
          1472.02870	         9.83624e+57
          1472.83500	         9.66501e+57
          1473.64130	         1.04097e+58
          1474.44760	         1.09460e+58
          1475.25390	         9.11273e+57
          1476.06020	         8.43187e+57
          1476.86650	         8.66586e+57
          1477.67280	         7.85582e+57
          1478.47910	         6.64950e+57
          1479.28540	         6.73319e+57
          1480.09170	         7.87895e+57
          1480.89800	         8.36955e+57
          1481.70430	         8.40400e+57
          1482.51060	         8.59137e+57
          1483.31690	         7.47519e+57
          1484.12320	         7.59727e+57
          1484.92950	         8.05867e+57
          1485.73580	         7.91867e+57
          1486.54210	         8.63564e+57
          1487.34840	         8.84559e+57
          1488.15470	         7.91258e+57
          1488.96100	         8.09369e+57
          1489.76730	         8.85320e+57
          1490.57360	         8.22935e+57
          1491.37990	         8.17514e+57
          1492.18620	         7.88922e+57
          1492.99250	         8.19877e+57
          1493.79880	         8.22149e+57
          1494.60510	         8.15810e+57
          1495.41140	         7.14102e+57
          1496.21770	         7.91317e+57
          1497.02400	         9.58011e+57
          1497.83030	         8.51634e+57
          1498.63660	         7.40249e+57
          1499.44290	         7.00063e+57
          1500.24920	         6.68934e+57
          1501.05550	         5.92106e+57
          1501.86180	         6.69649e+57
          1502.66810	         9.67470e+57
          1503.47440	         9.08083e+57
          1504.28070	         7.44207e+57
          1505.08700	         8.98767e+57
          1505.89330	         9.49174e+57
          1506.69960	         8.90788e+57
          1507.50590	         8.75626e+57
          1508.31220	         8.41688e+57
          1509.11850	         8.62414e+57
          1509.92480	         8.98869e+57
          1510.73110	         9.07514e+57
          1511.53740	         7.62041e+57
          1512.34370	         7.37986e+57
          1513.15000	         9.18220e+57
          1513.95630	         1.01725e+58
          1514.76260	         9.84724e+57
          1515.56890	         8.74971e+57
          1516.37520	         9.02410e+57
          1517.18150	         8.56058e+57
          1517.98780	         7.45828e+57
          1518.79410	         6.52347e+57
          1519.60040	         7.00318e+57
          1520.40670	         8.95109e+57
          1521.21300	         9.03281e+57
          1522.01930	         7.93602e+57
          1522.82560	         9.29964e+57
          1523.63190	         1.00737e+58
          1524.43820	         9.10065e+57
          1525.24450	         7.26339e+57
          1526.05080	         6.18541e+57
          1526.85710	         5.83680e+57
          1527.66340	         6.42606e+57
          1528.46970	         8.39320e+57
          1529.27600	         8.11009e+57
          1530.08230	         7.64030e+57
          1530.88860	         7.63449e+57
          1531.69490	         8.09979e+57
          1532.50120	         9.37332e+57
          1533.30750	         9.31283e+57
          1534.11380	         9.80865e+57
          1534.92010	         9.37548e+57
          1535.72640	         8.48560e+57
          1536.53270	         8.58287e+57
          1537.33900	         9.68073e+57
          1538.14530	         9.77051e+57
          1538.95160	         9.03560e+57
          1539.75790	         9.19683e+57
          1540.56420	         9.23734e+57
          1541.37050	         8.95653e+57
          1542.17680	         8.55492e+57
          1542.98310	         8.17523e+57
          1543.78940	         7.45886e+57
          1544.59570	         6.84839e+57
          1545.40200	         7.58569e+57
          1546.20830	         8.85863e+57
          1547.01460	         1.02550e+58
          1547.82090	         1.12981e+58
          1548.62720	         1.17559e+58
          1549.43350	         1.15415e+58
          1550.23980	         1.08530e+58
          1551.04610	         1.19762e+58
          1551.85240	         1.22693e+58
          1552.65870	         1.21654e+58
          1553.46500	         1.05370e+58
          1554.27130	         1.00247e+58
          1555.07760	         1.05460e+58
          1555.88390	         9.61647e+57
          1556.69020	         9.36343e+57
          1557.49650	         9.68599e+57
          1558.30280	         7.98255e+57
          1559.10910	         8.18330e+57
          1559.91540	         8.95426e+57
          1560.72170	         8.25434e+57
          1561.52800	         8.63146e+57
          1562.33430	         8.69389e+57
          1563.14060	         8.67124e+57
          1563.94690	         7.78401e+57
          1564.75320	         7.13370e+57
          1565.55950	         7.04284e+57
          1566.36580	         6.92083e+57
          1567.17210	         8.48323e+57
          1567.97840	         9.86324e+57
          1568.78470	         9.57573e+57
          1569.59100	         9.42286e+57
          1570.39730	         9.15986e+57
          1571.20360	         7.82154e+57
          1572.00990	         8.13723e+57
          1572.81620	         9.16956e+57
          1573.62250	         9.99007e+57
          1574.42880	         9.27604e+57
          1575.23510	         7.76101e+57
          1576.04140	         8.31626e+57
          1576.84770	         8.82504e+57
          1577.65400	         8.84206e+57
          1578.46030	         9.44901e+57
          1579.26660	         9.73830e+57
          1580.07290	         9.03214e+57
          1580.87920	         7.65846e+57
          1581.68550	         7.82965e+57
          1582.49180	         8.97483e+57
          1583.29810	         8.65648e+57
          1584.10440	         8.64107e+57
          1584.91070	         8.88013e+57
          1585.71700	         8.62293e+57
          1586.52330	         8.93714e+57
          1587.32960	         8.90442e+57
          1588.13590	         8.46115e+57
          1588.94220	         7.87718e+57
          1589.74850	         8.19137e+57
          1590.55480	         8.21863e+57
          1591.36110	         8.91763e+57
          1592.16740	         9.19894e+57
          1592.97370	         8.41872e+57
          1593.78000	         9.09789e+57
          1594.58630	         9.03582e+57
          1595.39260	         8.09369e+57
          1596.19890	         8.46619e+57
          1597.00520	         8.87257e+57
          1597.81150	         8.88229e+57
          1598.61780	         6.65540e+57
          1599.42410	         6.78303e+57
          1600.23040	         7.17417e+57
          1601.03670	         7.30202e+57
          1601.84300	         7.39914e+57
          1602.64930	         8.51380e+57
          1603.45560	         8.60456e+57
          1604.26190	         8.37909e+57
          1605.06820	         8.62504e+57
          1605.87450	         7.47408e+57
          1606.68080	         6.94056e+57
          1607.48710	         6.45445e+57
          1608.29340	         5.90163e+57
          1609.09970	         7.65621e+57
          1609.90600	         8.12309e+57
          1610.71230	         6.74272e+57
          1611.51860	         7.24032e+57
          1612.32490	         7.67749e+57
          1613.13120	         8.48118e+57
          1613.93750	         8.32257e+57
          1614.74380	         7.78481e+57
          1615.55010	         8.66047e+57
          1616.35640	         8.29123e+57
          1617.16270	         9.64644e+57
          1617.96900	         1.02118e+58
          1618.77530	         8.45928e+57
          1619.58160	         8.71060e+57
          1620.38790	         8.87151e+57
          1621.19420	         9.26673e+57
          1622.00050	         8.45704e+57
          1622.80680	         8.29914e+57
          1623.61310	         7.72564e+57
          1624.41940	         7.71763e+57
          1625.22570	         9.41329e+57
          1626.03200	         9.10930e+57
          1626.83830	         8.37618e+57
          1627.64460	         7.69564e+57
          1628.45090	         6.81721e+57
          1629.25720	         8.72562e+57
          1630.06350	         8.66421e+57
          1630.86980	         5.68602e+57
          1631.67610	         7.01248e+57
          1632.48240	         8.75765e+57
          1633.28870	         8.69388e+57
          1634.09500	         1.02476e+58
          1634.90130	         1.06132e+58
          1635.70760	         9.66781e+57
          1636.51390	         7.60752e+57
          1637.32020	         8.01596e+57
          1638.12650	         9.33379e+57
          1638.93280	         9.28334e+57
          1639.73910	         1.08300e+58
          1640.54540	         1.17169e+58
          1641.35170	         1.02892e+58
          1642.15800	         9.97380e+57
          1642.96430	         9.28317e+57
          1643.77060	         8.71151e+57
          1644.57690	         7.12264e+57
          1645.38320	         7.43933e+57
          1646.18950	         6.48492e+57
          1646.99580	         7.18678e+57
          1647.80210	         7.91788e+57
          1648.60840	         7.63635e+57
          1649.41470	         8.60940e+57
          1650.22100	         7.04760e+57
          1651.02730	         6.58791e+57
          1651.83360	         6.46323e+57
          1652.63990	         8.00586e+57
          1653.44620	         9.17106e+57
          1654.25250	         7.46485e+57
          1655.05880	         7.18168e+57
          1655.86510	         8.22299e+57
          1656.67140	         8.33317e+57
          1657.47770	         7.60918e+57
          1658.28400	         7.59535e+57
          1659.09030	         9.08937e+57
          1659.89660	         1.06534e+58
          1660.70290	         1.04729e+58
          1661.50920	         9.48043e+57
          1662.31550	         7.51349e+57
          1663.12180	         8.07953e+57
          1663.92810	         9.62124e+57
          1664.73440	         1.11883e+58
          1665.54070	         1.21679e+58
          1666.34700	         1.23029e+58
          1667.15330	         1.15219e+58
          1667.95960	         9.49250e+57
          1668.76590	         7.24446e+57
          1669.57220	         6.87057e+57
          1670.37850	         7.86893e+57
          1671.18480	         8.77264e+57
          1671.99110	         7.93236e+57
          1672.79740	         7.10797e+57
          1673.60370	         7.21207e+57
          1674.41000	         7.55954e+57
          1675.21630	         7.45054e+57
          1676.02260	         7.75576e+57
          1676.82890	         7.55249e+57
          1677.63520	         7.16660e+57
          1678.44150	         7.48241e+57
          1679.24780	         7.87735e+57
          1680.05410	         6.80624e+57
          1680.86040	         5.17330e+57
          1681.66670	         6.32684e+57
          1682.47300	         7.70983e+57
          1683.27930	         8.36448e+57
          1684.08560	         9.44442e+57
          1684.89190	         8.21634e+57
          1685.69820	         6.33544e+57
          1686.50450	         5.49398e+57
          1687.31080	         6.27090e+57
          1688.11710	         7.33397e+57
          1688.92340	         7.14555e+57
          1689.72970	         6.22900e+57
          1690.53600	         6.39531e+57
          1691.34230	         7.07952e+57
          1692.14860	         7.41769e+57
          1692.95490	         7.44011e+57
          1693.76120	         7.45887e+57
          1694.56750	         7.70211e+57
          1695.37380	         8.87985e+57
          1696.18010	         8.40128e+57
          1696.98640	         7.32942e+57
          1697.79270	         8.15512e+57
          1698.59900	         8.24625e+57
          1699.40530	         7.52876e+57
          1700.21160	         7.38086e+57
          1701.01790	         7.36260e+57
          1701.82420	         8.67387e+57
          1702.63050	         8.18937e+57
          1703.43680	         7.47416e+57
          1704.24310	         7.39981e+57
          1705.04940	         7.75208e+57
          1705.85570	         8.44160e+57
          1706.66200	         8.71990e+57
          1707.46830	         8.67137e+57
          1708.27460	         7.28767e+57
          1709.08090	         6.39246e+57
          1709.88720	         6.21889e+57
          1710.69350	         5.87858e+57
          1711.49980	         6.23681e+57
          1712.30610	         7.28479e+57
          1713.11240	         9.04855e+57
          1713.91870	         7.11462e+57
          1714.72500	         7.37354e+57
          1715.53130	         8.57523e+57
          1716.33760	         7.15561e+57
          1717.14390	         7.79030e+57
          1717.95020	         8.38243e+57
          1718.75650	         8.23057e+57
          1719.56280	         8.63034e+57
          1720.36910	         7.72742e+57
          1721.17540	         6.31603e+57
          1721.98170	         6.63243e+57
          1722.78800	         7.69173e+57
          1723.59430	         7.96295e+57
          1724.40060	         7.56684e+57
          1725.20690	         8.81577e+57
          1726.01320	         8.49468e+57
          1726.81950	         7.30744e+57
          1727.62580	         7.45503e+57
          1728.43210	         7.17001e+57
          1729.23840	         7.40681e+57
          1730.04470	         7.29640e+57
          1730.85100	         7.80358e+57
          1731.65730	         8.40937e+57
          1732.46360	         8.05849e+57
          1733.26990	         7.28755e+57
          1734.07620	         7.70111e+57
          1734.88250	         7.43547e+57
          1735.68880	         7.23991e+57
          1736.49510	         8.24530e+57
          1737.30140	         8.64626e+57
          1738.10770	         7.35812e+57
          1738.91400	         6.88437e+57
          1739.72030	         7.53462e+57
          1740.52660	         6.12667e+57
          1741.33290	         5.93302e+57
          1742.13920	         6.17490e+57
          1742.94550	         7.06853e+57
          1743.75180	         7.57454e+57
          1744.55810	         8.30285e+57
          1745.36440	         8.58586e+57
          1746.17070	         6.49037e+57
          1746.97700	         6.18744e+57
          1747.78330	         6.99010e+57
          1748.58960	         6.41247e+57
          1749.39590	         6.78964e+57
          1750.20220	         6.19280e+57
          1751.00850	         6.00078e+57
          1751.81480	         6.66103e+57
          1752.62110	         6.34740e+57
          1753.42740	         7.22846e+57
          1754.23370	         6.83075e+57
          1755.04000	         7.46760e+57
          1755.84630	         7.19957e+57
          1756.65260	         8.18940e+57
          1757.45890	         8.79358e+57
          1758.26520	         8.09787e+57
          1759.07150	         9.64957e+57
          1759.87780	         9.01309e+57
          1760.68410	         8.41187e+57
          1761.49040	         8.25399e+57
          1762.29670	         5.75933e+57
          1763.10300	         6.81489e+57
          1763.90930	         7.98759e+57
          1764.71560	         7.65044e+57
          1765.52190	         8.45374e+57
          1766.32820	         8.68757e+57
          1767.13450	         8.91594e+57
          1767.94080	         7.78589e+57
          1768.74710	         6.76639e+57
          1769.55340	         7.01965e+57
          1770.35970	         6.87384e+57
          1771.16600	         7.54260e+57
          1771.97230	         7.85151e+57
          1772.77860	         8.17825e+57
          1773.58490	         7.64288e+57
          1774.39120	         5.87355e+57
          1775.19750	         5.82836e+57
          1776.00380	         6.25535e+57
          1776.81010	         6.65703e+57
          1777.61640	         6.99063e+57
          1778.42270	         7.58794e+57
          1779.22900	         6.84459e+57
          1780.03530	         6.09799e+57
          1780.84160	         6.89042e+57
          1781.64790	         7.49432e+57
          1782.45420	         7.12920e+57
          1783.26050	         6.64578e+57
          1784.06680	         7.52788e+57
          1784.87310	         6.99894e+57
          1785.67940	         8.04258e+57
          1786.48570	         7.31509e+57
          1787.29200	         6.46412e+57
          1788.09830	         6.31040e+57
          1788.90460	         6.16045e+57
          1789.71090	         5.20302e+57
          1790.51720	         5.09178e+57
          1791.32350	         7.58960e+57
          1792.12980	         9.14009e+57
          1792.93610	         7.49072e+57
          1793.74240	         6.81748e+57
          1794.54870	         7.41275e+57
          1795.35500	         7.65292e+57
          1796.16130	         7.90835e+57
          1796.96760	         6.88798e+57
          1797.77390	         6.96482e+57
          1798.58020	         8.29547e+57
          1799.38650	         7.98589e+57
          1800.19280	         7.08287e+57
          1800.99910	         8.04138e+57
          1801.80540	         8.04978e+57
          1802.61170	         8.48131e+57
          1803.41800	         8.54083e+57
          1804.22430	         6.87902e+57
          1805.03060	         7.07047e+57
          1805.83690	         7.81324e+57
          1806.64320	         7.44526e+57
          1807.44950	         7.28016e+57
          1808.25580	         7.49225e+57
          1809.06210	         7.75823e+57
          1809.86840	         7.73441e+57
          1810.67470	         7.94983e+57
          1811.48100	         8.63643e+57
          1812.28730	         8.43575e+57
          1813.09360	         7.82796e+57
          1813.89990	         7.33050e+57
          1814.70620	         6.70712e+57
          1815.51250	         8.12562e+57
          1816.31880	         8.16754e+57
          1817.12510	         6.72407e+57
          1817.93140	         7.13325e+57
          1818.73770	         7.36589e+57
          1819.54400	         8.40696e+57
          1820.35030	         8.37227e+57
          1821.15660	         5.63658e+57
          1821.96290	         5.64111e+57
          1822.76920	         7.14457e+57
          1823.57550	         7.11737e+57
          1824.38180	         6.35258e+57
          1825.18810	         7.94120e+57
          1825.99440	         9.34798e+57
          1826.80070	         8.26154e+57
          1827.60700	         7.03325e+57
          1828.41330	         6.52492e+57
          1829.21960	         6.17433e+57
          1830.02590	         7.52363e+57
          1830.83220	         7.78407e+57
          1831.63850	         7.03397e+57
          1832.44480	         7.05526e+57
          1833.25110	         7.51184e+57
          1834.05740	         7.74146e+57
          1834.86370	         6.06722e+57
          1835.67000	         5.59670e+57
          1836.47630	         7.35623e+57
          1837.28260	         8.92531e+57
          1838.08890	         9.08058e+57
          1838.89520	         9.37226e+57
          1839.70150	         8.55563e+57
          1840.50780	         7.66791e+57
          1841.31410	         6.52254e+57
          1842.12040	         7.13373e+57
          1842.92670	         7.21616e+57
          1843.73300	         6.86112e+57
          1844.53930	         7.83580e+57
          1845.34560	         7.78668e+57
          1846.15190	         7.45651e+57
          1846.95820	         7.80647e+57
          1847.76450	         7.89169e+57
          1848.57080	         5.90668e+57
          1849.37710	         5.60254e+57
          1850.18340	         7.04452e+57
          1850.98970	         8.49429e+57
          1851.79600	         8.81061e+57
          1852.60230	         7.76973e+57
          1853.40860	         6.92365e+57
          1854.21490	         6.75692e+57
          1855.02120	         7.29409e+57
          1855.82750	         6.04285e+57
          1856.63380	         6.32736e+57
          1857.44010	         6.90401e+57
          1858.24640	         7.29293e+57
          1859.05270	         6.59533e+57
          1859.85900	         6.01053e+57
          1860.66530	         5.85820e+57
          1861.47160	         6.74363e+57
          1862.27790	         7.81477e+57
          1863.08420	         6.47861e+57
          1863.89050	         7.08234e+57
          1864.69680	         7.24255e+57
          1865.50310	         7.50217e+57
          1866.30940	         7.17168e+57
          1867.11570	         6.18681e+57
          1867.92200	         7.25478e+57
          1868.72830	         8.00757e+57
          1869.53460	         7.33471e+57
          1870.34090	         7.67589e+57
          1871.14720	         7.47232e+57
          1871.95350	         6.70505e+57
          1872.75980	         6.83497e+57
          1873.56610	         7.34000e+57
          1874.37240	         6.39652e+57
          1875.17870	         6.19406e+57
          1875.98500	         7.81595e+57
          1876.79130	         8.05202e+57
          1877.59760	         7.15953e+57
          1878.40390	         5.88198e+57
          1879.21020	         5.45865e+57
          1880.01650	         7.06003e+57
          1880.82280	         8.84768e+57
          1881.62910	         9.46510e+57
          1882.43540	         9.76896e+57
          1883.24170	         8.40712e+57
          1884.04800	         6.87061e+57
          1884.85430	         7.40207e+57
          1885.66060	         7.36768e+57
          1886.46690	         7.96195e+57
          1887.27320	         7.69110e+57
          1888.07950	         6.28273e+57
          1888.88580	         7.04341e+57
          1889.69210	         8.20724e+57
          1890.49840	         8.10170e+57
          1891.30470	         8.79535e+57
          1892.11100	         9.02116e+57
          1892.91730	         8.46382e+57
          1893.72360	         8.13764e+57
          1894.52990	         7.54167e+57
          1895.33620	         8.89908e+57
          1896.14250	         8.14713e+57
          1896.94880	         6.66771e+57
          1897.75510	         4.97452e+57
          1898.56140	         6.06854e+57
          1899.36770	         7.88123e+57
          1900.17400	         5.97881e+57
          1900.98030	         6.58994e+57
          1901.78660	         7.38184e+57
          1902.59290	         6.80509e+57
          1903.39920	         7.82757e+57
          1904.20550	         7.99675e+57
          1905.01180	         8.62957e+57
          1905.81810	         9.82891e+57
          1906.62440	         1.24216e+58
          1907.43070	         1.56359e+58
          1908.23700	         1.66399e+58
          1909.04330	         1.33059e+58
          1909.84960	         1.04633e+58
          1910.65590	         1.00131e+58
          1911.46220	         1.01242e+58
          1912.26850	         8.60941e+57
          1913.07480	         6.10112e+57
          1913.88110	         5.27351e+57
          1914.68740	         5.35564e+57
          1915.49370	         5.06174e+57
          1916.30000	         6.53523e+57
          1917.10630	         7.58536e+57
          1917.91260	         6.76797e+57
          1918.71890	         6.17490e+57
          1919.52520	         6.39976e+57
          1920.33150	         6.01870e+57
          1921.13780	         7.05793e+57
          1921.94410	         8.46669e+57
          1922.75040	         8.80522e+57
          1923.55670	         7.65250e+57
          1924.36300	         7.19380e+57
          1925.16930	         5.87014e+57
          1925.97560	         5.15622e+57
          1926.78190	         4.44153e+57
          1927.58820	         5.82219e+57
          1928.39450	         5.22235e+57
          1929.20080	         6.35931e+57
          1930.00710	         7.67438e+57
          1930.81340	         9.21711e+57
          1931.61970	         6.88389e+57
          1932.42600	         6.83058e+57
          1933.23230	         7.56502e+57
          1934.03860	         6.37956e+57
          1934.84490	         5.55949e+57
          1935.65120	         7.49738e+57
          1936.45750	         7.91318e+57
          1937.26380	         6.75730e+57
          1938.07010	         7.07734e+57
          1938.87640	         8.02283e+57
          1939.68270	         7.73890e+57
          1940.48900	         7.33629e+57
          1941.29530	         7.56388e+57
          1942.10160	         7.15402e+57
          1942.90790	         7.19622e+57
          1943.71420	         6.21001e+57
          1944.52050	         5.94532e+57
          1945.32680	         5.51782e+57
          1946.13310	         7.32068e+57
          1946.93940	         8.15867e+57
          1947.74570	         7.39906e+57
          1948.55200	         6.45352e+57
          1949.35830	         6.25148e+57
          1950.16460	         6.12074e+57
          1950.97090	         6.19757e+57
          1951.77720	         6.87000e+57
          1952.58350	         7.99278e+57
          1953.38980	         5.79486e+57
          1954.19610	         4.21355e+57
          1955.00240	         6.04887e+57
          1955.80870	         6.20041e+57
          1956.61500	         6.40466e+57
          1957.42130	         7.31358e+57
          1958.22760	         6.40230e+57
          1959.03390	         6.59954e+57
          1959.84020	         7.55018e+57
          1960.64650	         6.49065e+57
          1961.45280	         6.01198e+57
          1962.25910	         6.18353e+57
          1963.06540	         6.07830e+57
          1963.87170	         5.93337e+57
          1964.67800	         7.36736e+57
          1965.48430	         5.68089e+57
          1966.29060	         5.66468e+57
          1967.09690	         8.88360e+57
          1967.90320	         7.63650e+57
          1968.70950	         5.69131e+57
          1969.51580	         5.63168e+57
          1970.32210	         7.47906e+57
          1971.12840	         6.69590e+57
          1971.93470	         5.07690e+57
          1972.74100	         4.48440e+57
          1973.54730	         5.51885e+57
          1974.35360	         5.95645e+57
          1975.15990	         5.90569e+57
          1975.96620	         5.50135e+57
          1976.77250	         7.73098e+57
          1977.57880	         7.92524e+57
          1978.38510	         7.31878e+57
          1979.19140	         7.85799e+57
          1979.99770	         7.98463e+57
          1980.80400	         7.93596e+57
          1981.61030	         7.76675e+57
          1982.41660	         5.55515e+57
          1983.22290	         6.51038e+57
          1984.02920	         6.28509e+57
          1984.83550	         5.33788e+57
          1985.64180	         5.63426e+57
          1986.44810	         5.43818e+57
          1987.25440	         5.12971e+57
          1988.06070	         5.41483e+57
          1988.86700	         5.82235e+57
          1989.67330	         7.30807e+57
          1990.47960	         6.74521e+57
          1991.28590	         6.62003e+57
          1992.09220	         6.25796e+57
          1992.89850	         6.26831e+57
          1993.70480	         5.26961e+57
          1994.51110	         4.26743e+57
          1995.31740	         4.68317e+57
          1996.12370	         4.95485e+57
          1996.93000	         5.17572e+57
          1997.73630	         6.97844e+57
          1998.54260	         7.92073e+57
          1999.34890	         5.51407e+57
          2000.15520	         6.01050e+57
          2000.96150	         5.96415e+57
          2001.76780	         6.30338e+57
          2002.57410	         4.55491e+57
          2003.38040	         6.58652e+57
          2004.18670	         6.92101e+57
          2004.99300	         5.44208e+57
          2005.79930	         7.06473e+57
          2006.60560	         7.18499e+57
          2007.41190	         6.09132e+57
          2008.21820	         6.52128e+57
          2009.02450	         6.66874e+57
          2009.83080	         5.85457e+57
          2010.63710	         6.03645e+57
          2011.44340	         6.80189e+57
          2012.24970	         7.55122e+57
          2013.05600	         7.60368e+57
          2013.86230	         7.00196e+57
          2014.66860	         5.23460e+57
          2015.47490	         5.95375e+57
          2016.28120	         5.50191e+57
          2017.08750	         6.08984e+57
          2017.89380	         6.92868e+57
          2018.70010	         6.52450e+57
          2019.50640	         5.65661e+57
          2020.31270	         6.82859e+57
          2021.11900	         8.49633e+57
          2021.92530	         7.42467e+57
          2022.73160	         7.32347e+57
          2023.53790	         6.69905e+57
          2024.34420	         6.50404e+57
          2025.15050	         5.88983e+57
          2025.95680	         5.18506e+57
          2026.76310	         5.76924e+57
          2027.56940	         6.85237e+57
          2028.37570	         7.36706e+57
          2029.18200	         6.01463e+57
          2029.98830	         5.86816e+57
          2030.79460	         6.28742e+57
          2031.60090	         5.95384e+57
          2032.40720	         5.94768e+57
          2033.21350	         6.18995e+57
          2034.01980	         5.85592e+57
          2034.82610	         4.08445e+57
          2035.63240	         4.51624e+57
          2036.43870	         5.40757e+57
          2037.24500	         6.25322e+57
          2038.05130	         6.50598e+57
          2038.85760	         5.84696e+57
          2039.66390	         5.80753e+57
          2040.47020	         6.02234e+57
          2041.27650	         5.74296e+57
          2042.08280	         5.58271e+57
          2042.88910	         6.55367e+57
          2043.69540	         7.05284e+57
          2044.50170	         5.82565e+57
          2045.30800	         4.03636e+57
          2046.11430	         4.66744e+57
          2046.92060	         6.20399e+57
          2047.72690	         6.75911e+57
          2048.53320	         7.61943e+57
          2049.33950	         5.93130e+57
          2050.14580	         5.58304e+57
          2050.95210	         7.75853e+57
          2051.75840	         6.40201e+57
          2052.56470	         6.55251e+57
          2053.37100	         4.65902e+57
          2054.17730	         4.58348e+57
          2054.98360	         5.00751e+57
          2055.78990	         3.22739e+57
          2056.59620	         3.21271e+57
          2057.40250	         4.86909e+57
          2058.20880	         5.55652e+57
          2059.01510	         6.10889e+57
          2059.82140	         7.06172e+57
          2060.62770	         9.78083e+57
          2061.43400	         1.74686e+58
          2062.24030	         1.09028e+58
          2063.04660	         4.33456e+57
          2063.85290	         1.50063e+57
          2064.65920	        -1.11285e+57
          2065.46550	        -8.42270e+57
          2066.27180	        -9.52323e+57
          2067.07810	         2.94008e+57
          2067.88440	         6.33270e+57
          2068.69070	         7.64203e+57
          2069.49700	         5.50066e+57
          2070.30330	         3.75034e+57
          2071.10960	         6.46298e+57
          2071.91590	         5.72685e+57
          2072.72220	         4.17454e+57
          2073.52850	         4.51469e+57
          2074.33480	         4.69752e+57
          2075.14110	         5.47201e+57
          2075.94740	         4.77075e+57
          2076.75370	         3.14909e+57
          2077.56000	         4.39824e+57
          2078.36630	         4.90724e+57
          2079.17260	         5.19822e+57
          2079.97890	         6.90578e+57
          2080.78520	         5.30896e+57
          2081.59150	         4.70427e+57
          2082.39780	         5.13174e+57
          2083.20410	         3.98687e+57
          2084.01040	         1.84078e+57
          2084.81670	         2.47956e+57
          2085.62300	         3.87558e+57
          2086.42930	         2.90416e+57
          2087.23560	         3.14156e+57
          2088.04190	         3.58398e+57
          2088.84820	         3.86218e+57
          2089.65450	         1.49007e+57
          2090.46080	         1.07642e+57
          2091.26710	         2.12558e+57
          2092.07340	         3.08688e+57
          2092.87970	         5.70960e+57
          2093.68600	        -1.29890e+57
          2094.49230	         1.61578e+57
          2095.29860	         4.47105e+57
          2096.10490	         1.81208e+57
          2096.91120	         3.18974e+57
          2097.71750	         1.57812e+57
          2098.52380	         1.20691e+57
          2099.33010	         3.04655e+57
          2100.13640	         2.43302e+57
          2100.94270	         2.18077e+57
          2101.74900	         4.46790e+57
          2102.55530	         3.23092e+57
          2103.36160	         1.58421e+57
          2104.16790	         3.25245e+57
          2104.97420	         2.80603e+57
          2105.78050	         1.84639e+57
          2106.58680	        -3.10565e+56
          2107.39310	        -4.34770e+57
          2108.19940	         1.41946e+57
          2109.00570	        -1.53127e+57
          2109.81200	        -4.81056e+57
          2110.61830	         8.03951e+56
          2111.42460	        -3.65900e+55
          2112.23090	         1.67708e+57
          2113.03720	         1.44493e+57
          2113.84350	        -1.56594e+57
          2114.64980	         3.10521e+57
          2115.45610	         1.48371e+57
          2116.26240	        -1.20049e+57
          2117.06870	        -5.50369e+57
          2117.87500	        -4.74143e+57
          2118.68130	        -6.60946e+56
          2119.48760	         2.56454e+57
          2120.29390	         2.34535e+57
          2121.10020	        -5.48014e+57
          2121.90650	        -3.30453e+57
          2122.71280	         3.07259e+57
          2123.51910	         5.53248e+57
          2124.32540	         4.34947e+57
          2125.13170	         4.85691e+57
          2125.93800	         5.24468e+57
          2126.74430	        -1.76586e+57
          2127.55060	        -5.58974e+57
          2128.35690	        -2.45822e+57
          2129.16320	        -5.96643e+57
          2129.96950	        -1.27167e+57
          2130.77580	         2.33401e+57
          2131.58210	        -1.19453e+56
          2132.38840	        -4.27850e+57
          2133.19470	         6.01018e+56
          2134.00100	        -6.65918e+56
          2134.80730	        -4.44598e+55
          2135.61360	         2.10890e+57
          2136.41990	         5.72536e+57
          2137.22620	         2.70820e+57
          2138.03250	        -4.11903e+56
          2138.83880	        -2.33413e+57
          2139.64510	         1.40363e+57
          2140.45140	        -3.71931e+57
          2141.25770	        -1.20500e+58
          2142.06400	        -7.96879e+57
          2142.87030	         9.28836e+56
          2143.67660	         2.25039e+57
          2144.48290	         5.62589e+56
          2145.28920	         1.50755e+58
          2146.09550	         4.39267e+56
          2146.90180	        -1.02808e+58
          2147.70810	        -1.04245e+58
          2148.51440	        -6.59907e+57
          2149.32070	        -6.77428e+57
          2150.12700	        -1.13372e+58
          2150.93330	        -7.58502e+57
          2151.73960	        -5.92728e+56
          2152.54590	        -3.72773e+57
          2153.35220	         4.01927e+55
          2154.15850	        -2.92343e+57
          2154.96480	        -1.37621e+57
          2155.77110	        -4.97464e+57
          2156.57740	        -1.89261e+58
          2157.38370	         4.59144e+57
          2158.19000	        -3.32068e+57
          2158.99630	        -7.41845e+57
          2159.80260	        -1.88762e+58
          2160.60890	        -1.33900e+58
          2161.41520	         2.00910e+57
          2162.22150	         2.05590e+57
          2163.02780	         1.59328e+57
          2163.83410	        -4.53339e+57
          2164.64040	        -9.24106e+57
          2165.44670	        -1.23464e+58
          2166.25300	        -8.13817e+57
          2167.05930	        -4.13021e+57
          2167.86560	        -7.35105e+57
          2168.67190	        -1.23880e+57
          2169.47820	        -1.39214e+58
          2170.28450	        -1.48353e+58
          2171.09080	        -8.64774e+56
          2171.89710	        -7.66240e+56
          2172.70340	         1.88260e+57
          2173.50970	        -4.95343e+57
          2174.31600	        -5.50673e+57
          2175.12230	        -9.90125e+56
          2175.92860	        -4.44742e+57
          2176.73490	        -3.94631e+57
          2177.54120	        -8.21713e+56
          2178.34750	        -8.64710e+56
          2179.15380	                 nan
          2179.96010	                 nan
          2180.76640	                 nan
          2181.57270	                 nan
          2182.37900	                 nan
          2183.18530	                 nan
          2183.99160	                 nan
          2184.79790	                 nan
          2185.60420	                 nan
          2186.41050	                 nan
          2187.21680	                 nan
          2188.02310	                 nan
          2188.82940	                 nan
          2189.63570	                 nan
          2190.44200	                 nan
          2191.24830	                 nan
          2192.05460	                 nan
          2192.86090	                 nan
          2193.66720	                 nan
          2194.47350	                 nan
          2195.27980	                 nan
          2196.08610	                 nan
          2196.89240	                 nan
          2197.69870	                 nan
          2198.50500	                 nan
          2199.31130	                 nan
          2200.11760	                 nan
          2200.92390	                 nan
          2201.73020	                 nan
          2202.53650	                 nan
          2203.34280	                 nan
          2204.14910	                 nan
          2204.95540	                 nan
          2205.76170	                 nan
          2206.56800	                 nan
          2207.37430	                 nan
          2208.18060	                 nan
          2208.98690	                 nan
          2209.79320	                 nan
          2210.59950	                 nan
          2211.40580	                 nan
          2212.21210	                 nan
          2213.01840	                 nan
          2213.82470	                 nan
          2214.63100	                 nan
          2215.43730	         0.00000e+00
