#sample_61_stacked_spectrum_rest_UV-bands_median_H-alpha_noDC.txt
#median Lum: 1.70401e+42
#Rest-frame wavelength (A) | Luminosity (erg/s/A)
#
          1110.00000	         0.00000e+00
          1110.80630	         9.05265e+58
          1111.61260	         3.06946e+59
          1112.41890	         5.94914e+58
          1113.22520	         1.17525e+59
          1114.03150	        -1.56312e+59
          1114.83780	         2.53958e+59
          1115.64410	         2.81478e+59
          1116.45040	         1.61206e+59
          1117.25670	         7.89898e+58
          1118.06300	         2.85173e+59
          1118.86930	        -5.23765e+58
          1119.67560	         1.48863e+59
          1120.48190	         9.45339e+58
          1121.28820	         1.15387e+58
          1122.09450	         3.41142e+58
          1122.90080	        -8.93437e+57
          1123.70710	         7.10444e+58
          1124.51340	         6.56196e+58
          1125.31970	         6.83702e+57
          1126.12600	        -2.57905e+58
          1126.93230	        -3.69635e+58
          1127.73860	        -3.21007e+58
          1128.54490	        -2.73553e+58
          1129.35120	        -8.25330e+57
          1130.15750	        -1.16238e+58
          1130.96380	         1.81123e+58
          1131.77010	         6.50759e+58
          1132.57640	         3.93206e+58
          1133.38270	         3.88543e+58
          1134.18900	         1.29723e+58
          1134.99530	         2.99283e+58
          1135.80160	         3.42399e+58
          1136.60790	         5.75134e+56
          1137.41420	        -1.85853e+58
          1138.22050	         2.23156e+58
          1139.02680	         1.67374e+58
          1139.83310	        -4.17770e+57
          1140.63940	         2.18529e+57
          1141.44570	        -4.33276e+57
          1142.25200	         5.06110e+57
          1143.05830	         2.75328e+58
          1143.86460	         3.07025e+58
          1144.67090	         4.09764e+58
          1145.47720	         2.76000e+58
          1146.28350	         1.88475e+58
          1147.08980	         1.27409e+58
          1147.89610	         1.23153e+58
          1148.70240	         2.70105e+58
          1149.50870	         2.66775e+58
          1150.31500	         1.69537e+58
          1151.12130	         3.80652e+57
          1151.92760	         2.14962e+57
          1152.73390	        -4.56509e+57
          1153.54020	        -2.35803e+57
          1154.34650	         1.95265e+58
          1155.15280	         1.83723e+58
          1155.95910	         1.10484e+58
          1156.76540	         8.80860e+57
          1157.57170	         3.13992e+57
          1158.37800	        -5.43316e+57
          1159.18430	        -4.14530e+57
          1159.99060	        -8.04534e+56
          1160.79690	         5.01924e+57
          1161.60320	         5.26270e+57
          1162.40950	         1.48645e+58
          1163.21580	         1.65380e+58
          1164.02210	         1.12907e+58
          1164.82840	         7.12679e+57
          1165.63470	         1.93545e+58
          1166.44100	         2.93001e+58
          1167.24730	         1.74633e+58
          1168.05360	         5.90240e+57
          1168.85990	         1.17293e+58
          1169.66620	         1.38141e+58
          1170.47250	         1.04288e+58
          1171.27880	         6.08836e+57
          1172.08510	         1.19094e+58
          1172.89140	         1.22821e+58
          1173.69770	         5.50387e+57
          1174.50400	         8.74776e+57
          1175.31030	         1.95414e+58
          1176.11660	         1.77858e+58
          1176.92290	         1.32969e+58
          1177.72920	         8.85949e+57
          1178.53550	         5.36211e+57
          1179.34180	         7.24009e+57
          1180.14810	         8.14910e+57
          1180.95440	         1.00634e+58
          1181.76070	         5.24016e+57
          1182.56700	         7.85718e+57
          1183.37330	         1.05927e+58
          1184.17960	         1.56716e+58
          1184.98590	         1.51211e+58
          1185.79220	         9.47511e+57
          1186.59850	         1.48919e+58
          1187.40480	         1.13340e+58
          1188.21110	         1.15225e+58
          1189.01740	         2.71323e+57
          1189.82370	         5.08158e+57
          1190.63000	         9.56731e+57
          1191.43630	         1.29698e+58
          1192.24260	         9.76047e+57
          1193.04890	         1.25334e+58
          1193.85520	         9.65948e+57
          1194.66150	         5.20411e+57
          1195.46780	         1.18734e+58
          1196.27410	         1.60426e+58
          1197.08040	         1.29891e+58
          1197.88670	         1.14627e+58
          1198.69300	         1.51152e+58
          1199.49930	         1.55481e+58
          1200.30560	         1.37734e+58
          1201.11190	         1.14060e+58
          1201.91820	         8.20101e+57
          1202.72450	         6.54470e+57
          1203.53080	         1.42745e+58
          1204.33710	         8.70063e+57
          1205.14340	         2.10105e+57
          1205.94970	         3.25556e+57
          1206.75600	         7.41669e+57
          1207.56230	         7.69027e+57
          1208.36860	         6.24919e+57
          1209.17490	         8.30910e+57
          1209.98120	         8.08718e+57
          1210.78750	         1.26697e+58
          1211.59380	         1.32590e+58
          1212.40010	         1.89855e+58
          1213.20640	         1.95913e+58
          1214.01270	         2.17817e+58
          1214.81900	         2.54080e+58
          1215.62530	         4.29031e+58
          1216.43160	         9.03841e+58
          1217.23790	         1.51972e+59
          1218.04420	         1.19001e+59
          1218.85050	         8.65456e+58
          1219.65680	         5.44644e+58
          1220.46310	         3.09773e+58
          1221.26940	         1.98460e+58
          1222.07570	         1.34296e+58
          1222.88200	         1.16202e+58
          1223.68830	         1.06428e+58
          1224.49460	         6.53486e+57
          1225.30090	         5.19266e+57
          1226.10720	         5.29872e+57
          1226.91350	         7.24871e+57
          1227.71980	         9.55008e+57
          1228.52610	         1.08103e+58
          1229.33240	         9.91754e+57
          1230.13870	         8.13140e+57
          1230.94500	         8.12305e+57
          1231.75130	         6.16220e+57
          1232.55760	         6.80622e+57
          1233.36390	         8.79691e+57
          1234.17020	         1.22743e+58
          1234.97650	         1.07717e+58
          1235.78280	         8.86408e+57
          1236.58910	         7.14463e+57
          1237.39540	         6.72570e+57
          1238.20170	         7.71584e+57
          1239.00800	         1.11380e+58
          1239.81430	         1.29696e+58
          1240.62060	         8.72310e+57
          1241.42690	         1.00769e+58
          1242.23320	         9.34717e+57
          1243.03950	         8.83751e+57
          1243.84580	         1.06834e+58
          1244.65210	         8.61677e+57
          1245.45840	         9.20263e+57
          1246.26470	         9.62161e+57
          1247.07100	         8.04706e+57
          1247.87730	         8.32582e+57
          1248.68360	         2.87819e+57
          1249.48990	         7.98247e+57
          1250.29620	         9.05300e+57
          1251.10250	         6.62252e+57
          1251.90880	         5.66785e+57
          1252.71510	         3.81371e+57
          1253.52140	         4.63289e+57
          1254.32770	         8.87879e+57
          1255.13400	         1.26019e+58
          1255.94030	         1.19161e+58
          1256.74660	         1.05454e+58
          1257.55290	         1.03528e+58
          1258.35920	         1.02172e+58
          1259.16550	         4.92406e+57
          1259.97180	         6.00163e+57
          1260.77810	         8.64420e+57
          1261.58440	         1.26634e+58
          1262.39070	         9.51201e+57
          1263.19700	         7.40729e+57
          1264.00330	         9.57182e+57
          1264.80960	         1.15445e+58
          1265.61590	         1.19294e+58
          1266.42220	         1.06639e+58
          1267.22850	         8.87938e+57
          1268.03480	         1.32310e+58
          1268.84110	         1.71126e+58
          1269.64740	         1.49784e+58
          1270.45370	         1.33254e+58
          1271.26000	         1.13204e+58
          1272.06630	         1.19301e+58
          1272.87260	         1.36390e+58
          1273.67890	         1.43628e+58
          1274.48520	         1.34376e+58
          1275.29150	         1.48972e+58
          1276.09780	         1.23120e+58
          1276.90410	         1.42341e+58
          1277.71040	         1.43773e+58
          1278.51670	         1.07926e+58
          1279.32300	         1.30499e+58
          1280.12930	         1.20411e+58
          1280.93560	         1.11178e+58
          1281.74190	         1.19454e+58
          1282.54820	         1.42525e+58
          1283.35450	         1.25529e+58
          1284.16080	         1.09204e+58
          1284.96710	         1.38731e+58
          1285.77340	         1.16563e+58
          1286.57970	         1.26032e+58
          1287.38600	         1.60102e+58
          1288.19230	         1.83049e+58
          1288.99860	         1.65121e+58
          1289.80490	         1.08166e+58
          1290.61120	         1.39102e+58
          1291.41750	         1.66278e+58
          1292.22380	         1.35694e+58
          1293.03010	         1.19582e+58
          1293.83640	         1.25125e+58
          1294.64270	         1.00271e+58
          1295.44900	         7.07406e+57
          1296.25530	         7.54360e+57
          1297.06160	         1.15440e+58
          1297.86790	         1.15933e+58
          1298.67420	         1.02331e+58
          1299.48050	         9.32977e+57
          1300.28680	         1.08610e+58
          1301.09310	         8.60879e+57
          1301.89940	         3.73457e+57
          1302.70570	         6.99670e+57
          1303.51200	         8.62485e+57
          1304.31830	         9.45489e+57
          1305.12460	         1.15743e+58
          1305.93090	         1.26125e+58
          1306.73720	         1.17454e+58
          1307.54350	         1.37797e+58
          1308.34980	         1.62956e+58
          1309.15610	         1.75459e+58
          1309.96240	         1.67388e+58
          1310.76870	         1.34404e+58
          1311.57500	         8.68345e+57
          1312.38130	         8.30759e+57
          1313.18760	         1.15796e+58
          1313.99390	         1.55442e+58
          1314.80020	         1.82020e+58
          1315.60650	         1.51846e+58
          1316.41280	         1.08957e+58
          1317.21910	         8.41028e+57
          1318.02540	         1.08395e+58
          1318.83170	         1.27037e+58
          1319.63800	         1.24976e+58
          1320.44430	         1.08667e+58
          1321.25060	         1.28506e+58
          1322.05690	         1.29171e+58
          1322.86320	         1.20159e+58
          1323.66950	         1.16877e+58
          1324.47580	         9.90186e+57
          1325.28210	         9.83588e+57
          1326.08840	         1.16967e+58
          1326.89470	         1.37497e+58
          1327.70100	         1.16848e+58
          1328.50730	         7.68391e+57
          1329.31360	         8.22572e+57
          1330.11990	         9.37976e+57
          1330.92620	         8.92626e+57
          1331.73250	         1.06601e+58
          1332.53880	         9.29452e+57
          1333.34510	         8.74874e+57
          1334.15140	         9.11278e+57
          1334.95770	         8.73191e+57
          1335.76400	         1.10581e+58
          1336.57030	         1.12199e+58
          1337.37660	         1.08758e+58
          1338.18290	         1.12618e+58
          1338.98920	         1.17655e+58
          1339.79550	         1.19306e+58
          1340.60180	         1.17387e+58
          1341.40810	         1.32072e+58
          1342.21440	         1.24639e+58
          1343.02070	         1.14679e+58
          1343.82700	         1.20421e+58
          1344.63330	         1.20342e+58
          1345.43960	         1.17203e+58
          1346.24590	         1.03246e+58
          1347.05220	         1.26734e+58
          1347.85850	         1.13606e+58
          1348.66480	         1.28361e+58
          1349.47110	         1.31746e+58
          1350.27740	         1.21377e+58
          1351.08370	         1.19523e+58
          1351.89000	         1.28830e+58
          1352.69630	         1.25835e+58
          1353.50260	         1.05260e+58
          1354.30890	         1.02456e+58
          1355.11520	         1.10675e+58
          1355.92150	         9.11801e+57
          1356.72780	         8.72283e+57
          1357.53410	         9.64726e+57
          1358.34040	         1.11797e+58
          1359.14670	         9.71886e+57
          1359.95300	         1.04360e+58
          1360.75930	         1.10407e+58
          1361.56560	         1.07147e+58
          1362.37190	         1.14668e+58
          1363.17820	         1.13099e+58
          1363.98450	         1.20875e+58
          1364.79080	         1.23348e+58
          1365.59710	         1.29837e+58
          1366.40340	         1.17223e+58
          1367.20970	         8.62557e+57
          1368.01600	         9.04539e+57
          1368.82230	         1.01392e+58
          1369.62860	         1.02998e+58
          1370.43490	         9.87679e+57
          1371.24120	         1.02143e+58
          1372.04750	         9.23588e+57
          1372.85380	         1.08556e+58
          1373.66010	         1.25494e+58
          1374.46640	         1.16737e+58
          1375.27270	         1.03252e+58
          1376.07900	         9.54465e+57
          1376.88530	         8.50383e+57
          1377.69160	         8.32653e+57
          1378.49790	         7.95218e+57
          1379.30420	         7.12798e+57
          1380.11050	         8.53047e+57
          1380.91680	         8.72445e+57
          1381.72310	         8.41204e+57
          1382.52940	         8.64318e+57
          1383.33570	         8.67996e+57
          1384.14200	         1.04052e+58
          1384.94830	         1.10275e+58
          1385.75460	         1.06686e+58
          1386.56090	         9.94029e+57
          1387.36720	         9.97771e+57
          1388.17350	         1.23537e+58
          1388.97980	         1.04769e+58
          1389.78610	         8.47146e+57
          1390.59240	         8.21595e+57
          1391.39870	         6.03201e+57
          1392.20500	         7.73086e+57
          1393.01130	         8.89480e+57
          1393.81760	         7.06475e+57
          1394.62390	         6.76228e+57
          1395.43020	         7.47412e+57
          1396.23650	         7.01518e+57
          1397.04280	         6.37618e+57
          1397.84910	         8.26419e+57
          1398.65540	         9.64498e+57
          1399.46170	         1.15769e+58
          1400.26800	         1.06383e+58
          1401.07430	         7.63086e+57
          1401.88060	         7.27024e+57
          1402.68690	         8.78013e+57
          1403.49320	         9.64200e+57
          1404.29950	         9.30115e+57
          1405.10580	         1.00552e+58
          1405.91210	         1.02990e+58
          1406.71840	         1.07343e+58
          1407.52470	         1.03165e+58
          1408.33100	         9.02792e+57
          1409.13730	         1.00004e+58
          1409.94360	         1.22169e+58
          1410.74990	         1.22634e+58
          1411.55620	         1.08478e+58
          1412.36250	         9.66836e+57
          1413.16880	         9.49397e+57
          1413.97510	         7.74624e+57
          1414.78140	         7.70406e+57
          1415.58770	         9.46563e+57
          1416.39400	         9.99303e+57
          1417.20030	         1.11715e+58
          1418.00660	         1.06410e+58
          1418.81290	         1.01970e+58
          1419.61920	         1.01147e+58
          1420.42550	         1.29582e+58
          1421.23180	         1.43299e+58
          1422.03810	         1.24922e+58
          1422.84440	         1.15845e+58
          1423.65070	         1.22644e+58
          1424.45700	         1.06813e+58
          1425.26330	         8.74581e+57
          1426.06960	         8.18662e+57
          1426.87590	         9.93183e+57
          1427.68220	         1.03651e+58
          1428.48850	         1.05485e+58
          1429.29480	         9.69891e+57
          1430.10110	         8.99612e+57
          1430.90740	         8.39818e+57
          1431.71370	         7.41655e+57
          1432.52000	         7.45380e+57
          1433.32630	         7.51369e+57
          1434.13260	         7.90063e+57
          1434.93890	         8.40365e+57
          1435.74520	         9.54370e+57
          1436.55150	         9.19647e+57
          1437.35780	         8.69552e+57
          1438.16410	         9.00650e+57
          1438.97040	         8.85646e+57
          1439.77670	         9.47039e+57
          1440.58300	         1.02502e+58
          1441.38930	         1.04969e+58
          1442.19560	         9.37992e+57
          1443.00190	         9.18343e+57
          1443.80820	         1.09452e+58
          1444.61450	         1.03347e+58
          1445.42080	         9.08398e+57
          1446.22710	         1.06955e+58
          1447.03340	         9.55641e+57
          1447.83970	         1.01594e+58
          1448.64600	         1.10647e+58
          1449.45230	         9.61029e+57
          1450.25860	         9.49510e+57
          1451.06490	         7.88495e+57
          1451.87120	         7.27066e+57
          1452.67750	         7.92988e+57
          1453.48380	         8.65560e+57
          1454.29010	         8.07865e+57
          1455.09640	         8.35469e+57
          1455.90270	         9.14323e+57
          1456.70900	         7.94765e+57
          1457.51530	         8.72101e+57
          1458.32160	         1.12558e+58
          1459.12790	         1.11664e+58
          1459.93420	         1.06069e+58
          1460.74050	         8.69512e+57
          1461.54680	         8.20641e+57
          1462.35310	         8.66254e+57
          1463.15940	         9.70301e+57
          1463.96570	         1.16921e+58
          1464.77200	         1.12032e+58
          1465.57830	         1.03316e+58
          1466.38460	         9.66943e+57
          1467.19090	         9.04756e+57
          1467.99720	         8.97447e+57
          1468.80350	         8.61315e+57
          1469.60980	         9.41611e+57
          1470.41610	         9.94188e+57
          1471.22240	         9.87663e+57
          1472.02870	         1.04248e+58
          1472.83500	         9.89357e+57
          1473.64130	         9.59030e+57
          1474.44760	         9.01707e+57
          1475.25390	         9.00282e+57
          1476.06020	         8.85064e+57
          1476.86650	         7.40613e+57
          1477.67280	         7.82577e+57
          1478.47910	         8.21707e+57
          1479.28540	         7.30760e+57
          1480.09170	         8.74140e+57
          1480.89800	         9.67632e+57
          1481.70430	         8.83020e+57
          1482.51060	         7.46318e+57
          1483.31690	         8.07273e+57
          1484.12320	         8.06028e+57
          1484.92950	         8.25529e+57
          1485.73580	         9.58371e+57
          1486.54210	         9.83090e+57
          1487.34840	         1.04890e+58
          1488.15470	         8.90553e+57
          1488.96100	         7.63869e+57
          1489.76730	         7.89396e+57
          1490.57360	         7.31787e+57
          1491.37990	         6.98843e+57
          1492.18620	         7.83933e+57
          1492.99250	         8.47856e+57
          1493.79880	         8.40697e+57
          1494.60510	         8.13445e+57
          1495.41140	         8.38505e+57
          1496.21770	         9.09851e+57
          1497.02400	         1.14106e+58
          1497.83030	         1.01143e+58
          1498.63660	         7.82344e+57
          1499.44290	         7.42877e+57
          1500.24920	         7.47027e+57
          1501.05550	         7.59440e+57
          1501.86180	         7.73141e+57
          1502.66810	         9.05802e+57
          1503.47440	         9.92615e+57
          1504.28070	         9.29937e+57
          1505.08700	         8.94240e+57
          1505.89330	         8.02887e+57
          1506.69960	         7.95049e+57
          1507.50590	         7.85775e+57
          1508.31220	         7.51552e+57
          1509.11850	         8.78655e+57
          1509.92480	         9.73126e+57
          1510.73110	         8.64966e+57
          1511.53740	         7.44497e+57
          1512.34370	         6.47130e+57
          1513.15000	         8.93319e+57
          1513.95630	         9.65923e+57
          1514.76260	         9.00462e+57
          1515.56890	         7.96047e+57
          1516.37520	         8.50417e+57
          1517.18150	         7.96160e+57
          1517.98780	         7.50519e+57
          1518.79410	         6.85636e+57
          1519.60040	         7.62746e+57
          1520.40670	         1.00708e+58
          1521.21300	         1.04536e+58
          1522.01930	         9.45171e+57
          1522.82560	         9.82617e+57
          1523.63190	         1.02457e+58
          1524.43820	         8.29895e+57
          1525.24450	         5.97938e+57
          1526.05080	         6.39301e+57
          1526.85710	         7.11693e+57
          1527.66340	         6.89043e+57
          1528.46970	         9.23234e+57
          1529.27600	         9.09198e+57
          1530.08230	         8.29782e+57
          1530.88860	         7.89531e+57
          1531.69490	         7.79993e+57
          1532.50120	         8.72728e+57
          1533.30750	         1.07699e+58
          1534.11380	         1.02609e+58
          1534.92010	         9.95529e+57
          1535.72640	         1.01295e+58
          1536.53270	         1.03290e+58
          1537.33900	         9.21478e+57
          1538.14530	         8.52999e+57
          1538.95160	         9.92505e+57
          1539.75790	         9.92135e+57
          1540.56420	         9.14325e+57
          1541.37050	         8.69347e+57
          1542.17680	         6.94227e+57
          1542.98310	         6.82108e+57
          1543.78940	         7.32145e+57
          1544.59570	         7.62394e+57
          1545.40200	         8.16557e+57
          1546.20830	         9.90119e+57
          1547.01460	         1.06332e+58
          1547.82090	         1.14109e+58
          1548.62720	         1.21503e+58
          1549.43350	         1.20329e+58
          1550.23980	         1.12009e+58
          1551.04610	         1.21000e+58
          1551.85240	         1.28786e+58
          1552.65870	         1.23457e+58
          1553.46500	         1.02165e+58
          1554.27130	         9.20652e+57
          1555.07760	         9.96255e+57
          1555.88390	         9.25276e+57
          1556.69020	         9.27981e+57
          1557.49650	         8.54431e+57
          1558.30280	         8.04583e+57
          1559.10910	         7.91967e+57
          1559.91540	         9.34701e+57
          1560.72170	         8.64588e+57
          1561.52800	         8.73482e+57
          1562.33430	         9.29488e+57
          1563.14060	         8.98194e+57
          1563.94690	         8.26325e+57
          1564.75320	         8.42383e+57
          1565.55950	         7.22497e+57
          1566.36580	         7.64781e+57
          1567.17210	         8.92499e+57
          1567.97840	         8.33634e+57
          1568.78470	         7.95329e+57
          1569.59100	         8.43505e+57
          1570.39730	         8.49341e+57
          1571.20360	         6.98059e+57
          1572.00990	         6.81841e+57
          1572.81620	         8.31558e+57
          1573.62250	         1.02262e+58
          1574.42880	         9.34990e+57
          1575.23510	         7.60985e+57
          1576.04140	         8.58768e+57
          1576.84770	         1.00047e+58
          1577.65400	         8.66239e+57
          1578.46030	         8.91295e+57
          1579.26660	         1.00702e+58
          1580.07290	         9.95543e+57
          1580.87920	         8.02808e+57
          1581.68550	         7.30748e+57
          1582.49180	         8.22775e+57
          1583.29810	         8.02509e+57
          1584.10440	         8.91431e+57
          1584.91070	         8.35551e+57
          1585.71700	         9.04226e+57
          1586.52330	         9.34795e+57
          1587.32960	         8.15357e+57
          1588.13590	         8.52788e+57
          1588.94220	         8.98458e+57
          1589.74850	         9.42642e+57
          1590.55480	         9.69747e+57
          1591.36110	         8.74917e+57
          1592.16740	         8.24466e+57
          1592.97370	         8.33782e+57
          1593.78000	         8.61394e+57
          1594.58630	         9.57077e+57
          1595.39260	         9.36102e+57
          1596.19890	         9.29113e+57
          1597.00520	         8.85959e+57
          1597.81150	         7.66326e+57
          1598.61780	         7.03021e+57
          1599.42410	         7.00648e+57
          1600.23040	         6.91319e+57
          1601.03670	         7.77529e+57
          1601.84300	         7.95388e+57
          1602.64930	         8.46832e+57
          1603.45560	         9.48580e+57
          1604.26190	         8.67653e+57
          1605.06820	         7.83630e+57
          1605.87450	         6.81237e+57
          1606.68080	         6.61856e+57
          1607.48710	         6.61185e+57
          1608.29340	         5.90178e+57
          1609.09970	         6.58483e+57
          1609.90600	         7.69976e+57
          1610.71230	         7.30840e+57
          1611.51860	         6.96520e+57
          1612.32490	         6.38435e+57
          1613.13120	         7.30740e+57
          1613.93750	         8.60430e+57
          1614.74380	         8.94646e+57
          1615.55010	         8.73875e+57
          1616.35640	         9.22132e+57
          1617.16270	         9.37701e+57
          1617.96900	         8.99218e+57
          1618.77530	         9.50399e+57
          1619.58160	         9.92421e+57
          1620.38790	         9.65762e+57
          1621.19420	         9.81770e+57
          1622.00050	         7.94102e+57
          1622.80680	         8.31720e+57
          1623.61310	         7.88020e+57
          1624.41940	         7.46619e+57
          1625.22570	         9.17185e+57
          1626.03200	         8.71290e+57
          1626.83830	         7.49464e+57
          1627.64460	         7.46898e+57
          1628.45090	         7.45064e+57
          1629.25720	         8.66861e+57
          1630.06350	         9.14219e+57
          1630.86980	         6.76247e+57
          1631.67610	         7.80919e+57
          1632.48240	         8.51827e+57
          1633.28870	         8.04879e+57
          1634.09500	         8.64807e+57
          1634.90130	         1.13667e+58
          1635.70760	         9.75137e+57
          1636.51390	         7.64694e+57
          1637.32020	         7.20641e+57
          1638.12650	         7.99511e+57
          1638.93280	         9.16021e+57
          1639.73910	         1.09901e+58
          1640.54540	         1.14695e+58
          1641.35170	         8.95955e+57
          1642.15800	         7.79374e+57
          1642.96430	         8.88149e+57
          1643.77060	         8.28744e+57
          1644.57690	         7.74898e+57
          1645.38320	         8.26302e+57
          1646.18950	         8.83422e+57
          1646.99580	         1.00124e+58
          1647.80210	         9.36434e+57
          1648.60840	         7.51456e+57
          1649.41470	         7.72400e+57
          1650.22100	         7.67127e+57
          1651.02730	         7.65829e+57
          1651.83360	         8.01549e+57
          1652.63990	         8.14191e+57
          1653.44620	         9.33886e+57
          1654.25250	         8.73601e+57
          1655.05880	         7.69495e+57
          1655.86510	         8.13064e+57
          1656.67140	         7.89349e+57
          1657.47770	         7.73376e+57
          1658.28400	         7.84836e+57
          1659.09030	         8.79204e+57
          1659.89660	         9.56017e+57
          1660.70290	         1.00395e+58
          1661.50920	         9.23313e+57
          1662.31550	         8.55757e+57
          1663.12180	         8.23570e+57
          1663.92810	         9.85007e+57
          1664.73440	         1.16060e+58
          1665.54070	         1.23092e+58
          1666.34700	         1.22676e+58
          1667.15330	         1.14521e+58
          1667.95960	         9.82776e+57
          1668.76590	         7.54703e+57
          1669.57220	         6.66071e+57
          1670.37850	         7.14009e+57
          1671.18480	         7.55380e+57
          1671.99110	         7.17671e+57
          1672.79740	         6.76748e+57
          1673.60370	         6.34198e+57
          1674.41000	         6.70612e+57
          1675.21630	         7.17678e+57
          1676.02260	         7.06802e+57
          1676.82890	         6.68368e+57
          1677.63520	         6.82006e+57
          1678.44150	         7.01802e+57
          1679.24780	         8.90186e+57
          1680.05410	         7.84274e+57
          1680.86040	         6.09262e+57
          1681.66670	         6.60129e+57
          1682.47300	         7.25627e+57
          1683.27930	         8.11390e+57
          1684.08560	         8.66669e+57
          1684.89190	         7.65261e+57
          1685.69820	         5.90240e+57
          1686.50450	         5.39278e+57
          1687.31080	         6.40778e+57
          1688.11710	         7.86944e+57
          1688.92340	         6.61380e+57
          1689.72970	         5.37497e+57
          1690.53600	         5.69827e+57
          1691.34230	         6.83556e+57
          1692.14860	         8.43743e+57
          1692.95490	         6.90276e+57
          1693.76120	         6.33918e+57
          1694.56750	         7.65350e+57
          1695.37380	         9.01463e+57
          1696.18010	         8.97992e+57
          1696.98640	         8.90204e+57
          1697.79270	         8.30174e+57
          1698.59900	         8.46449e+57
          1699.40530	         8.36935e+57
          1700.21160	         8.22174e+57
          1701.01790	         8.69658e+57
          1701.82420	         8.17893e+57
          1702.63050	         8.47840e+57
          1703.43680	         8.45479e+57
          1704.24310	         9.53652e+57
          1705.04940	         9.15413e+57
          1705.85570	         7.75158e+57
          1706.66200	         9.29203e+57
          1707.46830	         8.95974e+57
          1708.27460	         7.32461e+57
          1709.08090	         6.03904e+57
          1709.88720	         5.33494e+57
          1710.69350	         6.04895e+57
          1711.49980	         7.30728e+57
          1712.30610	         8.19401e+57
          1713.11240	         8.82050e+57
          1713.91870	         7.83744e+57
          1714.72500	         7.40302e+57
          1715.53130	         8.11275e+57
          1716.33760	         7.22106e+57
          1717.14390	         7.48902e+57
          1717.95020	         8.90682e+57
          1718.75650	         1.00482e+58
          1719.56280	         8.38601e+57
          1720.36910	         7.54973e+57
          1721.17540	         7.84640e+57
          1721.98170	         6.79910e+57
          1722.78800	         6.88143e+57
          1723.59430	         8.10723e+57
          1724.40060	         9.04893e+57
          1725.20690	         8.27604e+57
          1726.01320	         8.24037e+57
          1726.81950	         8.64432e+57
          1727.62580	         8.42544e+57
          1728.43210	         7.50360e+57
          1729.23840	         7.48495e+57
          1730.04470	         8.07042e+57
          1730.85100	         8.05135e+57
          1731.65730	         8.68972e+57
          1732.46360	         8.21393e+57
          1733.26990	         7.16821e+57
          1734.07620	         7.34179e+57
          1734.88250	         7.76558e+57
          1735.68880	         7.99418e+57
          1736.49510	         7.81463e+57
          1737.30140	         7.30976e+57
          1738.10770	         6.27241e+57
          1738.91400	         6.97453e+57
          1739.72030	         7.04705e+57
          1740.52660	         5.89697e+57
          1741.33290	         5.41966e+57
          1742.13920	         6.15269e+57
          1742.94550	         6.86706e+57
          1743.75180	         7.73561e+57
          1744.55810	         7.98657e+57
          1745.36440	         7.20543e+57
          1746.17070	         5.50622e+57
          1746.97700	         5.54464e+57
          1747.78330	         5.94498e+57
          1748.58960	         6.79840e+57
          1749.39590	         7.38883e+57
          1750.20220	         7.30731e+57
          1751.00850	         6.55978e+57
          1751.81480	         6.30561e+57
          1752.62110	         7.45596e+57
          1753.42740	         7.88217e+57
          1754.23370	         6.45471e+57
          1755.04000	         5.50184e+57
          1755.84630	         6.70518e+57
          1756.65260	         9.20334e+57
          1757.45890	         8.53969e+57
          1758.26520	         6.78484e+57
          1759.07150	         8.05593e+57
          1759.87780	         7.48490e+57
          1760.68410	         7.29515e+57
          1761.49040	         7.56693e+57
          1762.29670	         7.36671e+57
          1763.10300	         8.05362e+57
          1763.90930	         9.19277e+57
          1764.71560	         9.23101e+57
          1765.52190	         8.41307e+57
          1766.32820	         8.46371e+57
          1767.13450	         7.63714e+57
          1767.94080	         6.61499e+57
          1768.74710	         6.60633e+57
          1769.55340	         6.77967e+57
          1770.35970	         5.99371e+57
          1771.16600	         7.44490e+57
          1771.97230	         8.35162e+57
          1772.77860	         8.53627e+57
          1773.58490	         8.52229e+57
          1774.39120	         6.96016e+57
          1775.19750	         5.56163e+57
          1776.00380	         6.24989e+57
          1776.81010	         6.50431e+57
          1777.61640	         6.71588e+57
          1778.42270	         6.55866e+57
          1779.22900	         6.07550e+57
          1780.03530	         6.87034e+57
          1780.84160	         7.04699e+57
          1781.64790	         8.32252e+57
          1782.45420	         7.95059e+57
          1783.26050	         6.76564e+57
          1784.06680	         6.97678e+57
          1784.87310	         7.00338e+57
          1785.67940	         7.77457e+57
          1786.48570	         7.02137e+57
          1787.29200	         6.16206e+57
          1788.09830	         6.17460e+57
          1788.90460	         6.44018e+57
          1789.71090	         6.27016e+57
          1790.51720	         5.57839e+57
          1791.32350	         7.07622e+57
          1792.12980	         8.38669e+57
          1792.93610	         7.93437e+57
          1793.74240	         7.12142e+57
          1794.54870	         8.23475e+57
          1795.35500	         9.10136e+57
          1796.16130	         7.92216e+57
          1796.96760	         7.31612e+57
          1797.77390	         7.12089e+57
          1798.58020	         6.87131e+57
          1799.38650	         6.34289e+57
          1800.19280	         6.41931e+57
          1800.99910	         7.87574e+57
          1801.80540	         8.27236e+57
          1802.61170	         8.22978e+57
          1803.41800	         8.92041e+57
          1804.22430	         7.69683e+57
          1805.03060	         7.07593e+57
          1805.83690	         7.95771e+57
          1806.64320	         7.98965e+57
          1807.44950	         7.31338e+57
          1808.25580	         8.12073e+57
          1809.06210	         8.65015e+57
          1809.86840	         7.57360e+57
          1810.67470	         7.19136e+57
          1811.48100	         8.66320e+57
          1812.28730	         8.60550e+57
          1813.09360	         8.01239e+57
          1813.89990	         7.46360e+57
          1814.70620	         7.33706e+57
          1815.51250	         9.12735e+57
          1816.31880	         8.60670e+57
          1817.12510	         7.53456e+57
          1817.93140	         7.14857e+57
          1818.73770	         6.92496e+57
          1819.54400	         7.89752e+57
          1820.35030	         8.85882e+57
          1821.15660	         7.54700e+57
          1821.96290	         7.24259e+57
          1822.76920	         7.01413e+57
          1823.57550	         7.06477e+57
          1824.38180	         7.20889e+57
          1825.18810	         7.83742e+57
          1825.99440	         8.41904e+57
          1826.80070	         7.91976e+57
          1827.60700	         6.99108e+57
          1828.41330	         5.87368e+57
          1829.21960	         6.34238e+57
          1830.02590	         7.58167e+57
          1830.83220	         7.48176e+57
          1831.63850	         8.17211e+57
          1832.44480	         7.87351e+57
          1833.25110	         7.31907e+57
          1834.05740	         8.13277e+57
          1834.86370	         7.26180e+57
          1835.67000	         5.88496e+57
          1836.47630	         7.85646e+57
          1837.28260	         1.01292e+58
          1838.08890	         9.30931e+57
          1838.89520	         8.33966e+57
          1839.70150	         7.50464e+57
          1840.50780	         6.84196e+57
          1841.31410	         6.37819e+57
          1842.12040	         7.10952e+57
          1842.92670	         6.65759e+57
          1843.73300	         7.34157e+57
          1844.53930	         6.70674e+57
          1845.34560	         5.76346e+57
          1846.15190	         6.88575e+57
          1846.95820	         7.17526e+57
          1847.76450	         6.23900e+57
          1848.57080	         5.86547e+57
          1849.37710	         6.86479e+57
          1850.18340	         7.07567e+57
          1850.98970	         8.03871e+57
          1851.79600	         8.42730e+57
          1852.60230	         6.46949e+57
          1853.40860	         6.31843e+57
          1854.21490	         6.51676e+57
          1855.02120	         6.03055e+57
          1855.82750	         5.09128e+57
          1856.63380	         6.56543e+57
          1857.44010	         8.77213e+57
          1858.24640	         7.15724e+57
          1859.05270	         6.94241e+57
          1859.85900	         6.34019e+57
          1860.66530	         5.84502e+57
          1861.47160	         6.11178e+57
          1862.27790	         7.21828e+57
          1863.08420	         7.49150e+57
          1863.89050	         7.82020e+57
          1864.69680	         7.37025e+57
          1865.50310	         6.21304e+57
          1866.30940	         5.55499e+57
          1867.11570	         6.16152e+57
          1867.92200	         7.51987e+57
          1868.72830	         8.09478e+57
          1869.53460	         7.30668e+57
          1870.34090	         7.20012e+57
          1871.14720	         7.99352e+57
          1871.95350	         8.08722e+57
          1872.75980	         7.14665e+57
          1873.56610	         7.00094e+57
          1874.37240	         6.09234e+57
          1875.17870	         6.03808e+57
          1875.98500	         6.97535e+57
          1876.79130	         7.71581e+57
          1877.59760	         7.55602e+57
          1878.40390	         6.27529e+57
          1879.21020	         5.92141e+57
          1880.01650	         6.64975e+57
          1880.82280	         7.94446e+57
          1881.62910	         7.92883e+57
          1882.43540	         8.57261e+57
          1883.24170	         8.89235e+57
          1884.04800	         7.81433e+57
          1884.85430	         7.84584e+57
          1885.66060	         7.56452e+57
          1886.46690	         7.02621e+57
          1887.27320	         7.45689e+57
          1888.07950	         6.52129e+57
          1888.88580	         6.44544e+57
          1889.69210	         8.23542e+57
          1890.49840	         8.05457e+57
          1891.30470	         7.78988e+57
          1892.11100	         8.52171e+57
          1892.91730	         8.29268e+57
          1893.72360	         7.67792e+57
          1894.52990	         8.00042e+57
          1895.33620	         9.20535e+57
          1896.14250	         7.30383e+57
          1896.94880	         5.88051e+57
          1897.75510	         4.55798e+57
          1898.56140	         6.00467e+57
          1899.36770	         7.43750e+57
          1900.17400	         5.96383e+57
          1900.98030	         5.98331e+57
          1901.78660	         7.45612e+57
          1902.59290	         7.41014e+57
          1903.39920	         8.43061e+57
          1904.20550	         9.20155e+57
          1905.01180	         9.14473e+57
          1905.81810	         9.52409e+57
          1906.62440	         1.16068e+58
          1907.43070	         1.46724e+58
          1908.23700	         1.56647e+58
          1909.04330	         1.33755e+58
          1909.84960	         1.10334e+58
          1910.65590	         1.08805e+58
          1911.46220	         9.75612e+57
          1912.26850	         7.89052e+57
          1913.07480	         5.52486e+57
          1913.88110	         4.84018e+57
          1914.68740	         5.39798e+57
          1915.49370	         6.21890e+57
          1916.30000	         6.57077e+57
          1917.10630	         6.97596e+57
          1917.91260	         7.08420e+57
          1918.71890	         6.79802e+57
          1919.52520	         6.16341e+57
          1920.33150	         5.60608e+57
          1921.13780	         7.04275e+57
          1921.94410	         8.28633e+57
          1922.75040	         8.93347e+57
          1923.55670	         8.34178e+57
          1924.36300	         8.46147e+57
          1925.16930	         6.84282e+57
          1925.97560	         5.91061e+57
          1926.78190	         5.50233e+57
          1927.58820	         6.03958e+57
          1928.39450	         5.31512e+57
          1929.20080	         4.75856e+57
          1930.00710	         6.97830e+57
          1930.81340	         7.95005e+57
          1931.61970	         6.66480e+57
          1932.42600	         6.64460e+57
          1933.23230	         7.39656e+57
          1934.03860	         7.20540e+57
          1934.84490	         5.49574e+57
          1935.65120	         7.89624e+57
          1936.45750	         9.01343e+57
          1937.26380	         7.44194e+57
          1938.07010	         7.20170e+57
          1938.87640	         6.81870e+57
          1939.68270	         6.90487e+57
          1940.48900	         8.25391e+57
          1941.29530	         8.11728e+57
          1942.10160	         7.31863e+57
          1942.90790	         7.03531e+57
          1943.71420	         7.13786e+57
          1944.52050	         6.77777e+57
          1945.32680	         6.52472e+57
          1946.13310	         6.69099e+57
          1946.93940	         7.67402e+57
          1947.74570	         7.10628e+57
          1948.55200	         7.21257e+57
          1949.35830	         7.00330e+57
          1950.16460	         6.79379e+57
          1950.97090	         6.39880e+57
          1951.77720	         7.13976e+57
          1952.58350	         8.17280e+57
          1953.38980	         6.43831e+57
          1954.19610	         3.81201e+57
          1955.00240	         4.60354e+57
          1955.80870	         5.67026e+57
          1956.61500	         5.63277e+57
          1957.42130	         6.53826e+57
          1958.22760	         6.38037e+57
          1959.03390	         8.16420e+57
          1959.84020	         8.10382e+57
          1960.64650	         6.59719e+57
          1961.45280	         6.13337e+57
          1962.25910	         5.00079e+57
          1963.06540	         5.17996e+57
          1963.87170	         5.79742e+57
          1964.67800	         7.61481e+57
          1965.48430	         5.96470e+57
          1966.29060	         6.51998e+57
          1967.09690	         7.55916e+57
          1967.90320	         7.83698e+57
          1968.70950	         6.83555e+57
          1969.51580	         7.16672e+57
          1970.32210	         7.45579e+57
          1971.12840	         7.71914e+57
          1971.93470	         5.32696e+57
          1972.74100	         5.63772e+57
          1973.54730	         7.37309e+57
          1974.35360	         7.16373e+57
          1975.15990	         6.86746e+57
          1975.96620	         7.73738e+57
          1976.77250	         7.97581e+57
          1977.57880	         7.48772e+57
          1978.38510	         7.19218e+57
          1979.19140	         7.32621e+57
          1979.99770	         8.04952e+57
          1980.80400	         7.35781e+57
          1981.61030	         6.40291e+57
          1982.41660	         5.67861e+57
          1983.22290	         6.61998e+57
          1984.02920	         6.50940e+57
          1984.83550	         6.48446e+57
          1985.64180	         7.20993e+57
          1986.44810	         7.27822e+57
          1987.25440	         6.23023e+57
          1988.06070	         5.36682e+57
          1988.86700	         5.96845e+57
          1989.67330	         6.68655e+57
          1990.47960	         6.15740e+57
          1991.28590	         5.55157e+57
          1992.09220	         6.40267e+57
          1992.89850	         5.54748e+57
          1993.70480	         4.66453e+57
          1994.51110	         4.48513e+57
          1995.31740	         4.67618e+57
          1996.12370	         5.17279e+57
          1996.93000	         6.63014e+57
          1997.73630	         8.12890e+57
          1998.54260	         6.73605e+57
          1999.34890	         5.95402e+57
          2000.15520	         6.34573e+57
          2000.96150	         7.02128e+57
          2001.76780	         5.47196e+57
          2002.57410	         4.29793e+57
          2003.38040	         5.59367e+57
          2004.18670	         6.02909e+57
          2004.99300	         6.34137e+57
          2005.79930	         6.58256e+57
          2006.60560	         5.84422e+57
          2007.41190	         6.02970e+57
          2008.21820	         6.98340e+57
          2009.02450	         6.62865e+57
          2009.83080	         6.61129e+57
          2010.63710	         7.18454e+57
          2011.44340	         6.96677e+57
          2012.24970	         6.88486e+57
          2013.05600	         7.14575e+57
          2013.86230	         6.73418e+57
          2014.66860	         6.13759e+57
          2015.47490	         5.96374e+57
          2016.28120	         5.57757e+57
          2017.08750	         5.50310e+57
          2017.89380	         5.78955e+57
          2018.70010	         6.42939e+57
          2019.50640	         6.49158e+57
          2020.31270	         5.97580e+57
          2021.11900	         7.18413e+57
          2021.92530	         7.06073e+57
          2022.73160	         6.95905e+57
          2023.53790	         6.92915e+57
          2024.34420	         5.62277e+57
          2025.15050	         5.96517e+57
          2025.95680	         6.16617e+57
          2026.76310	         6.11586e+57
          2027.56940	         5.77857e+57
          2028.37570	         6.13364e+57
          2029.18200	         5.24908e+57
          2029.98830	         5.10049e+57
          2030.79460	         6.38143e+57
          2031.60090	         5.13832e+57
          2032.40720	         4.19361e+57
          2033.21350	         4.92713e+57
          2034.01980	         4.82608e+57
          2034.82610	         4.46925e+57
          2035.63240	         5.45965e+57
          2036.43870	         6.25438e+57
          2037.24500	         6.58056e+57
          2038.05130	         6.41815e+57
          2038.85760	         6.62081e+57
          2039.66390	         6.85558e+57
          2040.47020	         5.83658e+57
          2041.27650	         5.65309e+57
          2042.08280	         6.84739e+57
          2042.88910	         7.13739e+57
          2043.69540	         6.41551e+57
          2044.50170	         6.45693e+57
          2045.30800	         7.21472e+57
          2046.11430	         6.48574e+57
          2046.92060	         5.91728e+57
          2047.72690	         6.58580e+57
          2048.53320	         6.20008e+57
          2049.33950	         3.93226e+57
          2050.14580	         6.29605e+57
          2050.95210	         7.41698e+57
          2051.75840	         6.46537e+57
          2052.56470	         5.52615e+57
          2053.37100	         3.75836e+57
          2054.17730	         4.47309e+57
          2054.98360	         5.41177e+57
          2055.78990	         3.44367e+57
          2056.59620	         3.07943e+57
          2057.40250	         5.40561e+57
          2058.20880	         5.82057e+57
          2059.01510	         6.47394e+57
          2059.82140	         6.88770e+57
          2060.62770	         1.09981e+58
          2061.43400	         1.78976e+58
          2062.24030	         1.44475e+58
          2063.04660	         2.11152e+57
          2063.85290	         1.48543e+57
          2064.65920	        -8.19621e+56
          2065.46550	        -7.40537e+57
          2066.27180	        -6.71176e+57
          2067.07810	         4.58272e+57
          2067.88440	         5.81318e+57
          2068.69070	         6.02875e+57
          2069.49700	         6.21673e+57
          2070.30330	         5.53201e+57
          2071.10960	         5.45581e+57
          2071.91590	         7.11910e+57
          2072.72220	         4.28438e+57
          2073.52850	         4.44767e+57
          2074.33480	         4.58980e+57
          2075.14110	         5.07569e+57
          2075.94740	         4.34351e+57
          2076.75370	         4.66608e+57
          2077.56000	         5.18253e+57
          2078.36630	         6.60894e+57
          2079.17260	         5.55303e+57
          2079.97890	         5.91873e+57
          2080.78520	         5.25264e+57
          2081.59150	         3.92405e+57
          2082.39780	         4.86967e+57
          2083.20410	         2.39996e+57
          2084.01040	         1.64978e+57
          2084.81670	         2.94991e+57
          2085.62300	         4.24532e+57
          2086.42930	         3.89820e+57
          2087.23560	         4.25936e+57
          2088.04190	         3.38115e+57
          2088.84820	         1.03240e+57
          2089.65450	         2.14810e+57
          2090.46080	         1.48614e+57
          2091.26710	         1.61413e+57
          2092.07340	         1.93283e+57
          2092.87970	         1.28227e+57
          2093.68600	        -1.96665e+57
          2094.49230	         4.93186e+56
          2095.29860	         4.36625e+57
          2096.10490	         2.95864e+57
          2096.91120	         2.46971e+57
          2097.71750	         3.45920e+57
          2098.52380	         1.22825e+57
          2099.33010	         6.10328e+55
          2100.13640	         1.21750e+57
          2100.94270	         1.62536e+57
          2101.74900	         5.51902e+57
          2102.55530	         3.90573e+57
          2103.36160	         1.66932e+57
          2104.16790	         2.96840e+57
          2104.97420	         1.92517e+57
          2105.78050	         1.78743e+57
          2106.58680	        -7.13217e+56
          2107.39310	        -3.27519e+57
          2108.19940	         7.76763e+56
          2109.00570	        -1.93913e+57
          2109.81200	        -5.14772e+57
          2110.61830	         8.70231e+56
          2111.42460	         1.92019e+57
          2112.23090	         3.40836e+56
          2113.03720	         2.01539e+57
          2113.84350	         1.61983e+57
          2114.64980	         3.62974e+57
          2115.45610	        -1.30123e+57
          2116.26240	        -5.73438e+57
          2117.06870	         3.14669e+56
          2117.87500	         8.98804e+54
          2118.68130	         2.51612e+57
          2119.48760	         5.67559e+57
          2120.29390	         4.72508e+57
          2121.10020	        -3.09209e+57
          2121.90650	        -4.05002e+57
          2122.71280	        -5.06680e+57
          2123.51910	        -3.70461e+57
          2124.32540	        -1.00373e+57
          2125.13170	         3.60275e+56
          2125.93800	         4.45174e+57
          2126.74430	        -1.84821e+57
          2127.55060	        -6.85219e+57
          2128.35690	        -7.13883e+57
          2129.16320	        -4.78954e+57
          2129.96950	        -5.88535e+57
          2130.77580	         5.47858e+57
          2131.58210	         5.48654e+57
          2132.38840	         5.19643e+56
          2133.19470	        -1.29534e+57
          2134.00100	         1.46967e+57
          2134.80730	        -5.64238e+56
          2135.61360	         7.25896e+57
          2136.41990	        -5.63390e+56
          2137.22620	         3.26554e+57
          2138.03250	         2.76238e+57
          2138.83880	        -4.01724e+57
          2139.64510	        -1.43350e+57
          2140.45140	        -6.14709e+57
          2141.25770	        -4.29277e+57
          2142.06400	        -6.69705e+56
          2142.87030	         2.09268e+57
          2143.67660	         7.97605e+57
          2144.48290	         2.09182e+57
          2145.28920	         1.12691e+58
          2146.09550	        -2.36384e+57
          2146.90180	        -1.41958e+58
          2147.70810	        -1.23677e+58
          2148.51440	        -1.28213e+58
          2149.32070	        -2.39148e+57
          2150.12700	        -7.16015e+57
          2150.93330	        -5.62130e+57
          2151.73960	        -1.69957e+57
          2152.54590	        -4.59965e+57
          2153.35220	        -9.65036e+57
          2154.15850	        -1.00765e+57
          2154.96480	         5.55508e+57
          2155.77110	        -3.78039e+57
          2156.57740	        -1.49489e+58
          2157.38370	        -1.04584e+58
          2158.19000	        -8.48457e+57
          2158.99630	         5.70983e+56
          2159.80260	        -1.43217e+57
          2160.60890	        -5.71263e+57
          2161.41520	        -2.77011e+57
          2162.22150	         5.26967e+56
          2163.02780	         1.80514e+57
          2163.83410	        -7.17011e+57
          2164.64040	        -5.73402e+57
          2165.44670	        -1.43082e+58
          2166.25300	        -1.00901e+58
          2167.05930	        -8.66015e+57
          2167.86560	        -6.56450e+57
          2168.67190	        -8.56862e+56
          2169.47820	        -4.12978e+57
          2170.28450	        -8.83962e+57
          2171.09080	         3.26920e+57
          2171.89710	        -4.64260e+57
          2172.70340	         4.08665e+57
          2173.50970	        -4.59758e+57
          2174.31600	        -3.28345e+57
          2175.12230	         1.65046e+57
          2175.92860	        -4.90779e+57
          2176.73490	        -5.15216e+57
          2177.54120	        -2.40755e+57
          2178.34750	        -1.76567e+57
          2179.15380	                 nan
          2179.96010	                 nan
          2180.76640	                 nan
          2181.57270	                 nan
          2182.37900	                 nan
          2183.18530	                 nan
          2183.99160	                 nan
          2184.79790	                 nan
          2185.60420	                 nan
          2186.41050	                 nan
          2187.21680	                 nan
          2188.02310	                 nan
          2188.82940	                 nan
          2189.63570	                 nan
          2190.44200	                 nan
          2191.24830	                 nan
          2192.05460	                 nan
          2192.86090	                 nan
          2193.66720	                 nan
          2194.47350	                 nan
          2195.27980	                 nan
          2196.08610	                 nan
          2196.89240	                 nan
          2197.69870	                 nan
          2198.50500	                 nan
          2199.31130	                 nan
          2200.11760	                 nan
          2200.92390	                 nan
          2201.73020	                 nan
          2202.53650	                 nan
          2203.34280	                 nan
          2204.14910	                 nan
          2204.95540	                 nan
          2205.76170	                 nan
          2206.56800	                 nan
          2207.37430	                 nan
          2208.18060	                 nan
          2208.98690	                 nan
          2209.79320	                 nan
          2210.59950	                 nan
          2211.40580	                 nan
          2212.21210	                 nan
          2213.01840	                 nan
          2213.82470	                 nan
          2214.63100	                 nan
          2215.43730	         0.00000e+00
