#sample_3_stacked_spectrum_rest_UV-bands_median_H-alpha_noDC.txt
#median Lum: 1.71808e+42
#Rest-frame wavelength (A) | Luminosity (erg/s/A)
#
          1110.00000	         0.00000e+00
          1110.80630	         2.99561e+59
          1111.61260	         3.97995e+59
          1112.41890	         4.40211e+59
          1113.22520	         1.63266e+59
          1114.03150	        -1.27953e+59
          1114.83780	         2.23282e+59
          1115.64410	         4.97413e+58
          1116.45040	         4.50304e+58
          1117.25670	        -1.72864e+58
          1118.06300	         2.97898e+59
          1118.86930	         3.27846e+58
          1119.67560	         8.80380e+58
          1120.48190	         8.13085e+58
          1121.28820	        -5.09907e+58
          1122.09450	         6.12605e+57
          1122.90080	         2.15983e+58
          1123.70710	         5.76137e+58
          1124.51340	         4.17543e+58
          1125.31970	         5.41439e+57
          1126.12600	         3.89570e+58
          1126.93230	        -1.98047e+58
          1127.73860	        -5.03203e+56
          1128.54490	         1.55800e+58
          1129.35120	         1.31214e+58
          1130.15750	        -2.32937e+58
          1130.96380	        -3.44426e+58
          1131.77010	         8.34770e+58
          1132.57640	         7.22740e+58
          1133.38270	        -3.05495e+57
          1134.18900	         1.08793e+58
          1134.99530	         3.58474e+58
          1135.80160	         2.51639e+58
          1136.60790	         1.32623e+58
          1137.41420	         5.96815e+57
          1138.22050	         2.74559e+58
          1139.02680	         3.92994e+58
          1139.83310	         1.52477e+58
          1140.63940	         2.32890e+58
          1141.44570	        -3.24197e+58
          1142.25200	        -1.67562e+58
          1143.05830	         1.13027e+58
          1143.86460	         2.08108e+58
          1144.67090	         1.84996e+58
          1145.47720	         1.22415e+58
          1146.28350	         2.79255e+58
          1147.08980	         1.38683e+58
          1147.89610	         9.62612e+57
          1148.70240	         1.95550e+58
          1149.50870	         1.24989e+58
          1150.31500	         1.13538e+58
          1151.12130	         3.42833e+56
          1151.92760	        -2.03370e+57
          1152.73390	         1.57695e+58
          1153.54020	         8.86365e+57
          1154.34650	         1.84970e+58
          1155.15280	         2.40399e+58
          1155.95910	         1.09735e+58
          1156.76540	         1.49053e+58
          1157.57170	         2.76827e+57
          1158.37800	         6.44718e+56
          1159.18430	        -1.93577e+57
          1159.99060	         5.94683e+57
          1160.79690	         8.84874e+57
          1161.60320	         1.81336e+58
          1162.40950	         2.02014e+58
          1163.21580	         1.64939e+58
          1164.02210	         1.66118e+58
          1164.82840	         5.85159e+57
          1165.63470	         1.67273e+58
          1166.44100	         3.18015e+58
          1167.24730	         1.81902e+58
          1168.05360	         8.49176e+57
          1168.85990	         7.60293e+57
          1169.66620	         1.20241e+58
          1170.47250	         2.15494e+58
          1171.27880	         2.20787e+58
          1172.08510	         2.34920e+58
          1172.89140	         1.43368e+58
          1173.69770	         5.47758e+57
          1174.50400	         9.60748e+57
          1175.31030	         1.71578e+58
          1176.11660	         1.88138e+58
          1176.92290	         1.69010e+58
          1177.72920	         7.98528e+57
          1178.53550	         2.57877e+57
          1179.34180	         7.27897e+57
          1180.14810	         1.06458e+58
          1180.95440	         8.51494e+57
          1181.76070	         7.41072e+57
          1182.56700	         1.04600e+58
          1183.37330	         7.87696e+57
          1184.17960	         1.13417e+58
          1184.98590	         1.76432e+58
          1185.79220	         1.28116e+58
          1186.59850	         1.31512e+58
          1187.40480	         9.00906e+57
          1188.21110	         9.09115e+57
          1189.01740	         1.42633e+58
          1189.82370	         1.68072e+58
          1190.63000	         1.75278e+58
          1191.43630	         1.67071e+58
          1192.24260	         1.00871e+58
          1193.04890	         1.59790e+58
          1193.85520	         7.56132e+57
          1194.66150	         1.68643e+57
          1195.46780	         1.36624e+58
          1196.27410	         1.52076e+58
          1197.08040	         7.54847e+57
          1197.88670	         1.20015e+58
          1198.69300	         1.32856e+58
          1199.49930	         1.78146e+58
          1200.30560	         1.42150e+58
          1201.11190	         1.29447e+58
          1201.91820	         1.35781e+58
          1202.72450	         7.15161e+57
          1203.53080	         1.63326e+58
          1204.33710	         1.21357e+58
          1205.14340	         8.51422e+57
          1205.94970	         9.67777e+57
          1206.75600	         6.21611e+57
          1207.56230	         6.89430e+57
          1208.36860	         1.27099e+58
          1209.17490	         1.10364e+58
          1209.98120	         8.37002e+57
          1210.78750	         4.26445e+56
          1211.59380	         1.17056e+58
          1212.40010	         2.00019e+58
          1213.20640	         1.88332e+58
          1214.01270	         2.11439e+58
          1214.81900	         2.93259e+58
          1215.62530	         4.94065e+58
          1216.43160	         9.28456e+58
          1217.23790	         1.53777e+59
          1218.04420	         1.14479e+59
          1218.85050	         8.96037e+58
          1219.65680	         5.63529e+58
          1220.46310	         3.23105e+58
          1221.26940	         2.31630e+58
          1222.07570	         1.43639e+58
          1222.88200	         1.05231e+58
          1223.68830	         1.24723e+58
          1224.49460	         9.12163e+57
          1225.30090	         4.63844e+57
          1226.10720	         3.54947e+57
          1226.91350	         5.46238e+57
          1227.71980	         8.45030e+57
          1228.52610	         1.21949e+58
          1229.33240	         9.28806e+57
          1230.13870	         9.07103e+57
          1230.94500	         1.07142e+58
          1231.75130	         7.48921e+57
          1232.55760	         9.31639e+57
          1233.36390	         9.24287e+57
          1234.17020	         8.62546e+57
          1234.97650	         8.39463e+57
          1235.78280	         6.82926e+57
          1236.58910	         5.94438e+57
          1237.39540	         9.91208e+57
          1238.20170	         1.04732e+58
          1239.00800	         1.05790e+58
          1239.81430	         1.44787e+58
          1240.62060	         1.36131e+58
          1241.42690	         1.21040e+58
          1242.23320	         1.19999e+58
          1243.03950	         8.67234e+57
          1243.84580	         9.23644e+57
          1244.65210	         1.30705e+58
          1245.45840	         1.11025e+58
          1246.26470	         1.03243e+58
          1247.07100	         9.01050e+57
          1247.87730	         7.64882e+57
          1248.68360	         3.52973e+57
          1249.48990	         8.19236e+57
          1250.29620	         1.25322e+58
          1251.10250	         8.57011e+57
          1251.90880	         2.67670e+57
          1252.71510	         3.45195e+57
          1253.52140	         7.71501e+57
          1254.32770	         1.24076e+58
          1255.13400	         1.39640e+58
          1255.94030	         1.02110e+58
          1256.74660	         1.00655e+58
          1257.55290	         1.17997e+58
          1258.35920	         7.94322e+57
          1259.16550	         4.60992e+57
          1259.97180	         5.69798e+57
          1260.77810	         9.31769e+57
          1261.58440	         1.21432e+58
          1262.39070	         8.97621e+57
          1263.19700	         7.29902e+57
          1264.00330	         9.30633e+57
          1264.80960	         1.17740e+58
          1265.61590	         1.36134e+58
          1266.42220	         1.13445e+58
          1267.22850	         1.10583e+58
          1268.03480	         1.40257e+58
          1268.84110	         1.48225e+58
          1269.64740	         1.50780e+58
          1270.45370	         1.65196e+58
          1271.26000	         1.49033e+58
          1272.06630	         1.36446e+58
          1272.87260	         1.34758e+58
          1273.67890	         1.57335e+58
          1274.48520	         1.44115e+58
          1275.29150	         1.18823e+58
          1276.09780	         1.07543e+58
          1276.90410	         1.54904e+58
          1277.71040	         1.49019e+58
          1278.51670	         1.01054e+58
          1279.32300	         1.23659e+58
          1280.12930	         1.19339e+58
          1280.93560	         1.01962e+58
          1281.74190	         1.25853e+58
          1282.54820	         1.32126e+58
          1283.35450	         1.23492e+58
          1284.16080	         1.31427e+58
          1284.96710	         1.32491e+58
          1285.77340	         1.19823e+58
          1286.57970	         1.16866e+58
          1287.38600	         1.37661e+58
          1288.19230	         1.63648e+58
          1288.99860	         1.43384e+58
          1289.80490	         1.15118e+58
          1290.61120	         1.48240e+58
          1291.41750	         1.60183e+58
          1292.22380	         1.46931e+58
          1293.03010	         1.29647e+58
          1293.83640	         1.22530e+58
          1294.64270	         8.19731e+57
          1295.44900	         5.48452e+57
          1296.25530	         6.81680e+57
          1297.06160	         1.08033e+58
          1297.86790	         1.10723e+58
          1298.67420	         8.61342e+57
          1299.48050	         1.01306e+58
          1300.28680	         1.12941e+58
          1301.09310	         7.15803e+57
          1301.89940	         4.96796e+57
          1302.70570	         8.16820e+57
          1303.51200	         9.22411e+57
          1304.31830	         1.08920e+58
          1305.12460	         1.17537e+58
          1305.93090	         1.16838e+58
          1306.73720	         1.34969e+58
          1307.54350	         1.55142e+58
          1308.34980	         1.49730e+58
          1309.15610	         1.48362e+58
          1309.96240	         1.61218e+58
          1310.76870	         1.37510e+58
          1311.57500	         1.12599e+58
          1312.38130	         1.03824e+58
          1313.18760	         1.28242e+58
          1313.99390	         1.56759e+58
          1314.80020	         1.56384e+58
          1315.60650	         1.45838e+58
          1316.41280	         1.36490e+58
          1317.21910	         1.16715e+58
          1318.02540	         1.22289e+58
          1318.83170	         1.31645e+58
          1319.63800	         1.33328e+58
          1320.44430	         1.11265e+58
          1321.25060	         1.20406e+58
          1322.05690	         1.26172e+58
          1322.86320	         1.28171e+58
          1323.66950	         1.27679e+58
          1324.47580	         1.04002e+58
          1325.28210	         1.10196e+58
          1326.08840	         1.26824e+58
          1326.89470	         1.37143e+58
          1327.70100	         1.10605e+58
          1328.50730	         9.54698e+57
          1329.31360	         1.05539e+58
          1330.11990	         9.17227e+57
          1330.92620	         9.60928e+57
          1331.73250	         1.14533e+58
          1332.53880	         1.06770e+58
          1333.34510	         9.47593e+57
          1334.15140	         8.94933e+57
          1334.95770	         9.82676e+57
          1335.76400	         1.11155e+58
          1336.57030	         1.20674e+58
          1337.37660	         1.15465e+58
          1338.18290	         1.13699e+58
          1338.98920	         1.20498e+58
          1339.79550	         1.10976e+58
          1340.60180	         1.21826e+58
          1341.40810	         1.47311e+58
          1342.21440	         1.32041e+58
          1343.02070	         1.29405e+58
          1343.82700	         1.44929e+58
          1344.63330	         1.24631e+58
          1345.43960	         1.26611e+58
          1346.24590	         1.25842e+58
          1347.05220	         1.07032e+58
          1347.85850	         9.34579e+57
          1348.66480	         1.17524e+58
          1349.47110	         1.26069e+58
          1350.27740	         1.13286e+58
          1351.08370	         1.02746e+58
          1351.89000	         1.10958e+58
          1352.69630	         1.16106e+58
          1353.50260	         1.24016e+58
          1354.30890	         1.35722e+58
          1355.11520	         1.32772e+58
          1355.92150	         1.22105e+58
          1356.72780	         1.20655e+58
          1357.53410	         1.05359e+58
          1358.34040	         1.01838e+58
          1359.14670	         1.11104e+58
          1359.95300	         1.22689e+58
          1360.75930	         1.39013e+58
          1361.56560	         1.30849e+58
          1362.37190	         1.15488e+58
          1363.17820	         1.09901e+58
          1363.98450	         1.23564e+58
          1364.79080	         1.32110e+58
          1365.59710	         1.30748e+58
          1366.40340	         1.21946e+58
          1367.20970	         1.01599e+58
          1368.01600	         1.04292e+58
          1368.82230	         9.33174e+57
          1369.62860	         9.50307e+57
          1370.43490	         9.02233e+57
          1371.24120	         8.41744e+57
          1372.04750	         8.01321e+57
          1372.85380	         1.04770e+58
          1373.66010	         1.14942e+58
          1374.46640	         1.21698e+58
          1375.27270	         1.24005e+58
          1376.07900	         8.96616e+57
          1376.88530	         9.46276e+57
          1377.69160	         1.04006e+58
          1378.49790	         8.16607e+57
          1379.30420	         8.03785e+57
          1380.11050	         9.93559e+57
          1380.91680	         9.31352e+57
          1381.72310	         8.11615e+57
          1382.52940	         8.90872e+57
          1383.33570	         8.40189e+57
          1384.14200	         8.39737e+57
          1384.94830	         1.09075e+58
          1385.75460	         1.12892e+58
          1386.56090	         1.17981e+58
          1387.36720	         1.17499e+58
          1388.17350	         1.25322e+58
          1388.97980	         1.12766e+58
          1389.78610	         1.00860e+58
          1390.59240	         8.71355e+57
          1391.39870	         8.66157e+57
          1392.20500	         9.55671e+57
          1393.01130	         9.35900e+57
          1393.81760	         8.85511e+57
          1394.62390	         7.98181e+57
          1395.43020	         8.90124e+57
          1396.23650	         8.05038e+57
          1397.04280	         7.97999e+57
          1397.84910	         8.71866e+57
          1398.65540	         8.70627e+57
          1399.46170	         9.20441e+57
          1400.26800	         8.45667e+57
          1401.07430	         8.37968e+57
          1401.88060	         8.44324e+57
          1402.68690	         1.01815e+58
          1403.49320	         9.78845e+57
          1404.29950	         9.77985e+57
          1405.10580	         1.05446e+58
          1405.91210	         1.10339e+58
          1406.71840	         1.19462e+58
          1407.52470	         1.05899e+58
          1408.33100	         1.04592e+58
          1409.13730	         1.20799e+58
          1409.94360	         1.09563e+58
          1410.74990	         1.10980e+58
          1411.55620	         1.12841e+58
          1412.36250	         9.08446e+57
          1413.16880	         9.16045e+57
          1413.97510	         8.79839e+57
          1414.78140	         7.86812e+57
          1415.58770	         9.11612e+57
          1416.39400	         1.15265e+58
          1417.20030	         1.28089e+58
          1418.00660	         1.17559e+58
          1418.81290	         1.19233e+58
          1419.61920	         1.14275e+58
          1420.42550	         1.39483e+58
          1421.23180	         1.51277e+58
          1422.03810	         1.25175e+58
          1422.84440	         9.53370e+57
          1423.65070	         1.20408e+58
          1424.45700	         1.22582e+58
          1425.26330	         9.60123e+57
          1426.06960	         9.37901e+57
          1426.87590	         1.08222e+58
          1427.68220	         1.11373e+58
          1428.48850	         1.24835e+58
          1429.29480	         1.11639e+58
          1430.10110	         1.02172e+58
          1430.90740	         9.45067e+57
          1431.71370	         9.98001e+57
          1432.52000	         9.70923e+57
          1433.32630	         8.74513e+57
          1434.13260	         7.92510e+57
          1434.93890	         7.59798e+57
          1435.74520	         8.40888e+57
          1436.55150	         9.58704e+57
          1437.35780	         9.49480e+57
          1438.16410	         1.02452e+58
          1438.97040	         1.02993e+58
          1439.77670	         9.74406e+57
          1440.58300	         9.70655e+57
          1441.38930	         1.00801e+58
          1442.19560	         1.03407e+58
          1443.00190	         1.00738e+58
          1443.80820	         1.12364e+58
          1444.61450	         1.04740e+58
          1445.42080	         9.31634e+57
          1446.22710	         1.05987e+58
          1447.03340	         9.67356e+57
          1447.83970	         1.04990e+58
          1448.64600	         1.14169e+58
          1449.45230	         1.01560e+58
          1450.25860	         9.61855e+57
          1451.06490	         9.18496e+57
          1451.87120	         7.63937e+57
          1452.67750	         7.42798e+57
          1453.48380	         8.40218e+57
          1454.29010	         8.01349e+57
          1455.09640	         8.26255e+57
          1455.90270	         9.74269e+57
          1456.70900	         8.89795e+57
          1457.51530	         1.06764e+58
          1458.32160	         1.32720e+58
          1459.12790	         1.19711e+58
          1459.93420	         1.02985e+58
          1460.74050	         8.41157e+57
          1461.54680	         8.51332e+57
          1462.35310	         9.26496e+57
          1463.15940	         9.09673e+57
          1463.96570	         9.66261e+57
          1464.77200	         1.21999e+58
          1465.57830	         1.14300e+58
          1466.38460	         9.32139e+57
          1467.19090	         9.67283e+57
          1467.99720	         1.00681e+58
          1468.80350	         9.63902e+57
          1469.60980	         1.11137e+58
          1470.41610	         1.24118e+58
          1471.22240	         1.00184e+58
          1472.02870	         9.28298e+57
          1472.83500	         9.50235e+57
          1473.64130	         9.61794e+57
          1474.44760	         9.86615e+57
          1475.25390	         9.16124e+57
          1476.06020	         8.20470e+57
          1476.86650	         8.15065e+57
          1477.67280	         8.31681e+57
          1478.47910	         8.19190e+57
          1479.28540	         8.16277e+57
          1480.09170	         8.91659e+57
          1480.89800	         8.92623e+57
          1481.70430	         9.17795e+57
          1482.51060	         8.82907e+57
          1483.31690	         8.30240e+57
          1484.12320	         8.10249e+57
          1484.92950	         7.28127e+57
          1485.73580	         7.60170e+57
          1486.54210	         8.58925e+57
          1487.34840	         9.34501e+57
          1488.15470	         7.81754e+57
          1488.96100	         9.49282e+57
          1489.76730	         1.00066e+58
          1490.57360	         8.30204e+57
          1491.37990	         7.52789e+57
          1492.18620	         8.16764e+57
          1492.99250	         8.33250e+57
          1493.79880	         7.89401e+57
          1494.60510	         8.70737e+57
          1495.41140	         8.28332e+57
          1496.21770	         9.17494e+57
          1497.02400	         1.08081e+58
          1497.83030	         8.82248e+57
          1498.63660	         7.21761e+57
          1499.44290	         7.11660e+57
          1500.24920	         8.16917e+57
          1501.05550	         8.63905e+57
          1501.86180	         9.31730e+57
          1502.66810	         1.03813e+58
          1503.47440	         1.14546e+58
          1504.28070	         9.90300e+57
          1505.08700	         9.71240e+57
          1505.89330	         1.05824e+58
          1506.69960	         9.49972e+57
          1507.50590	         9.08407e+57
          1508.31220	         8.85734e+57
          1509.11850	         8.74347e+57
          1509.92480	         9.39818e+57
          1510.73110	         8.62773e+57
          1511.53740	         7.14372e+57
          1512.34370	         6.59707e+57
          1513.15000	         8.77176e+57
          1513.95630	         1.04493e+58
          1514.76260	         8.89618e+57
          1515.56890	         8.14785e+57
          1516.37520	         8.24959e+57
          1517.18150	         7.67292e+57
          1517.98780	         7.01636e+57
          1518.79410	         7.15114e+57
          1519.60040	         7.93630e+57
          1520.40670	         9.28853e+57
          1521.21300	         1.01456e+58
          1522.01930	         8.91808e+57
          1522.82560	         8.86313e+57
          1523.63190	         1.04947e+58
          1524.43820	         1.00003e+58
          1525.24450	         6.59574e+57
          1526.05080	         6.49457e+57
          1526.85710	         6.45820e+57
          1527.66340	         6.42768e+57
          1528.46970	         7.56890e+57
          1529.27600	         8.22003e+57
          1530.08230	         7.48799e+57
          1530.88860	         7.53569e+57
          1531.69490	         8.73291e+57
          1532.50120	         8.71461e+57
          1533.30750	         1.02258e+58
          1534.11380	         1.04791e+58
          1534.92010	         9.66720e+57
          1535.72640	         9.82436e+57
          1536.53270	         1.03613e+58
          1537.33900	         9.98695e+57
          1538.14530	         9.63568e+57
          1538.95160	         9.82457e+57
          1539.75790	         9.45009e+57
          1540.56420	         7.97551e+57
          1541.37050	         7.77836e+57
          1542.17680	         7.75921e+57
          1542.98310	         7.66414e+57
          1543.78940	         8.06620e+57
          1544.59570	         7.68513e+57
          1545.40200	         7.54821e+57
          1546.20830	         9.79264e+57
          1547.01460	         1.18704e+58
          1547.82090	         1.14369e+58
          1548.62720	         1.27631e+58
          1549.43350	         1.17448e+58
          1550.23980	         1.09083e+58
          1551.04610	         1.14464e+58
          1551.85240	         1.19677e+58
          1552.65870	         1.09485e+58
          1553.46500	         1.08065e+58
          1554.27130	         1.06831e+58
          1555.07760	         1.01240e+58
          1555.88390	         9.34213e+57
          1556.69020	         9.35318e+57
          1557.49650	         9.37778e+57
          1558.30280	         8.45527e+57
          1559.10910	         8.38832e+57
          1559.91540	         9.02180e+57
          1560.72170	         8.20599e+57
          1561.52800	         8.92532e+57
          1562.33430	         9.89834e+57
          1563.14060	         8.66915e+57
          1563.94690	         8.37939e+57
          1564.75320	         8.81965e+57
          1565.55950	         6.92127e+57
          1566.36580	         7.42970e+57
          1567.17210	         8.48426e+57
          1567.97840	         8.15982e+57
          1568.78470	         8.65395e+57
          1569.59100	         1.03188e+58
          1570.39730	         9.81297e+57
          1571.20360	         7.99742e+57
          1572.00990	         7.95152e+57
          1572.81620	         8.60063e+57
          1573.62250	         1.03374e+58
          1574.42880	         1.06925e+58
          1575.23510	         8.32305e+57
          1576.04140	         7.81073e+57
          1576.84770	         9.19136e+57
          1577.65400	         9.57627e+57
          1578.46030	         1.00945e+58
          1579.26660	         1.11174e+58
          1580.07290	         9.84889e+57
          1580.87920	         7.79828e+57
          1581.68550	         8.47373e+57
          1582.49180	         8.96222e+57
          1583.29810	         8.79788e+57
          1584.10440	         9.32443e+57
          1584.91070	         9.62428e+57
          1585.71700	         9.69131e+57
          1586.52330	         9.35410e+57
          1587.32960	         8.61507e+57
          1588.13590	         8.91456e+57
          1588.94220	         8.43858e+57
          1589.74850	         8.48353e+57
          1590.55480	         8.82127e+57
          1591.36110	         7.96346e+57
          1592.16740	         8.56547e+57
          1592.97370	         8.40466e+57
          1593.78000	         9.04296e+57
          1594.58630	         9.15074e+57
          1595.39260	         9.24497e+57
          1596.19890	         1.03653e+58
          1597.00520	         9.83963e+57
          1597.81150	         9.64047e+57
          1598.61780	         8.98419e+57
          1599.42410	         6.97540e+57
          1600.23040	         6.15856e+57
          1601.03670	         8.46205e+57
          1601.84300	         8.08682e+57
          1602.64930	         8.73929e+57
          1603.45560	         8.48353e+57
          1604.26190	         7.40901e+57
          1605.06820	         6.88959e+57
          1605.87450	         7.42468e+57
          1606.68080	         6.88494e+57
          1607.48710	         6.14515e+57
          1608.29340	         5.94653e+57
          1609.09970	         6.53292e+57
          1609.90600	         7.03099e+57
          1610.71230	         6.71028e+57
          1611.51860	         7.12094e+57
          1612.32490	         7.21914e+57
          1613.13120	         7.93734e+57
          1613.93750	         8.74779e+57
          1614.74380	         9.14079e+57
          1615.55010	         9.41192e+57
          1616.35640	         9.28262e+57
          1617.16270	         9.92646e+57
          1617.96900	         1.02241e+58
          1618.77530	         8.43316e+57
          1619.58160	         8.83705e+57
          1620.38790	         8.64894e+57
          1621.19420	         9.49674e+57
          1622.00050	         8.40230e+57
          1622.80680	         8.61313e+57
          1623.61310	         8.92416e+57
          1624.41940	         8.61915e+57
          1625.22570	         9.66598e+57
          1626.03200	         8.84812e+57
          1626.83830	         8.21159e+57
          1627.64460	         7.08676e+57
          1628.45090	         6.14137e+57
          1629.25720	         8.15217e+57
          1630.06350	         8.40543e+57
          1630.86980	         6.87623e+57
          1631.67610	         9.40053e+57
          1632.48240	         9.81961e+57
          1633.28870	         9.06364e+57
          1634.09500	         1.13235e+58
          1634.90130	         1.13814e+58
          1635.70760	         9.37918e+57
          1636.51390	         8.48126e+57
          1637.32020	         6.87067e+57
          1638.12650	         8.52421e+57
          1638.93280	         9.20585e+57
          1639.73910	         1.02319e+58
          1640.54540	         1.02482e+58
          1641.35170	         8.84727e+57
          1642.15800	         9.62036e+57
          1642.96430	         8.89586e+57
          1643.77060	         9.62743e+57
          1644.57690	         9.90165e+57
          1645.38320	         9.26498e+57
          1646.18950	         7.33731e+57
          1646.99580	         8.72401e+57
          1647.80210	         9.34413e+57
          1648.60840	         8.63052e+57
          1649.41470	         8.49517e+57
          1650.22100	         7.45340e+57
          1651.02730	         8.14194e+57
          1651.83360	         8.59073e+57
          1652.63990	         8.68823e+57
          1653.44620	         9.06375e+57
          1654.25250	         7.86752e+57
          1655.05880	         7.41340e+57
          1655.86510	         7.78892e+57
          1656.67140	         7.69039e+57
          1657.47770	         7.42720e+57
          1658.28400	         8.57015e+57
          1659.09030	         9.85949e+57
          1659.89660	         9.98954e+57
          1660.70290	         9.97587e+57
          1661.50920	         9.50061e+57
          1662.31550	         8.62282e+57
          1663.12180	         9.03985e+57
          1663.92810	         1.00074e+58
          1664.73440	         1.04117e+58
          1665.54070	         1.23136e+58
          1666.34700	         1.28213e+58
          1667.15330	         1.10867e+58
          1667.95960	         8.99269e+57
          1668.76590	         7.82266e+57
          1669.57220	         7.02371e+57
          1670.37850	         7.04009e+57
          1671.18480	         8.25282e+57
          1671.99110	         8.10971e+57
          1672.79740	         7.27769e+57
          1673.60370	         7.66696e+57
          1674.41000	         8.15100e+57
          1675.21630	         7.79836e+57
          1676.02260	         7.26551e+57
          1676.82890	         7.52760e+57
          1677.63520	         7.09901e+57
          1678.44150	         7.67576e+57
          1679.24780	         9.23645e+57
          1680.05410	         7.35288e+57
          1680.86040	         5.51910e+57
          1681.66670	         7.04260e+57
          1682.47300	         8.92160e+57
          1683.27930	         7.95726e+57
          1684.08560	         8.60488e+57
          1684.89190	         8.15970e+57
          1685.69820	         6.16138e+57
          1686.50450	         5.84980e+57
          1687.31080	         6.81678e+57
          1688.11710	         8.44320e+57
          1688.92340	         8.18634e+57
          1689.72970	         7.24089e+57
          1690.53600	         7.02306e+57
          1691.34230	         7.17273e+57
          1692.14860	         7.81682e+57
          1692.95490	         7.48201e+57
          1693.76120	         6.08335e+57
          1694.56750	         6.09502e+57
          1695.37380	         8.28639e+57
          1696.18010	         8.67823e+57
          1696.98640	         9.57790e+57
          1697.79270	         9.29991e+57
          1698.59900	         8.44410e+57
          1699.40530	         7.42671e+57
          1700.21160	         7.21864e+57
          1701.01790	         8.13352e+57
          1701.82420	         7.92394e+57
          1702.63050	         8.05128e+57
          1703.43680	         9.07732e+57
          1704.24310	         9.46640e+57
          1705.04940	         9.26016e+57
          1705.85570	         8.54391e+57
          1706.66200	         8.56535e+57
          1707.46830	         7.78933e+57
          1708.27460	         7.81036e+57
          1709.08090	         6.42664e+57
          1709.88720	         5.43924e+57
          1710.69350	         5.44741e+57
          1711.49980	         5.72535e+57
          1712.30610	         7.71516e+57
          1713.11240	         9.59723e+57
          1713.91870	         8.76961e+57
          1714.72500	         8.12237e+57
          1715.53130	         8.00069e+57
          1716.33760	         7.41725e+57
          1717.14390	         7.16332e+57
          1717.95020	         8.53651e+57
          1718.75650	         8.80853e+57
          1719.56280	         9.20735e+57
          1720.36910	         8.39513e+57
          1721.17540	         7.54652e+57
          1721.98170	         6.73815e+57
          1722.78800	         6.88528e+57
          1723.59430	         7.61881e+57
          1724.40060	         9.25278e+57
          1725.20690	         7.96526e+57
          1726.01320	         7.56470e+57
          1726.81950	         7.96484e+57
          1727.62580	         7.21808e+57
          1728.43210	         7.04220e+57
          1729.23840	         7.47236e+57
          1730.04470	         8.46729e+57
          1730.85100	         9.33007e+57
          1731.65730	         8.68506e+57
          1732.46360	         8.25013e+57
          1733.26990	         7.92690e+57
          1734.07620	         8.06021e+57
          1734.88250	         7.84217e+57
          1735.68880	         7.87593e+57
          1736.49510	         8.63517e+57
          1737.30140	         8.32019e+57
          1738.10770	         7.48188e+57
          1738.91400	         7.67328e+57
          1739.72030	         7.99576e+57
          1740.52660	         6.54216e+57
          1741.33290	         6.45232e+57
          1742.13920	         6.72366e+57
          1742.94550	         7.42508e+57
          1743.75180	         7.63477e+57
          1744.55810	         8.05730e+57
          1745.36440	         7.10250e+57
          1746.17070	         5.70538e+57
          1746.97700	         5.79024e+57
          1747.78330	         7.28241e+57
          1748.58960	         7.28691e+57
          1749.39590	         6.82388e+57
          1750.20220	         6.58014e+57
          1751.00850	         6.22688e+57
          1751.81480	         6.83650e+57
          1752.62110	         7.74414e+57
          1753.42740	         8.62899e+57
          1754.23370	         7.79982e+57
          1755.04000	         8.03533e+57
          1755.84630	         7.64361e+57
          1756.65260	         8.38813e+57
          1757.45890	         9.64006e+57
          1758.26520	         8.17600e+57
          1759.07150	         9.19801e+57
          1759.87780	         9.23926e+57
          1760.68410	         8.87070e+57
          1761.49040	         8.39616e+57
          1762.29670	         7.45379e+57
          1763.10300	         8.14299e+57
          1763.90930	         8.09334e+57
          1764.71560	         8.67415e+57
          1765.52190	         8.85481e+57
          1766.32820	         9.29854e+57
          1767.13450	         8.51352e+57
          1767.94080	         7.26945e+57
          1768.74710	         7.12158e+57
          1769.55340	         7.42754e+57
          1770.35970	         6.30915e+57
          1771.16600	         7.80015e+57
          1771.97230	         9.37228e+57
          1772.77860	         8.87273e+57
          1773.58490	         8.27316e+57
          1774.39120	         6.98201e+57
          1775.19750	         5.87028e+57
          1776.00380	         6.88532e+57
          1776.81010	         7.07009e+57
          1777.61640	         6.99715e+57
          1778.42270	         6.92431e+57
          1779.22900	         6.61088e+57
          1780.03530	         7.27751e+57
          1780.84160	         8.43258e+57
          1781.64790	         9.81810e+57
          1782.45420	         7.54784e+57
          1783.26050	         6.59573e+57
          1784.06680	         6.64222e+57
          1784.87310	         7.55509e+57
          1785.67940	         8.39512e+57
          1786.48570	         8.44091e+57
          1787.29200	         6.80537e+57
          1788.09830	         6.78133e+57
          1788.90460	         5.64012e+57
          1789.71090	         4.47770e+57
          1790.51720	         5.12868e+57
          1791.32350	         7.46262e+57
          1792.12980	         8.43090e+57
          1792.93610	         6.88542e+57
          1793.74240	         6.97073e+57
          1794.54870	         8.94964e+57
          1795.35500	         7.24474e+57
          1796.16130	         6.94501e+57
          1796.96760	         6.73488e+57
          1797.77390	         6.71629e+57
          1798.58020	         7.47136e+57
          1799.38650	         7.29103e+57
          1800.19280	         7.29160e+57
          1800.99910	         7.69609e+57
          1801.80540	         7.37752e+57
          1802.61170	         7.69072e+57
          1803.41800	         7.97892e+57
          1804.22430	         7.73488e+57
          1805.03060	         7.50369e+57
          1805.83690	         7.62301e+57
          1806.64320	         8.44848e+57
          1807.44950	         8.42587e+57
          1808.25580	         6.56936e+57
          1809.06210	         6.99240e+57
          1809.86840	         5.80061e+57
          1810.67470	         6.57847e+57
          1811.48100	         9.28866e+57
          1812.28730	         9.12845e+57
          1813.09360	         7.60435e+57
          1813.89990	         7.88804e+57
          1814.70620	         8.53256e+57
          1815.51250	         9.42753e+57
          1816.31880	         8.42813e+57
          1817.12510	         8.53398e+57
          1817.93140	         7.14035e+57
          1818.73770	         6.22954e+57
          1819.54400	         7.77145e+57
          1820.35030	         7.40832e+57
          1821.15660	         6.85885e+57
          1821.96290	         6.53556e+57
          1822.76920	         7.69120e+57
          1823.57550	         8.63293e+57
          1824.38180	         8.26783e+57
          1825.18810	         8.31172e+57
          1825.99440	         9.37869e+57
          1826.80070	         8.60912e+57
          1827.60700	         6.25310e+57
          1828.41330	         5.18839e+57
          1829.21960	         6.17491e+57
          1830.02590	         7.36565e+57
          1830.83220	         8.02247e+57
          1831.63850	         7.77548e+57
          1832.44480	         7.47312e+57
          1833.25110	         8.85104e+57
          1834.05740	         8.59239e+57
          1834.86370	         7.74519e+57
          1835.67000	         6.99360e+57
          1836.47630	         7.50634e+57
          1837.28260	         8.86210e+57
          1838.08890	         8.91617e+57
          1838.89520	         7.96538e+57
          1839.70150	         7.55129e+57
          1840.50780	         8.90836e+57
          1841.31410	         8.10664e+57
          1842.12040	         7.03129e+57
          1842.92670	         7.37468e+57
          1843.73300	         7.90292e+57
          1844.53930	         7.65951e+57
          1845.34560	         6.85229e+57
          1846.15190	         7.29870e+57
          1846.95820	         7.27508e+57
          1847.76450	         6.88074e+57
          1848.57080	         6.36639e+57
          1849.37710	         6.90791e+57
          1850.18340	         8.36569e+57
          1850.98970	         8.00294e+57
          1851.79600	         7.03468e+57
          1852.60230	         6.47415e+57
          1853.40860	         7.07634e+57
          1854.21490	         7.09245e+57
          1855.02120	         6.28633e+57
          1855.82750	         6.03421e+57
          1856.63380	         7.36049e+57
          1857.44010	         8.19921e+57
          1858.24640	         6.92339e+57
          1859.05270	         7.43290e+57
          1859.85900	         5.98032e+57
          1860.66530	         6.62417e+57
          1861.47160	         7.60922e+57
          1862.27790	         7.15769e+57
          1863.08420	         7.68682e+57
          1863.89050	         8.65956e+57
          1864.69680	         8.37534e+57
          1865.50310	         8.26353e+57
          1866.30940	         6.77603e+57
          1867.11570	         6.19237e+57
          1867.92200	         7.69662e+57
          1868.72830	         7.58851e+57
          1869.53460	         7.61687e+57
          1870.34090	         7.76809e+57
          1871.14720	         8.23679e+57
          1871.95350	         7.93763e+57
          1872.75980	         8.01605e+57
          1873.56610	         7.07148e+57
          1874.37240	         5.51692e+57
          1875.17870	         6.46482e+57
          1875.98500	         7.96873e+57
          1876.79130	         7.71601e+57
          1877.59760	         6.96461e+57
          1878.40390	         6.04889e+57
          1879.21020	         6.30377e+57
          1880.01650	         7.35550e+57
          1880.82280	         8.25153e+57
          1881.62910	         9.58495e+57
          1882.43540	         9.95650e+57
          1883.24170	         9.32863e+57
          1884.04800	         7.98576e+57
          1884.85430	         7.69219e+57
          1885.66060	         8.45399e+57
          1886.46690	         8.59290e+57
          1887.27320	         8.63552e+57
          1888.07950	         6.32844e+57
          1888.88580	         6.69272e+57
          1889.69210	         8.70863e+57
          1890.49840	         7.73963e+57
          1891.30470	         7.04465e+57
          1892.11100	         8.71280e+57
          1892.91730	         8.15685e+57
          1893.72360	         8.29880e+57
          1894.52990	         7.45141e+57
          1895.33620	         8.10622e+57
          1896.14250	         6.63701e+57
          1896.94880	         6.41204e+57
          1897.75510	         5.88683e+57
          1898.56140	         7.35086e+57
          1899.36770	         8.79356e+57
          1900.17400	         5.75752e+57
          1900.98030	         5.76375e+57
          1901.78660	         7.32484e+57
          1902.59290	         7.30717e+57
          1903.39920	         8.34695e+57
          1904.20550	         8.97175e+57
          1905.01180	         8.85478e+57
          1905.81810	         9.79322e+57
          1906.62440	         1.19577e+58
          1907.43070	         1.41869e+58
          1908.23700	         1.66045e+58
          1909.04330	         1.37793e+58
          1909.84960	         1.17113e+58
          1910.65590	         1.05010e+58
          1911.46220	         1.01068e+58
          1912.26850	         8.62630e+57
          1913.07480	         6.28953e+57
          1913.88110	         5.85932e+57
          1914.68740	         6.29674e+57
          1915.49370	         5.88025e+57
          1916.30000	         6.24551e+57
          1917.10630	         6.79951e+57
          1917.91260	         6.09957e+57
          1918.71890	         5.78650e+57
          1919.52520	         6.15368e+57
          1920.33150	         5.97095e+57
          1921.13780	         7.40142e+57
          1921.94410	         8.49313e+57
          1922.75040	         7.27953e+57
          1923.55670	         8.06370e+57
          1924.36300	         8.43163e+57
          1925.16930	         6.14139e+57
          1925.97560	         5.67577e+57
          1926.78190	         5.03997e+57
          1927.58820	         6.23270e+57
          1928.39450	         6.94617e+57
          1929.20080	         6.76984e+57
          1930.00710	         7.48622e+57
          1930.81340	         6.84882e+57
          1931.61970	         7.00996e+57
          1932.42600	         8.36245e+57
          1933.23230	         9.35519e+57
          1934.03860	         7.99111e+57
          1934.84490	         6.42110e+57
          1935.65120	         8.95682e+57
          1936.45750	         9.77566e+57
          1937.26380	         6.50338e+57
          1938.07010	         8.17404e+57
          1938.87640	         8.75969e+57
          1939.68270	         7.96651e+57
          1940.48900	         8.29092e+57
          1941.29530	         8.44359e+57
          1942.10160	         8.58415e+57
          1942.90790	         7.15076e+57
          1943.71420	         5.82896e+57
          1944.52050	         5.66546e+57
          1945.32680	         5.90997e+57
          1946.13310	         6.92833e+57
          1946.93940	         7.32490e+57
          1947.74570	         7.59520e+57
          1948.55200	         6.06829e+57
          1949.35830	         6.31523e+57
          1950.16460	         6.23484e+57
          1950.97090	         6.61109e+57
          1951.77720	         7.96147e+57
          1952.58350	         7.94882e+57
          1953.38980	         5.87895e+57
          1954.19610	         4.45167e+57
          1955.00240	         5.22938e+57
          1955.80870	         6.69820e+57
          1956.61500	         6.19003e+57
          1957.42130	         6.85607e+57
          1958.22760	         6.68894e+57
          1959.03390	         7.41481e+57
          1959.84020	         7.85628e+57
          1960.64650	         7.69953e+57
          1961.45280	         7.16027e+57
          1962.25910	         6.52233e+57
          1963.06540	         6.26958e+57
          1963.87170	         6.08508e+57
          1964.67800	         6.37584e+57
          1965.48430	         6.54458e+57
          1966.29060	         6.08236e+57
          1967.09690	         8.21836e+57
          1967.90320	         6.85586e+57
          1968.70950	         6.25562e+57
          1969.51580	         7.13617e+57
          1970.32210	         7.95696e+57
          1971.12840	         7.92870e+57
          1971.93470	         6.25286e+57
          1972.74100	         4.86571e+57
          1973.54730	         7.40131e+57
          1974.35360	         7.99652e+57
          1975.15990	         7.85004e+57
          1975.96620	         7.91836e+57
          1976.77250	         8.55744e+57
          1977.57880	         8.18700e+57
          1978.38510	         6.93509e+57
          1979.19140	         6.75659e+57
          1979.99770	         7.30459e+57
          1980.80400	         7.13686e+57
          1981.61030	         7.32182e+57
          1982.41660	         6.19670e+57
          1983.22290	         6.06813e+57
          1984.02920	         5.98773e+57
          1984.83550	         6.46448e+57
          1985.64180	         7.29882e+57
          1986.44810	         7.37926e+57
          1987.25440	         6.44620e+57
          1988.06070	         6.22043e+57
          1988.86700	         6.44700e+57
          1989.67330	         6.93757e+57
          1990.47960	         6.40390e+57
          1991.28590	         5.82085e+57
          1992.09220	         6.44690e+57
          1992.89850	         6.65705e+57
          1993.70480	         6.66670e+57
          1994.51110	         5.75553e+57
          1995.31740	         3.45963e+57
          1996.12370	         5.15600e+57
          1996.93000	         5.77334e+57
          1997.73630	         6.62203e+57
          1998.54260	         8.73298e+57
          1999.34890	         7.16363e+57
          2000.15520	         6.47887e+57
          2000.96150	         7.02581e+57
          2001.76780	         6.08354e+57
          2002.57410	         5.89851e+57
          2003.38040	         5.68025e+57
          2004.18670	         5.65411e+57
          2004.99300	         5.72748e+57
          2005.79930	         7.35891e+57
          2006.60560	         6.50000e+57
          2007.41190	         5.80228e+57
          2008.21820	         7.22155e+57
          2009.02450	         8.19013e+57
          2009.83080	         6.85182e+57
          2010.63710	         6.96849e+57
          2011.44340	         7.14437e+57
          2012.24970	         8.32857e+57
          2013.05600	         7.71926e+57
          2013.86230	         6.24575e+57
          2014.66860	         5.23212e+57
          2015.47490	         6.63868e+57
          2016.28120	         5.00641e+57
          2017.08750	         5.08411e+57
          2017.89380	         6.39988e+57
          2018.70010	         6.30864e+57
          2019.50640	         7.50197e+57
          2020.31270	         8.38610e+57
          2021.11900	         7.56728e+57
          2021.92530	         7.09676e+57
          2022.73160	         6.86150e+57
          2023.53790	         6.55564e+57
          2024.34420	         6.20124e+57
          2025.15050	         5.39105e+57
          2025.95680	         6.42864e+57
          2026.76310	         7.09461e+57
          2027.56940	         6.71782e+57
          2028.37570	         7.26278e+57
          2029.18200	         7.07773e+57
          2029.98830	         5.87711e+57
          2030.79460	         6.78346e+57
          2031.60090	         7.31505e+57
          2032.40720	         7.41834e+57
          2033.21350	         5.50298e+57
          2034.01980	         4.93881e+57
          2034.82610	         4.10029e+57
          2035.63240	         4.87228e+57
          2036.43870	         5.27262e+57
          2037.24500	         6.94637e+57
          2038.05130	         8.02623e+57
          2038.85760	         6.94622e+57
          2039.66390	         6.27739e+57
          2040.47020	         6.51507e+57
          2041.27650	         6.62596e+57
          2042.08280	         4.76652e+57
          2042.88910	         4.68378e+57
          2043.69540	         5.99145e+57
          2044.50170	         6.54660e+57
          2045.30800	         5.85566e+57
          2046.11430	         3.97098e+57
          2046.92060	         5.44266e+57
          2047.72690	         6.40599e+57
          2048.53320	         5.98288e+57
          2049.33950	         4.74976e+57
          2050.14580	         5.73459e+57
          2050.95210	         6.40529e+57
          2051.75840	         6.60701e+57
          2052.56470	         7.08204e+57
          2053.37100	         5.53929e+57
          2054.17730	         5.71754e+57
          2054.98360	         5.45354e+57
          2055.78990	         4.23279e+57
          2056.59620	         3.49134e+57
          2057.40250	         5.64242e+57
          2058.20880	         7.25560e+57
          2059.01510	         6.18607e+57
          2059.82140	         7.16881e+57
          2060.62770	         9.89245e+57
          2061.43400	         1.62397e+58
          2062.24030	         8.92397e+57
          2063.04660	         4.10098e+57
          2063.85290	         2.07029e+57
          2064.65920	        -2.34926e+57
          2065.46550	        -7.48110e+57
          2066.27180	        -9.04139e+57
          2067.07810	         7.10346e+56
          2067.88440	         6.00729e+57
          2068.69070	         6.89145e+57
          2069.49700	         5.00391e+57
          2070.30330	         4.32078e+57
          2071.10960	         5.23740e+57
          2071.91590	         6.84445e+57
          2072.72220	         4.56860e+57
          2073.52850	         4.34720e+57
          2074.33480	         6.18629e+57
          2075.14110	         5.56291e+57
          2075.94740	         5.59281e+57
          2076.75370	         6.19360e+57
          2077.56000	         4.90972e+57
          2078.36630	         4.32977e+57
          2079.17260	         4.63212e+57
          2079.97890	         5.09548e+57
          2080.78520	         4.65453e+57
          2081.59150	         5.50893e+57
          2082.39780	         3.79011e+57
          2083.20410	         1.84524e+57
          2084.01040	         3.60385e+57
          2084.81670	         3.74167e+57
          2085.62300	         3.77030e+57
          2086.42930	         3.75330e+57
          2087.23560	         2.40745e+57
          2088.04190	         3.70373e+57
          2088.84820	         4.03212e+57
          2089.65450	         2.82524e+57
          2090.46080	         2.80887e+57
          2091.26710	         2.95237e+57
          2092.07340	         2.92648e+57
          2092.87970	         3.25301e+57
          2093.68600	        -1.17991e+57
          2094.49230	         1.96573e+57
          2095.29860	         5.57285e+57
          2096.10490	         6.31151e+56
          2096.91120	         2.73658e+57
          2097.71750	         1.86850e+57
          2098.52380	        -6.51110e+55
          2099.33010	         1.08613e+57
          2100.13640	         2.07669e+57
          2100.94270	         2.19491e+57
          2101.74900	         1.64220e+57
          2102.55530	         9.98923e+56
          2103.36160	         2.36516e+57
          2104.16790	         2.60736e+57
          2104.97420	         1.22098e+57
          2105.78050	         1.88185e+57
          2106.58680	         1.87908e+57
          2107.39310	        -3.29327e+56
          2108.19940	         4.15435e+56
          2109.00570	        -9.43137e+56
          2109.81200	         2.51511e+56
          2110.61830	         3.47716e+57
          2111.42460	         2.09939e+57
          2112.23090	        -3.31417e+56
          2113.03720	         8.92225e+55
          2113.84350	        -8.64183e+55
          2114.64980	         3.56322e+57
          2115.45610	        -3.47669e+57
          2116.26240	        -2.63976e+57
          2117.06870	        -6.90254e+56
          2117.87500	        -1.22762e+57
          2118.68130	         1.99076e+57
          2119.48760	         3.86368e+56
          2120.29390	         1.63517e+56
          2121.10020	        -4.95564e+57
          2121.90650	        -1.91146e+57
          2122.71280	         7.16441e+56
          2123.51910	         3.55028e+57
          2124.32540	         3.62961e+57
          2125.13170	        -1.47282e+57
          2125.93800	        -1.53226e+57
          2126.74430	         1.12295e+57
          2127.55060	        -4.40542e+57
          2128.35690	        -1.62393e+57
          2129.16320	        -2.59040e+57
          2129.96950	        -5.59620e+57
          2130.77580	        -5.60749e+56
          2131.58210	         6.00592e+56
          2132.38840	         1.31976e+57
          2133.19470	         1.38401e+57
          2134.00100	        -1.78538e+57
          2134.80730	        -6.74439e+57
          2135.61360	         2.18032e+57
          2136.41990	        -5.42582e+56
          2137.22620	         6.14611e+57
          2138.03250	        -2.28270e+57
          2138.83880	        -4.20845e+57
          2139.64510	         5.14340e+57
          2140.45140	        -4.52962e+57
          2141.25770	        -1.28517e+58
          2142.06400	        -5.00398e+57
          2142.87030	         4.80650e+57
          2143.67660	         4.44652e+57
          2144.48290	         1.57788e+58
          2145.28920	         1.16184e+58
          2146.09550	        -1.03531e+58
          2146.90180	        -1.00330e+58
          2147.70810	        -2.10374e+57
          2148.51440	        -1.16261e+58
          2149.32070	        -8.09899e+57
          2150.12700	        -6.68427e+57
          2150.93330	         9.80856e+56
          2151.73960	         3.69202e+57
          2152.54590	        -4.09051e+56
          2153.35220	         2.21096e+57
          2154.15850	        -4.79205e+57
          2154.96480	         2.17915e+57
          2155.77110	        -7.87376e+57
          2156.57740	        -9.00498e+57
          2157.38370	        -3.15417e+57
          2158.19000	        -6.80934e+57
          2158.99630	        -7.57211e+57
          2159.80260	        -1.12667e+58
          2160.60890	        -1.42767e+57
          2161.41520	        -3.27606e+57
          2162.22150	        -5.67151e+57
          2163.02780	        -3.39981e+57
          2163.83410	        -3.35974e+57
          2164.64040	        -7.75623e+57
          2165.44670	        -8.28726e+57
          2166.25300	        -1.69320e+58
          2167.05930	         1.05463e+57
          2167.86560	        -4.50896e+56
          2168.67190	        -1.16095e+58
          2169.47820	        -3.76891e+57
          2170.28450	        -3.36207e+56
          2171.09080	         9.87963e+56
          2171.89710	         3.76698e+57
          2172.70340	        -2.00076e+56
          2173.50970	        -6.23381e+57
          2174.31600	        -5.84105e+56
          2175.12230	        -1.16774e+58
          2175.92860	        -6.53103e+57
          2176.73490	        -3.26717e+57
          2177.54120	        -8.69181e+57
          2178.34750	        -4.24832e+57
          2179.15380	                 nan
          2179.96010	                 nan
          2180.76640	                 nan
          2181.57270	                 nan
          2182.37900	                 nan
          2183.18530	                 nan
          2183.99160	                 nan
          2184.79790	                 nan
          2185.60420	                 nan
          2186.41050	                 nan
          2187.21680	                 nan
          2188.02310	                 nan
          2188.82940	                 nan
          2189.63570	                 nan
          2190.44200	                 nan
          2191.24830	                 nan
          2192.05460	                 nan
          2192.86090	                 nan
          2193.66720	                 nan
          2194.47350	                 nan
          2195.27980	                 nan
          2196.08610	                 nan
          2196.89240	                 nan
          2197.69870	                 nan
          2198.50500	                 nan
          2199.31130	                 nan
          2200.11760	                 nan
          2200.92390	                 nan
          2201.73020	                 nan
          2202.53650	                 nan
          2203.34280	                 nan
          2204.14910	                 nan
          2204.95540	                 nan
          2205.76170	                 nan
          2206.56800	                 nan
          2207.37430	                 nan
          2208.18060	                 nan
          2208.98690	                 nan
          2209.79320	                 nan
          2210.59950	                 nan
          2211.40580	                 nan
          2212.21210	                 nan
          2213.01840	                 nan
          2213.82470	                 nan
          2214.63100	                 nan
          2215.43730	         0.00000e+00
