#sample_324_stacked_spectrum_rest_UV-bands_median_H-alpha_noDC.txt
#median Lum: 1.67968e+42
#Rest-frame wavelength (A) | Luminosity (erg/s/A)
#
          1110.00000	         0.00000e+00
          1110.80630	        -8.75722e+58
          1111.61260	        -1.31916e+59
          1112.41890	         1.23213e+59
          1113.22520	         1.03267e+58
          1114.03150	        -7.55918e+58
          1114.83780	         9.69152e+58
          1115.64410	         1.74239e+59
          1116.45040	         1.20962e+59
          1117.25670	         3.64558e+58
          1118.06300	         8.68275e+58
          1118.86930	         3.29601e+58
          1119.67560	         5.82404e+58
          1120.48190	        -1.61867e+58
          1121.28820	        -9.21036e+58
          1122.09450	         8.83849e+58
          1122.90080	         1.15918e+59
          1123.70710	         2.71566e+58
          1124.51340	         7.03857e+58
          1125.31970	         6.26595e+58
          1126.12600	         7.35668e+58
          1126.93230	         1.13094e+58
          1127.73860	        -6.72271e+57
          1128.54490	         1.94347e+58
          1129.35120	         1.95615e+57
          1130.15750	        -2.59534e+58
          1130.96380	         1.09357e+58
          1131.77010	         4.70037e+58
          1132.57640	         9.50138e+57
          1133.38270	        -1.50198e+58
          1134.18900	        -1.38775e+58
          1134.99530	         3.75329e+58
          1135.80160	         4.55185e+58
          1136.60790	         1.08883e+58
          1137.41420	         9.01049e+57
          1138.22050	         4.95020e+58
          1139.02680	         4.90331e+58
          1139.83310	         2.31760e+58
          1140.63940	         1.81066e+58
          1141.44570	        -1.41732e+58
          1142.25200	        -8.29639e+57
          1143.05830	         1.99851e+58
          1143.86460	         3.03838e+58
          1144.67090	         2.46612e+58
          1145.47720	         1.60889e+58
          1146.28350	         1.60204e+57
          1147.08980	         1.13840e+58
          1147.89610	         1.75469e+58
          1148.70240	         1.75644e+58
          1149.50870	         2.21930e+58
          1150.31500	         2.06955e+58
          1151.12130	         1.05859e+58
          1151.92760	        -1.12274e+57
          1152.73390	         5.72624e+57
          1153.54020	         5.72127e+57
          1154.34650	         1.54008e+58
          1155.15280	         1.17909e+58
          1155.95910	        -2.60606e+57
          1156.76540	         8.04886e+57
          1157.57170	         1.39301e+57
          1158.37800	        -1.67808e+57
          1159.18430	         5.57185e+57
          1159.99060	         8.26497e+57
          1160.79690	        -1.86748e+56
          1161.60320	         9.89765e+57
          1162.40950	         1.58086e+58
          1163.21580	         1.72221e+58
          1164.02210	         1.28649e+58
          1164.82840	         5.06918e+57
          1165.63470	         2.33974e+58
          1166.44100	         3.78833e+58
          1167.24730	         2.45845e+58
          1168.05360	         9.70454e+57
          1168.85990	         8.71288e+57
          1169.66620	         5.03323e+57
          1170.47250	         4.55599e+57
          1171.27880	         1.43970e+58
          1172.08510	         1.95854e+58
          1172.89140	         1.45673e+58
          1173.69770	         7.60550e+56
          1174.50400	         7.24581e+57
          1175.31030	         1.92326e+58
          1176.11660	         1.93477e+58
          1176.92290	         1.40074e+58
          1177.72920	         1.28903e+58
          1178.53550	         7.48041e+57
          1179.34180	         1.24745e+57
          1180.14810	         6.19567e+57
          1180.95440	         1.11011e+58
          1181.76070	         9.65913e+57
          1182.56700	         8.32480e+57
          1183.37330	         4.36209e+57
          1184.17960	         9.42557e+57
          1184.98590	         1.25818e+58
          1185.79220	         7.69373e+57
          1186.59850	         1.42682e+58
          1187.40480	         1.28860e+58
          1188.21110	         1.73064e+58
          1189.01740	         9.22182e+57
          1189.82370	         9.04125e+57
          1190.63000	         1.13395e+58
          1191.43630	         1.63108e+58
          1192.24260	         8.04702e+57
          1193.04890	         1.03920e+58
          1193.85520	         1.14015e+58
          1194.66150	         9.38753e+57
          1195.46780	         1.51712e+58
          1196.27410	         1.71878e+58
          1197.08040	         1.19202e+58
          1197.88670	         1.63069e+58
          1198.69300	         1.60356e+58
          1199.49930	         1.35561e+58
          1200.30560	         1.03213e+58
          1201.11190	         1.26545e+58
          1201.91820	         1.08203e+58
          1202.72450	         5.16880e+57
          1203.53080	         1.04028e+58
          1204.33710	         5.51395e+57
          1205.14340	         7.49614e+57
          1205.94970	         6.91830e+57
          1206.75600	         7.85638e+57
          1207.56230	         7.56775e+57
          1208.36860	         1.21046e+58
          1209.17490	         7.61012e+57
          1209.98120	         6.64451e+57
          1210.78750	         7.77625e+57
          1211.59380	         1.24746e+58
          1212.40010	         1.98163e+58
          1213.20640	         2.33583e+58
          1214.01270	         2.04041e+58
          1214.81900	         2.37627e+58
          1215.62530	         4.33855e+58
          1216.43160	         9.04984e+58
          1217.23790	         1.46920e+59
          1218.04420	         1.10319e+59
          1218.85050	         8.46819e+58
          1219.65680	         5.54005e+58
          1220.46310	         3.17147e+58
          1221.26940	         1.98565e+58
          1222.07570	         1.52648e+58
          1222.88200	         1.19836e+58
          1223.68830	         8.16219e+57
          1224.49460	         5.90378e+57
          1225.30090	         3.08254e+57
          1226.10720	         2.97499e+57
          1226.91350	         6.28682e+57
          1227.71980	         6.98511e+57
          1228.52610	         8.54179e+57
          1229.33240	         5.41363e+57
          1230.13870	         8.36546e+57
          1230.94500	         7.45370e+57
          1231.75130	         8.53416e+57
          1232.55760	         1.03394e+58
          1233.36390	         7.08778e+57
          1234.17020	         8.42810e+57
          1234.97650	         7.33992e+57
          1235.78280	         7.03332e+57
          1236.58910	         8.01775e+57
          1237.39540	         9.21654e+57
          1238.20170	         9.17823e+57
          1239.00800	         1.02055e+58
          1239.81430	         1.37374e+58
          1240.62060	         1.22070e+58
          1241.42690	         1.10856e+58
          1242.23320	         1.19175e+58
          1243.03950	         9.05422e+57
          1243.84580	         6.88457e+57
          1244.65210	         9.46460e+57
          1245.45840	         1.05707e+58
          1246.26470	         1.19580e+58
          1247.07100	         1.42964e+58
          1247.87730	         9.29499e+57
          1248.68360	         6.32475e+57
          1249.48990	         8.38045e+57
          1250.29620	         6.94066e+57
          1251.10250	         4.34789e+57
          1251.90880	         4.72903e+57
          1252.71510	         6.01470e+57
          1253.52140	         6.52642e+57
          1254.32770	         8.65982e+57
          1255.13400	         1.25688e+58
          1255.94030	         1.09683e+58
          1256.74660	         9.83884e+57
          1257.55290	         9.76997e+57
          1258.35920	         7.28820e+57
          1259.16550	         3.57617e+57
          1259.97180	         5.76775e+57
          1260.77810	         7.83929e+57
          1261.58440	         1.12413e+58
          1262.39070	         1.01971e+58
          1263.19700	         1.05373e+58
          1264.00330	         1.00706e+58
          1264.80960	         9.14409e+57
          1265.61590	         1.13617e+58
          1266.42220	         1.45172e+58
          1267.22850	         1.06902e+58
          1268.03480	         1.29991e+58
          1268.84110	         1.47269e+58
          1269.64740	         1.14011e+58
          1270.45370	         1.26329e+58
          1271.26000	         1.04867e+58
          1272.06630	         1.07760e+58
          1272.87260	         1.24246e+58
          1273.67890	         1.10232e+58
          1274.48520	         1.00509e+58
          1275.29150	         1.09613e+58
          1276.09780	         9.32067e+57
          1276.90410	         1.20440e+58
          1277.71040	         1.16424e+58
          1278.51670	         1.02502e+58
          1279.32300	         1.27045e+58
          1280.12930	         1.18438e+58
          1280.93560	         1.04768e+58
          1281.74190	         1.19534e+58
          1282.54820	         1.21146e+58
          1283.35450	         1.07811e+58
          1284.16080	         1.16090e+58
          1284.96710	         1.50514e+58
          1285.77340	         1.23590e+58
          1286.57970	         1.08928e+58
          1287.38600	         1.55696e+58
          1288.19230	         1.90398e+58
          1288.99860	         1.71038e+58
          1289.80490	         1.18452e+58
          1290.61120	         1.29972e+58
          1291.41750	         1.43776e+58
          1292.22380	         1.21354e+58
          1293.03010	         1.09582e+58
          1293.83640	         1.24707e+58
          1294.64270	         8.94726e+57
          1295.44900	         4.33110e+57
          1296.25530	         6.24022e+57
          1297.06160	         9.15381e+57
          1297.86790	         8.84703e+57
          1298.67420	         8.49377e+57
          1299.48050	         1.06121e+58
          1300.28680	         1.07644e+58
          1301.09310	         6.82748e+57
          1301.89940	         2.79774e+57
          1302.70570	         5.65149e+57
          1303.51200	         8.85286e+57
          1304.31830	         1.05429e+58
          1305.12460	         1.19746e+58
          1305.93090	         1.21307e+58
          1306.73720	         1.19107e+58
          1307.54350	         1.24453e+58
          1308.34980	         1.36636e+58
          1309.15610	         1.44571e+58
          1309.96240	         1.35281e+58
          1310.76870	         1.33872e+58
          1311.57500	         1.24012e+58
          1312.38130	         1.40773e+58
          1313.18760	         1.43483e+58
          1313.99390	         1.32634e+58
          1314.80020	         1.27750e+58
          1315.60650	         1.18051e+58
          1316.41280	         1.18663e+58
          1317.21910	         1.22306e+58
          1318.02540	         1.19230e+58
          1318.83170	         1.23559e+58
          1319.63800	         1.21619e+58
          1320.44430	         1.11052e+58
          1321.25060	         1.07295e+58
          1322.05690	         1.19451e+58
          1322.86320	         1.19422e+58
          1323.66950	         1.03602e+58
          1324.47580	         9.32939e+57
          1325.28210	         1.00670e+58
          1326.08840	         1.04302e+58
          1326.89470	         9.51305e+57
          1327.70100	         9.56502e+57
          1328.50730	         7.38300e+57
          1329.31360	         7.50142e+57
          1330.11990	         9.51793e+57
          1330.92620	         1.13650e+58
          1331.73250	         1.31012e+58
          1332.53880	         1.07204e+58
          1333.34510	         1.03177e+58
          1334.15140	         9.87814e+57
          1334.95770	         8.27906e+57
          1335.76400	         9.39790e+57
          1336.57030	         1.09723e+58
          1337.37660	         1.04579e+58
          1338.18290	         1.15282e+58
          1338.98920	         1.25237e+58
          1339.79550	         1.15426e+58
          1340.60180	         1.16560e+58
          1341.40810	         1.34315e+58
          1342.21440	         1.24407e+58
          1343.02070	         1.17725e+58
          1343.82700	         1.14559e+58
          1344.63330	         1.09411e+58
          1345.43960	         1.20866e+58
          1346.24590	         1.17449e+58
          1347.05220	         1.22717e+58
          1347.85850	         9.78419e+57
          1348.66480	         1.18609e+58
          1349.47110	         1.18556e+58
          1350.27740	         9.18529e+57
          1351.08370	         1.02889e+58
          1351.89000	         1.08914e+58
          1352.69630	         1.06033e+58
          1353.50260	         1.06837e+58
          1354.30890	         1.12860e+58
          1355.11520	         1.18614e+58
          1355.92150	         1.14141e+58
          1356.72780	         1.12849e+58
          1357.53410	         1.02190e+58
          1358.34040	         9.44864e+57
          1359.14670	         9.08872e+57
          1359.95300	         1.05245e+58
          1360.75930	         1.05791e+58
          1361.56560	         1.13529e+58
          1362.37190	         1.23545e+58
          1363.17820	         1.08365e+58
          1363.98450	         1.15895e+58
          1364.79080	         1.22052e+58
          1365.59710	         1.19893e+58
          1366.40340	         1.02068e+58
          1367.20970	         8.92241e+57
          1368.01600	         9.93350e+57
          1368.82230	         8.89739e+57
          1369.62860	         9.64025e+57
          1370.43490	         9.21403e+57
          1371.24120	         9.06357e+57
          1372.04750	         8.35609e+57
          1372.85380	         8.98989e+57
          1373.66010	         8.81363e+57
          1374.46640	         9.37257e+57
          1375.27270	         1.00720e+58
          1376.07900	         8.25674e+57
          1376.88530	         8.47124e+57
          1377.69160	         9.21284e+57
          1378.49790	         7.59525e+57
          1379.30420	         6.81644e+57
          1380.11050	         8.43484e+57
          1380.91680	         7.61315e+57
          1381.72310	         6.96454e+57
          1382.52940	         8.26979e+57
          1383.33570	         9.97954e+57
          1384.14200	         1.05585e+58
          1384.94830	         1.18584e+58
          1385.75460	         1.10396e+58
          1386.56090	         1.03568e+58
          1387.36720	         1.07414e+58
          1388.17350	         1.21187e+58
          1388.97980	         1.02792e+58
          1389.78610	         8.65566e+57
          1390.59240	         9.15640e+57
          1391.39870	         7.62386e+57
          1392.20500	         7.86407e+57
          1393.01130	         7.73636e+57
          1393.81760	         7.72317e+57
          1394.62390	         8.32159e+57
          1395.43020	         7.01378e+57
          1396.23650	         5.79812e+57
          1397.04280	         6.69295e+57
          1397.84910	         8.82589e+57
          1398.65540	         8.68903e+57
          1399.46170	         8.68245e+57
          1400.26800	         8.02114e+57
          1401.07430	         7.84817e+57
          1401.88060	         8.25106e+57
          1402.68690	         8.94625e+57
          1403.49320	         9.30745e+57
          1404.29950	         9.58384e+57
          1405.10580	         1.07250e+58
          1405.91210	         1.02938e+58
          1406.71840	         1.03482e+58
          1407.52470	         1.01438e+58
          1408.33100	         9.08829e+57
          1409.13730	         1.02133e+58
          1409.94360	         1.05921e+58
          1410.74990	         1.02950e+58
          1411.55620	         9.59793e+57
          1412.36250	         9.37410e+57
          1413.16880	         9.23445e+57
          1413.97510	         7.57140e+57
          1414.78140	         8.28650e+57
          1415.58770	         1.03548e+58
          1416.39400	         1.12858e+58
          1417.20030	         1.13021e+58
          1418.00660	         1.06433e+58
          1418.81290	         1.07646e+58
          1419.61920	         1.09310e+58
          1420.42550	         1.22433e+58
          1421.23180	         1.19996e+58
          1422.03810	         1.03923e+58
          1422.84440	         1.11775e+58
          1423.65070	         1.36527e+58
          1424.45700	         1.25637e+58
          1425.26330	         9.71882e+57
          1426.06960	         8.74565e+57
          1426.87590	         9.48576e+57
          1427.68220	         1.03163e+58
          1428.48850	         1.03268e+58
          1429.29480	         1.06479e+58
          1430.10110	         9.26999e+57
          1430.90740	         8.15685e+57
          1431.71370	         8.41272e+57
          1432.52000	         8.42537e+57
          1433.32630	         8.20606e+57
          1434.13260	         8.24511e+57
          1434.93890	         7.15973e+57
          1435.74520	         8.70641e+57
          1436.55150	         9.97640e+57
          1437.35780	         8.88343e+57
          1438.16410	         8.93415e+57
          1438.97040	         8.66123e+57
          1439.77670	         8.53649e+57
          1440.58300	         8.56353e+57
          1441.38930	         9.69297e+57
          1442.19560	         9.53197e+57
          1443.00190	         9.14655e+57
          1443.80820	         1.09396e+58
          1444.61450	         1.00085e+58
          1445.42080	         8.95577e+57
          1446.22710	         9.69348e+57
          1447.03340	         9.82844e+57
          1447.83970	         1.07837e+58
          1448.64600	         1.02022e+58
          1449.45230	         9.54045e+57
          1450.25860	         9.64963e+57
          1451.06490	         8.22204e+57
          1451.87120	         7.89270e+57
          1452.67750	         8.22386e+57
          1453.48380	         8.98743e+57
          1454.29010	         8.03513e+57
          1455.09640	         6.79657e+57
          1455.90270	         8.32368e+57
          1456.70900	         9.13118e+57
          1457.51530	         9.96582e+57
          1458.32160	         1.21611e+58
          1459.12790	         1.15136e+58
          1459.93420	         9.72054e+57
          1460.74050	         8.52593e+57
          1461.54680	         8.67858e+57
          1462.35310	         8.82092e+57
          1463.15940	         9.75361e+57
          1463.96570	         1.01495e+58
          1464.77200	         1.04554e+58
          1465.57830	         9.90775e+57
          1466.38460	         9.22250e+57
          1467.19090	         8.96062e+57
          1467.99720	         8.87822e+57
          1468.80350	         9.49587e+57
          1469.60980	         9.83086e+57
          1470.41610	         1.00938e+58
          1471.22240	         9.12587e+57
          1472.02870	         8.27300e+57
          1472.83500	         1.02298e+58
          1473.64130	         9.98808e+57
          1474.44760	         9.32815e+57
          1475.25390	         8.02545e+57
          1476.06020	         7.79157e+57
          1476.86650	         8.56564e+57
          1477.67280	         7.49949e+57
          1478.47910	         7.09634e+57
          1479.28540	         6.86947e+57
          1480.09170	         7.46188e+57
          1480.89800	         8.30535e+57
          1481.70430	         7.89427e+57
          1482.51060	         7.26943e+57
          1483.31690	         7.62870e+57
          1484.12320	         9.01162e+57
          1484.92950	         8.23109e+57
          1485.73580	         8.17370e+57
          1486.54210	         7.92545e+57
          1487.34840	         8.11564e+57
          1488.15470	         8.80310e+57
          1488.96100	         8.73437e+57
          1489.76730	         8.66631e+57
          1490.57360	         8.73948e+57
          1491.37990	         7.98181e+57
          1492.18620	         7.31627e+57
          1492.99250	         7.41261e+57
          1493.79880	         8.09430e+57
          1494.60510	         7.85025e+57
          1495.41140	         6.91577e+57
          1496.21770	         8.68904e+57
          1497.02400	         1.07902e+58
          1497.83030	         9.11853e+57
          1498.63660	         6.58370e+57
          1499.44290	         6.41566e+57
          1500.24920	         7.00512e+57
          1501.05550	         6.85826e+57
          1501.86180	         7.86219e+57
          1502.66810	         9.99870e+57
          1503.47440	         9.34828e+57
          1504.28070	         8.26522e+57
          1505.08700	         8.56963e+57
          1505.89330	         9.15286e+57
          1506.69960	         8.02059e+57
          1507.50590	         8.53833e+57
          1508.31220	         8.65114e+57
          1509.11850	         7.93988e+57
          1509.92480	         8.56734e+57
          1510.73110	         8.11353e+57
          1511.53740	         7.29187e+57
          1512.34370	         6.42912e+57
          1513.15000	         8.71810e+57
          1513.95630	         1.00835e+58
          1514.76260	         9.29916e+57
          1515.56890	         8.60039e+57
          1516.37520	         8.93544e+57
          1517.18150	         9.07779e+57
          1517.98780	         7.10933e+57
          1518.79410	         6.78152e+57
          1519.60040	         7.68686e+57
          1520.40670	         9.59180e+57
          1521.21300	         9.10741e+57
          1522.01930	         9.13457e+57
          1522.82560	         9.90414e+57
          1523.63190	         9.62608e+57
          1524.43820	         7.98334e+57
          1525.24450	         6.96188e+57
          1526.05080	         6.36470e+57
          1526.85710	         6.64516e+57
          1527.66340	         7.50160e+57
          1528.46970	         8.10462e+57
          1529.27600	         7.65014e+57
          1530.08230	         7.03984e+57
          1530.88860	         7.56836e+57
          1531.69490	         8.62573e+57
          1532.50120	         8.54605e+57
          1533.30750	         8.73470e+57
          1534.11380	         8.75808e+57
          1534.92010	         8.81923e+57
          1535.72640	         9.02971e+57
          1536.53270	         8.82798e+57
          1537.33900	         8.59388e+57
          1538.14530	         8.69373e+57
          1538.95160	         9.10981e+57
          1539.75790	         8.83869e+57
          1540.56420	         8.12509e+57
          1541.37050	         7.81891e+57
          1542.17680	         7.71087e+57
          1542.98310	         7.07024e+57
          1543.78940	         7.11723e+57
          1544.59570	         6.74589e+57
          1545.40200	         7.37297e+57
          1546.20830	         9.29246e+57
          1547.01460	         1.04756e+58
          1547.82090	         1.10408e+58
          1548.62720	         1.20674e+58
          1549.43350	         1.24281e+58
          1550.23980	         1.14435e+58
          1551.04610	         1.13557e+58
          1551.85240	         1.30982e+58
          1552.65870	         1.23336e+58
          1553.46500	         1.07102e+58
          1554.27130	         9.92587e+57
          1555.07760	         9.16561e+57
          1555.88390	         8.49592e+57
          1556.69020	         9.50674e+57
          1557.49650	         1.01803e+58
          1558.30280	         9.08829e+57
          1559.10910	         9.51497e+57
          1559.91540	         9.44773e+57
          1560.72170	         8.64410e+57
          1561.52800	         8.57704e+57
          1562.33430	         9.16891e+57
          1563.14060	         8.24901e+57
          1563.94690	         8.27770e+57
          1564.75320	         8.77809e+57
          1565.55950	         6.98011e+57
          1566.36580	         7.52905e+57
          1567.17210	         9.61834e+57
          1567.97840	         9.39584e+57
          1568.78470	         8.75623e+57
          1569.59100	         9.08618e+57
          1570.39730	         8.81096e+57
          1571.20360	         7.55236e+57
          1572.00990	         7.24552e+57
          1572.81620	         8.09635e+57
          1573.62250	         9.21796e+57
          1574.42880	         9.60689e+57
          1575.23510	         8.41963e+57
          1576.04140	         8.81113e+57
          1576.84770	         8.86242e+57
          1577.65400	         8.98063e+57
          1578.46030	         9.89157e+57
          1579.26660	         1.06035e+58
          1580.07290	         9.51004e+57
          1580.87920	         7.09616e+57
          1581.68550	         6.69813e+57
          1582.49180	         7.79515e+57
          1583.29810	         6.83872e+57
          1584.10440	         7.34450e+57
          1584.91070	         8.31061e+57
          1585.71700	         8.28172e+57
          1586.52330	         8.29755e+57
          1587.32960	         8.59106e+57
          1588.13590	         8.93926e+57
          1588.94220	         7.90965e+57
          1589.74850	         8.46583e+57
          1590.55480	         9.44369e+57
          1591.36110	         8.42689e+57
          1592.16740	         7.87446e+57
          1592.97370	         7.54672e+57
          1593.78000	         8.06479e+57
          1594.58630	         9.48385e+57
          1595.39260	         8.85267e+57
          1596.19890	         8.87523e+57
          1597.00520	         9.61285e+57
          1597.81150	         8.51671e+57
          1598.61780	         7.13664e+57
          1599.42410	         7.28194e+57
          1600.23040	         7.17778e+57
          1601.03670	         7.74426e+57
          1601.84300	         7.62920e+57
          1602.64930	         7.92853e+57
          1603.45560	         8.33483e+57
          1604.26190	         7.60505e+57
          1605.06820	         7.12776e+57
          1605.87450	         7.15086e+57
          1606.68080	         6.74959e+57
          1607.48710	         7.05096e+57
          1608.29340	         6.19406e+57
          1609.09970	         6.29098e+57
          1609.90600	         7.43148e+57
          1610.71230	         7.80509e+57
          1611.51860	         6.85866e+57
          1612.32490	         6.71951e+57
          1613.13120	         7.98120e+57
          1613.93750	         7.60259e+57
          1614.74380	         7.90362e+57
          1615.55010	         8.66732e+57
          1616.35640	         9.17007e+57
          1617.16270	         9.55474e+57
          1617.96900	         9.59597e+57
          1618.77530	         9.22964e+57
          1619.58160	         9.54141e+57
          1620.38790	         8.87511e+57
          1621.19420	         8.60360e+57
          1622.00050	         7.30732e+57
          1622.80680	         8.07031e+57
          1623.61310	         7.61274e+57
          1624.41940	         7.51483e+57
          1625.22570	         8.29466e+57
          1626.03200	         9.18526e+57
          1626.83830	         7.88627e+57
          1627.64460	         7.34779e+57
          1628.45090	         7.83093e+57
          1629.25720	         9.93560e+57
          1630.06350	         9.31302e+57
          1630.86980	         6.10182e+57
          1631.67610	         6.98956e+57
          1632.48240	         7.93233e+57
          1633.28870	         7.85594e+57
          1634.09500	         8.11303e+57
          1634.90130	         9.58473e+57
          1635.70760	         8.29135e+57
          1636.51390	         7.48917e+57
          1637.32020	         7.50339e+57
          1638.12650	         9.33551e+57
          1638.93280	         9.18295e+57
          1639.73910	         9.44085e+57
          1640.54540	         9.74574e+57
          1641.35170	         7.73181e+57
          1642.15800	         8.17254e+57
          1642.96430	         8.48756e+57
          1643.77060	         8.95529e+57
          1644.57690	         8.55176e+57
          1645.38320	         9.08875e+57
          1646.18950	         8.44901e+57
          1646.99580	         8.93841e+57
          1647.80210	         8.07814e+57
          1648.60840	         7.83791e+57
          1649.41470	         8.43699e+57
          1650.22100	         7.40307e+57
          1651.02730	         6.63484e+57
          1651.83360	         6.95574e+57
          1652.63990	         7.66271e+57
          1653.44620	         8.74694e+57
          1654.25250	         7.12811e+57
          1655.05880	         6.71473e+57
          1655.86510	         7.60568e+57
          1656.67140	         8.03934e+57
          1657.47770	         8.06737e+57
          1658.28400	         8.72842e+57
          1659.09030	         9.25408e+57
          1659.89660	         8.52338e+57
          1660.70290	         8.58760e+57
          1661.50920	         8.45340e+57
          1662.31550	         7.75747e+57
          1663.12180	         8.07391e+57
          1663.92810	         9.86206e+57
          1664.73440	         1.03796e+58
          1665.54070	         1.05508e+58
          1666.34700	         1.12910e+58
          1667.15330	         1.07328e+58
          1667.95960	         8.97194e+57
          1668.76590	         7.18084e+57
          1669.57220	         7.06516e+57
          1670.37850	         8.15592e+57
          1671.18480	         7.58402e+57
          1671.99110	         7.60655e+57
          1672.79740	         7.34676e+57
          1673.60370	         6.23861e+57
          1674.41000	         5.88605e+57
          1675.21630	         6.94322e+57
          1676.02260	         7.02034e+57
          1676.82890	         7.00240e+57
          1677.63520	         7.08194e+57
          1678.44150	         7.06615e+57
          1679.24780	         8.98605e+57
          1680.05410	         8.49224e+57
          1680.86040	         6.72083e+57
          1681.66670	         6.96321e+57
          1682.47300	         7.58275e+57
          1683.27930	         7.75180e+57
          1684.08560	         8.04135e+57
          1684.89190	         8.16315e+57
          1685.69820	         6.03363e+57
          1686.50450	         4.98115e+57
          1687.31080	         5.87827e+57
          1688.11710	         7.38888e+57
          1688.92340	         6.90779e+57
          1689.72970	         6.30079e+57
          1690.53600	         6.25265e+57
          1691.34230	         6.48778e+57
          1692.14860	         7.61168e+57
          1692.95490	         7.95794e+57
          1693.76120	         7.60612e+57
          1694.56750	         7.42731e+57
          1695.37380	         9.59415e+57
          1696.18010	         9.10160e+57
          1696.98640	         8.47523e+57
          1697.79270	         8.63820e+57
          1698.59900	         7.61807e+57
          1699.40530	         6.98312e+57
          1700.21160	         6.87829e+57
          1701.01790	         8.40143e+57
          1701.82420	         7.86230e+57
          1702.63050	         8.70094e+57
          1703.43680	         7.94223e+57
          1704.24310	         8.17060e+57
          1705.04940	         8.51567e+57
          1705.85570	         7.77643e+57
          1706.66200	         7.77690e+57
          1707.46830	         6.63775e+57
          1708.27460	         6.09615e+57
          1709.08090	         6.33470e+57
          1709.88720	         5.49452e+57
          1710.69350	         5.91813e+57
          1711.49980	         6.84832e+57
          1712.30610	         7.61616e+57
          1713.11240	         8.99653e+57
          1713.91870	         7.66320e+57
          1714.72500	         6.88950e+57
          1715.53130	         8.80053e+57
          1716.33760	         8.47882e+57
          1717.14390	         7.42609e+57
          1717.95020	         8.39954e+57
          1718.75650	         7.66373e+57
          1719.56280	         7.81369e+57
          1720.36910	         7.53590e+57
          1721.17540	         7.25646e+57
          1721.98170	         6.16865e+57
          1722.78800	         6.36228e+57
          1723.59430	         6.64236e+57
          1724.40060	         7.51628e+57
          1725.20690	         7.81061e+57
          1726.01320	         7.95393e+57
          1726.81950	         7.75130e+57
          1727.62580	         6.58364e+57
          1728.43210	         6.16863e+57
          1729.23840	         7.50480e+57
          1730.04470	         8.34608e+57
          1730.85100	         7.72952e+57
          1731.65730	         8.03306e+57
          1732.46360	         8.59652e+57
          1733.26990	         7.11857e+57
          1734.07620	         6.75561e+57
          1734.88250	         7.65437e+57
          1735.68880	         8.72512e+57
          1736.49510	         8.25765e+57
          1737.30140	         7.38296e+57
          1738.10770	         6.28694e+57
          1738.91400	         7.19199e+57
          1739.72030	         6.67593e+57
          1740.52660	         5.72735e+57
          1741.33290	         5.81560e+57
          1742.13920	         5.58740e+57
          1742.94550	         6.25173e+57
          1743.75180	         7.81866e+57
          1744.55810	         7.69272e+57
          1745.36440	         6.43276e+57
          1746.17070	         5.13006e+57
          1746.97700	         4.73048e+57
          1747.78330	         5.91430e+57
          1748.58960	         6.55591e+57
          1749.39590	         7.16965e+57
          1750.20220	         7.62877e+57
          1751.00850	         6.86037e+57
          1751.81480	         6.61546e+57
          1752.62110	         7.24356e+57
          1753.42740	         7.42262e+57
          1754.23370	         6.63518e+57
          1755.04000	         6.63650e+57
          1755.84630	         7.42677e+57
          1756.65260	         6.93212e+57
          1757.45890	         7.50616e+57
          1758.26520	         7.35131e+57
          1759.07150	         8.72309e+57
          1759.87780	         9.26686e+57
          1760.68410	         8.82528e+57
          1761.49040	         8.00593e+57
          1762.29670	         6.25475e+57
          1763.10300	         6.65645e+57
          1763.90930	         7.57797e+57
          1764.71560	         7.68853e+57
          1765.52190	         7.38578e+57
          1766.32820	         7.84629e+57
          1767.13450	         7.68512e+57
          1767.94080	         6.38502e+57
          1768.74710	         7.17469e+57
          1769.55340	         7.56136e+57
          1770.35970	         6.14702e+57
          1771.16600	         6.38162e+57
          1771.97230	         7.06808e+57
          1772.77860	         7.48646e+57
          1773.58490	         6.70420e+57
          1774.39120	         5.90061e+57
          1775.19750	         5.96356e+57
          1776.00380	         6.07448e+57
          1776.81010	         6.65274e+57
          1777.61640	         6.35117e+57
          1778.42270	         7.03274e+57
          1779.22900	         6.49853e+57
          1780.03530	         5.80625e+57
          1780.84160	         6.49798e+57
          1781.64790	         7.91973e+57
          1782.45420	         7.16376e+57
          1783.26050	         6.58815e+57
          1784.06680	         6.96182e+57
          1784.87310	         7.32576e+57
          1785.67940	         7.18856e+57
          1786.48570	         6.50517e+57
          1787.29200	         6.03683e+57
          1788.09830	         5.67902e+57
          1788.90460	         6.07341e+57
          1789.71090	         5.44441e+57
          1790.51720	         4.40228e+57
          1791.32350	         6.63046e+57
          1792.12980	         9.47978e+57
          1792.93610	         8.49021e+57
          1793.74240	         7.11361e+57
          1794.54870	         7.98097e+57
          1795.35500	         8.56476e+57
          1796.16130	         7.87404e+57
          1796.96760	         7.09969e+57
          1797.77390	         7.29039e+57
          1798.58020	         6.67174e+57
          1799.38650	         5.54592e+57
          1800.19280	         5.86802e+57
          1800.99910	         7.53783e+57
          1801.80540	         8.14413e+57
          1802.61170	         8.81574e+57
          1803.41800	         8.22586e+57
          1804.22430	         7.19513e+57
          1805.03060	         6.31986e+57
          1805.83690	         7.12868e+57
          1806.64320	         7.89013e+57
          1807.44950	         7.41709e+57
          1808.25580	         7.24856e+57
          1809.06210	         8.17937e+57
          1809.86840	         7.01470e+57
          1810.67470	         7.73234e+57
          1811.48100	         8.19080e+57
          1812.28730	         8.79790e+57
          1813.09360	         6.00938e+57
          1813.89990	         5.85871e+57
          1814.70620	         7.34983e+57
          1815.51250	         7.81867e+57
          1816.31880	         7.04381e+57
          1817.12510	         7.17804e+57
          1817.93140	         6.65125e+57
          1818.73770	         7.19718e+57
          1819.54400	         8.81622e+57
          1820.35030	         8.10342e+57
          1821.15660	         5.95440e+57
          1821.96290	         6.23364e+57
          1822.76920	         7.59152e+57
          1823.57550	         7.84796e+57
          1824.38180	         6.93887e+57
          1825.18810	         7.11443e+57
          1825.99440	         7.79221e+57
          1826.80070	         7.42495e+57
          1827.60700	         6.65616e+57
          1828.41330	         5.65151e+57
          1829.21960	         5.76347e+57
          1830.02590	         6.16436e+57
          1830.83220	         7.66838e+57
          1831.63850	         7.41921e+57
          1832.44480	         6.10344e+57
          1833.25110	         7.36487e+57
          1834.05740	         7.97389e+57
          1834.86370	         6.94158e+57
          1835.67000	         6.06649e+57
          1836.47630	         7.80889e+57
          1837.28260	         9.35451e+57
          1838.08890	         9.00945e+57
          1838.89520	         8.45934e+57
          1839.70150	         7.47191e+57
          1840.50780	         6.88075e+57
          1841.31410	         6.25073e+57
          1842.12040	         6.54722e+57
          1842.92670	         7.70931e+57
          1843.73300	         7.00187e+57
          1844.53930	         6.61334e+57
          1845.34560	         6.13090e+57
          1846.15190	         7.05350e+57
          1846.95820	         6.90378e+57
          1847.76450	         6.42921e+57
          1848.57080	         5.85387e+57
          1849.37710	         5.68714e+57
          1850.18340	         6.93274e+57
          1850.98970	         7.64824e+57
          1851.79600	         7.81579e+57
          1852.60230	         8.04496e+57
          1853.40860	         6.85643e+57
          1854.21490	         6.42400e+57
          1855.02120	         6.25940e+57
          1855.82750	         5.11748e+57
          1856.63380	         6.23561e+57
          1857.44010	         7.56225e+57
          1858.24640	         7.35302e+57
          1859.05270	         5.62987e+57
          1859.85900	         4.32778e+57
          1860.66530	         4.87966e+57
          1861.47160	         5.76292e+57
          1862.27790	         6.31958e+57
          1863.08420	         7.20606e+57
          1863.89050	         7.71924e+57
          1864.69680	         7.77177e+57
          1865.50310	         6.93593e+57
          1866.30940	         6.09598e+57
          1867.11570	         5.13783e+57
          1867.92200	         6.41860e+57
          1868.72830	         6.96582e+57
          1869.53460	         7.11016e+57
          1870.34090	         6.76376e+57
          1871.14720	         7.51956e+57
          1871.95350	         8.37789e+57
          1872.75980	         8.16626e+57
          1873.56610	         6.92002e+57
          1874.37240	         5.59158e+57
          1875.17870	         5.47084e+57
          1875.98500	         6.95400e+57
          1876.79130	         7.16038e+57
          1877.59760	         6.80619e+57
          1878.40390	         6.55819e+57
          1879.21020	         6.23495e+57
          1880.01650	         6.74172e+57
          1880.82280	         8.44485e+57
          1881.62910	         9.41361e+57
          1882.43540	         9.97961e+57
          1883.24170	         8.28771e+57
          1884.04800	         7.73102e+57
          1884.85430	         8.12535e+57
          1885.66060	         7.95620e+57
          1886.46690	         7.83374e+57
          1887.27320	         7.77063e+57
          1888.07950	         6.56725e+57
          1888.88580	         7.83573e+57
          1889.69210	         8.66624e+57
          1890.49840	         8.89942e+57
          1891.30470	         7.15018e+57
          1892.11100	         7.90930e+57
          1892.91730	         7.30785e+57
          1893.72360	         7.25259e+57
          1894.52990	         7.37982e+57
          1895.33620	         6.87762e+57
          1896.14250	         7.08743e+57
          1896.94880	         5.93909e+57
          1897.75510	         3.17504e+57
          1898.56140	         5.46544e+57
          1899.36770	         7.43385e+57
          1900.17400	         6.18403e+57
          1900.98030	         5.47130e+57
          1901.78660	         5.67869e+57
          1902.59290	         6.74357e+57
          1903.39920	         7.81518e+57
          1904.20550	         8.75341e+57
          1905.01180	         1.03263e+58
          1905.81810	         1.04609e+58
          1906.62440	         1.23376e+58
          1907.43070	         1.49288e+58
          1908.23700	         1.64464e+58
          1909.04330	         1.34672e+58
          1909.84960	         1.03554e+58
          1910.65590	         9.02256e+57
          1911.46220	         9.03872e+57
          1912.26850	         7.72133e+57
          1913.07480	         6.05313e+57
          1913.88110	         5.08363e+57
          1914.68740	         4.98445e+57
          1915.49370	         5.13587e+57
          1916.30000	         5.83612e+57
          1917.10630	         6.80709e+57
          1917.91260	         6.50454e+57
          1918.71890	         5.76004e+57
          1919.52520	         5.13429e+57
          1920.33150	         5.59585e+57
          1921.13780	         7.35389e+57
          1921.94410	         8.07648e+57
          1922.75040	         7.31654e+57
          1923.55670	         7.53452e+57
          1924.36300	         7.22648e+57
          1925.16930	         5.62431e+57
          1925.97560	         5.44475e+57
          1926.78190	         4.78956e+57
          1927.58820	         6.23046e+57
          1928.39450	         6.52143e+57
          1929.20080	         5.61622e+57
          1930.00710	         6.91767e+57
          1930.81340	         6.88348e+57
          1931.61970	         5.17332e+57
          1932.42600	         5.33172e+57
          1933.23230	         5.98874e+57
          1934.03860	         6.69973e+57
          1934.84490	         5.77222e+57
          1935.65120	         8.03830e+57
          1936.45750	         9.00404e+57
          1937.26380	         6.62353e+57
          1938.07010	         7.99677e+57
          1938.87640	         8.91821e+57
          1939.68270	         8.39208e+57
          1940.48900	         7.80980e+57
          1941.29530	         7.67969e+57
          1942.10160	         7.21694e+57
          1942.90790	         7.10011e+57
          1943.71420	         6.32403e+57
          1944.52050	         5.52098e+57
          1945.32680	         5.75027e+57
          1946.13310	         6.85721e+57
          1946.93940	         8.45244e+57
          1947.74570	         6.91713e+57
          1948.55200	         6.23536e+57
          1949.35830	         5.46700e+57
          1950.16460	         5.32797e+57
          1950.97090	         5.81525e+57
          1951.77720	         7.23974e+57
          1952.58350	         7.48784e+57
          1953.38980	         5.87336e+57
          1954.19610	         4.29292e+57
          1955.00240	         4.68300e+57
          1955.80870	         5.57050e+57
          1956.61500	         6.11911e+57
          1957.42130	         6.58387e+57
          1958.22760	         6.85528e+57
          1959.03390	         6.48258e+57
          1959.84020	         6.32775e+57
          1960.64650	         5.59655e+57
          1961.45280	         5.91894e+57
          1962.25910	         5.97043e+57
          1963.06540	         5.79615e+57
          1963.87170	         5.62210e+57
          1964.67800	         7.06389e+57
          1965.48430	         6.99360e+57
          1966.29060	         6.13814e+57
          1967.09690	         6.86367e+57
          1967.90320	         6.78155e+57
          1968.70950	         7.05287e+57
          1969.51580	         5.75548e+57
          1970.32210	         7.12060e+57
          1971.12840	         7.68693e+57
          1971.93470	         3.81693e+57
          1972.74100	         4.97067e+57
          1973.54730	         6.84516e+57
          1974.35360	         6.34546e+57
          1975.15990	         8.06009e+57
          1975.96620	         7.18823e+57
          1976.77250	         7.98444e+57
          1977.57880	         7.38149e+57
          1978.38510	         6.26514e+57
          1979.19140	         7.00841e+57
          1979.99770	         7.91462e+57
          1980.80400	         7.79470e+57
          1981.61030	         6.91990e+57
          1982.41660	         6.43313e+57
          1983.22290	         5.35733e+57
          1984.02920	         5.41798e+57
          1984.83550	         5.56599e+57
          1985.64180	         5.65608e+57
          1986.44810	         6.05835e+57
          1987.25440	         6.41588e+57
          1988.06070	         5.45706e+57
          1988.86700	         5.05062e+57
          1989.67330	         6.82307e+57
          1990.47960	         6.46428e+57
          1991.28590	         5.59907e+57
          1992.09220	         5.86330e+57
          1992.89850	         5.88447e+57
          1993.70480	         5.75850e+57
          1994.51110	         5.53793e+57
          1995.31740	         5.28182e+57
          1996.12370	         4.85526e+57
          1996.93000	         6.61657e+57
          1997.73630	         7.90043e+57
          1998.54260	         6.07687e+57
          1999.34890	         6.07451e+57
          2000.15520	         6.63035e+57
          2000.96150	         6.94096e+57
          2001.76780	         5.57838e+57
          2002.57410	         4.00131e+57
          2003.38040	         5.30159e+57
          2004.18670	         5.53643e+57
          2004.99300	         5.89524e+57
          2005.79930	         7.46471e+57
          2006.60560	         6.57933e+57
          2007.41190	         6.76523e+57
          2008.21820	         7.03561e+57
          2009.02450	         6.28273e+57
          2009.83080	         6.74700e+57
          2010.63710	         5.97648e+57
          2011.44340	         5.60194e+57
          2012.24970	         7.25037e+57
          2013.05600	         7.62825e+57
          2013.86230	         6.14249e+57
          2014.66860	         6.39432e+57
          2015.47490	         7.40363e+57
          2016.28120	         6.86252e+57
          2017.08750	         5.39010e+57
          2017.89380	         5.50284e+57
          2018.70010	         4.77426e+57
          2019.50640	         4.69546e+57
          2020.31270	         5.81181e+57
          2021.11900	         7.18456e+57
          2021.92530	         7.13021e+57
          2022.73160	         7.03949e+57
          2023.53790	         6.42163e+57
          2024.34420	         5.93518e+57
          2025.15050	         5.47091e+57
          2025.95680	         6.23146e+57
          2026.76310	         6.34768e+57
          2027.56940	         6.35871e+57
          2028.37570	         7.24217e+57
          2029.18200	         6.24952e+57
          2029.98830	         5.89327e+57
          2030.79460	         5.07184e+57
          2031.60090	         6.12391e+57
          2032.40720	         6.24294e+57
          2033.21350	         4.98056e+57
          2034.01980	         5.65263e+57
          2034.82610	         5.06592e+57
          2035.63240	         5.09373e+57
          2036.43870	         5.54432e+57
          2037.24500	         6.60540e+57
          2038.05130	         6.71354e+57
          2038.85760	         6.17088e+57
          2039.66390	         6.32762e+57
          2040.47020	         5.18225e+57
          2041.27650	         4.93143e+57
          2042.08280	         6.75133e+57
          2042.88910	         6.14450e+57
          2043.69540	         6.21848e+57
          2044.50170	         5.19481e+57
          2045.30800	         5.49621e+57
          2046.11430	         4.58597e+57
          2046.92060	         5.55448e+57
          2047.72690	         6.81987e+57
          2048.53320	         6.14594e+57
          2049.33950	         5.25452e+57
          2050.14580	         6.68527e+57
          2050.95210	         7.42645e+57
          2051.75840	         7.46755e+57
          2052.56470	         5.61025e+57
          2053.37100	         3.81495e+57
          2054.17730	         3.89892e+57
          2054.98360	         5.61896e+57
          2055.78990	         5.51571e+57
          2056.59620	         4.46577e+57
          2057.40250	         5.51432e+57
          2058.20880	         7.22353e+57
          2059.01510	         6.88191e+57
          2059.82140	         6.05349e+57
          2060.62770	         1.04764e+58
          2061.43400	         1.51334e+58
          2062.24030	         1.54938e+58
          2063.04660	         3.66340e+57
          2063.85290	         3.15816e+57
          2064.65920	        -1.89013e+57
          2065.46550	        -7.75912e+57
          2066.27180	        -7.80408e+57
          2067.07810	         4.51543e+57
          2067.88440	         4.64120e+57
          2068.69070	         7.46544e+57
          2069.49700	         6.10779e+57
          2070.30330	         4.04647e+57
          2071.10960	         4.74499e+57
          2071.91590	         7.06119e+57
          2072.72220	         3.71004e+57
          2073.52850	         4.15194e+57
          2074.33480	         5.11401e+57
          2075.14110	         4.86084e+57
          2075.94740	         6.14793e+57
          2076.75370	         4.13558e+57
          2077.56000	         3.69979e+57
          2078.36630	         4.68891e+57
          2079.17260	         5.37422e+57
          2079.97890	         6.01634e+57
          2080.78520	         3.98545e+57
          2081.59150	         4.46413e+57
          2082.39780	         3.96064e+57
          2083.20410	         3.23880e+57
          2084.01040	         3.25911e+57
          2084.81670	         4.18234e+57
          2085.62300	         3.60049e+57
          2086.42930	         2.86208e+57
          2087.23560	         2.71955e+57
          2088.04190	         4.04612e+57
          2088.84820	         2.55536e+57
          2089.65450	         1.82107e+57
          2090.46080	         2.30883e+57
          2091.26710	         3.01661e+57
          2092.07340	         4.16537e+57
          2092.87970	         4.28542e+57
          2093.68600	         4.56861e+55
          2094.49230	         3.04834e+57
          2095.29860	         6.67976e+57
          2096.10490	         3.50817e+57
          2096.91120	         1.33493e+57
          2097.71750	         3.86074e+56
          2098.52380	         2.34422e+57
          2099.33010	         2.33915e+57
          2100.13640	         3.41129e+57
          2100.94270	         4.01746e+57
          2101.74900	         3.31885e+57
          2102.55530	         1.79034e+57
          2103.36160	        -5.29898e+56
          2104.16790	         2.47930e+57
          2104.97420	         1.14624e+57
          2105.78050	        -5.69540e+56
          2106.58680	        -2.35411e+56
          2107.39310	        -1.03343e+57
          2108.19940	         2.28841e+57
          2109.00570	         5.69942e+56
          2109.81200	         1.02593e+57
          2110.61830	         1.99762e+57
          2111.42460	         4.32363e+56
          2112.23090	        -4.96346e+56
          2113.03720	         8.93177e+56
          2113.84350	        -3.57018e+56
          2114.64980	         3.37477e+57
          2115.45610	         8.70404e+56
          2116.26240	        -4.52741e+57
          2117.06870	        -3.01898e+57
          2117.87500	        -6.79373e+56
          2118.68130	        -8.92156e+55
          2119.48760	         3.64637e+57
          2120.29390	         8.45818e+56
          2121.10020	        -1.57439e+57
          2121.90650	        -1.14782e+57
          2122.71280	         1.56106e+57
          2123.51910	         3.92134e+57
          2124.32540	        -1.12727e+56
          2125.13170	         2.58483e+57
          2125.93800	         4.10490e+57
          2126.74430	        -2.15432e+57
          2127.55060	        -8.09617e+57
          2128.35690	        -3.65288e+57
          2129.16320	         2.24470e+57
          2129.96950	        -8.34234e+56
          2130.77580	         2.76517e+57
          2131.58210	         3.49673e+57
          2132.38840	        -2.78834e+57
          2133.19470	        -4.72023e+56
          2134.00100	         1.83720e+57
          2134.80730	        -5.22937e+57
          2135.61360	         5.71024e+57
          2136.41990	         2.70265e+57
          2137.22620	        -6.85965e+57
          2138.03250	        -3.16436e+57
          2138.83880	        -2.15860e+56
          2139.64510	        -1.43234e+57
          2140.45140	        -3.31484e+57
          2141.25770	        -8.85383e+57
          2142.06400	        -5.13449e+57
          2142.87030	         1.29377e+57
          2143.67660	         9.20640e+57
          2144.48290	         6.08085e+57
          2145.28920	         5.94332e+57
          2146.09550	        -1.26464e+58
          2146.90180	        -9.63340e+57
          2147.70810	        -1.68141e+57
          2148.51440	        -3.46976e+57
          2149.32070	        -1.03957e+58
          2150.12700	        -1.16128e+58
          2150.93330	        -6.07026e+56
          2151.73960	         3.62759e+57
          2152.54590	        -6.52693e+57
          2153.35220	        -1.71355e+57
          2154.15850	         1.06764e+58
          2154.96480	         3.38527e+57
          2155.77110	        -7.59122e+57
          2156.57740	         4.87078e+56
          2157.38370	         1.10374e+58
          2158.19000	         5.45039e+57
          2158.99630	        -7.68742e+57
          2159.80260	        -1.29368e+58
          2160.60890	        -3.89589e+57
          2161.41520	        -9.20578e+55
          2162.22150	        -2.52870e+57
          2163.02780	        -2.57166e+57
          2163.83410	        -6.44382e+57
          2164.64040	        -1.60316e+58
          2165.44670	        -1.33022e+58
          2166.25300	        -1.23616e+58
          2167.05930	        -1.21668e+57
          2167.86560	        -2.29316e+57
          2168.67190	        -1.20483e+58
          2169.47820	        -4.35593e+57
          2170.28450	        -1.90547e+57
          2171.09080	        -1.48775e+57
          2171.89710	        -1.39289e+57
          2172.70340	        -8.41889e+56
          2173.50970	        -8.03868e+57
          2174.31600	        -5.56888e+57
          2175.12230	         1.79342e+56
          2175.92860	        -4.08528e+57
          2176.73490	        -3.66885e+57
          2177.54120	        -7.65535e+57
          2178.34750	        -3.31094e+57
          2179.15380	                 nan
          2179.96010	                 nan
          2180.76640	                 nan
          2181.57270	                 nan
          2182.37900	                 nan
          2183.18530	                 nan
          2183.99160	                 nan
          2184.79790	                 nan
          2185.60420	                 nan
          2186.41050	                 nan
          2187.21680	                 nan
          2188.02310	                 nan
          2188.82940	                 nan
          2189.63570	                 nan
          2190.44200	                 nan
          2191.24830	                 nan
          2192.05460	                 nan
          2192.86090	                 nan
          2193.66720	                 nan
          2194.47350	                 nan
          2195.27980	                 nan
          2196.08610	                 nan
          2196.89240	                 nan
          2197.69870	                 nan
          2198.50500	                 nan
          2199.31130	                 nan
          2200.11760	                 nan
          2200.92390	                 nan
          2201.73020	                 nan
          2202.53650	                 nan
          2203.34280	                 nan
          2204.14910	                 nan
          2204.95540	                 nan
          2205.76170	                 nan
          2206.56800	                 nan
          2207.37430	                 nan
          2208.18060	                 nan
          2208.98690	                 nan
          2209.79320	                 nan
          2210.59950	                 nan
          2211.40580	                 nan
          2212.21210	                 nan
          2213.01840	                 nan
          2213.82470	                 nan
          2214.63100	                 nan
          2215.43730	         0.00000e+00
