#sample_427_stacked_spectrum_rest_UV-bands_median_H-alpha_noDC.txt
#median Lum: 1.68244e+42
#Rest-frame wavelength (A) | Luminosity (erg/s/A)
#
          1110.00000	         0.00000e+00
          1110.80630	         2.80578e+57
          1111.61260	        -4.40562e+58
          1112.41890	         1.86373e+59
          1113.22520	        -7.67368e+57
          1114.03150	         1.80578e+59
          1114.83780	         2.83950e+59
          1115.64410	         1.71345e+59
          1116.45040	         2.03215e+59
          1117.25670	         1.70188e+59
          1118.06300	         1.73901e+59
          1118.86930	        -8.45732e+58
          1119.67560	         8.21430e+58
          1120.48190	         6.42192e+58
          1121.28820	        -7.85039e+58
          1122.09450	         1.51613e+58
          1122.90080	         4.42626e+58
          1123.70710	         1.70116e+58
          1124.51340	         4.14195e+58
          1125.31970	         1.11590e+58
          1126.12600	         5.77606e+58
          1126.93230	        -4.73659e+56
          1127.73860	        -5.30423e+57
          1128.54490	         3.87728e+58
          1129.35120	         2.23214e+58
          1130.15750	        -2.51081e+58
          1130.96380	        -4.37548e+58
          1131.77010	         4.54810e+58
          1132.57640	         4.64519e+58
          1133.38270	         4.27362e+58
          1134.18900	         4.07236e+58
          1134.99530	         3.53882e+58
          1135.80160	         6.35692e+57
          1136.60790	         1.29644e+58
          1137.41420	         1.84289e+58
          1138.22050	         4.72386e+58
          1139.02680	         1.86151e+58
          1139.83310	         1.90789e+58
          1140.63940	         3.51958e+58
          1141.44570	         4.92611e+57
          1142.25200	        -1.28048e+58
          1143.05830	         2.35768e+58
          1143.86460	         9.41172e+57
          1144.67090	         2.70827e+58
          1145.47720	         1.22773e+58
          1146.28350	         1.49571e+58
          1147.08980	         1.93794e+58
          1147.89610	         1.56083e+58
          1148.70240	         1.77653e+58
          1149.50870	         2.56711e+58
          1150.31500	         2.35509e+58
          1151.12130	         1.56914e+58
          1151.92760	         1.11330e+58
          1152.73390	        -5.82963e+57
          1153.54020	         3.03728e+57
          1154.34650	         2.50598e+58
          1155.15280	         2.12474e+58
          1155.95910	         1.14438e+58
          1156.76540	         6.15753e+57
          1157.57170	         1.15759e+58
          1158.37800	         2.22192e+57
          1159.18430	         1.78806e+56
          1159.99060	         4.90682e+57
          1160.79690	         2.36433e+57
          1161.60320	         1.22160e+58
          1162.40950	         1.87837e+58
          1163.21580	         2.25148e+58
          1164.02210	         7.85346e+57
          1164.82840	         8.93075e+57
          1165.63470	         1.20862e+58
          1166.44100	         1.92251e+58
          1167.24730	         1.66862e+58
          1168.05360	         1.13826e+58
          1168.85990	         4.36157e+57
          1169.66620	         4.68613e+57
          1170.47250	         3.66888e+57
          1171.27880	        -5.95332e+56
          1172.08510	         3.17889e+57
          1172.89140	         8.46530e+57
          1173.69770	         8.10522e+56
          1174.50400	         1.24634e+58
          1175.31030	         2.33852e+58
          1176.11660	         1.74821e+58
          1176.92290	         1.33913e+58
          1177.72920	         9.50971e+57
          1178.53550	         5.98953e+57
          1179.34180	         1.00965e+58
          1180.14810	         8.98670e+57
          1180.95440	         8.61752e+57
          1181.76070	         8.56777e+57
          1182.56700	         1.06939e+58
          1183.37330	         7.55627e+57
          1184.17960	         1.04895e+58
          1184.98590	         1.09781e+58
          1185.79220	         9.17256e+57
          1186.59850	         1.08261e+58
          1187.40480	         1.08602e+58
          1188.21110	         1.97263e+58
          1189.01740	         7.77287e+57
          1189.82370	         6.90521e+57
          1190.63000	         1.38915e+58
          1191.43630	         1.43268e+58
          1192.24260	         1.33460e+58
          1193.04890	         1.26806e+58
          1193.85520	         1.43202e+58
          1194.66150	         6.44452e+57
          1195.46780	         1.25434e+58
          1196.27410	         1.63292e+58
          1197.08040	         8.50354e+57
          1197.88670	         1.21734e+58
          1198.69300	         1.82623e+58
          1199.49930	         1.75990e+58
          1200.30560	         1.04379e+58
          1201.11190	         1.08224e+58
          1201.91820	         1.61002e+58
          1202.72450	         1.07001e+58
          1203.53080	         1.19089e+58
          1204.33710	         7.14352e+57
          1205.14340	         9.03339e+57
          1205.94970	         6.65158e+57
          1206.75600	         6.17478e+57
          1207.56230	         5.65902e+57
          1208.36860	         1.00741e+58
          1209.17490	         2.47202e+57
          1209.98120	         4.16163e+57
          1210.78750	         8.72493e+57
          1211.59380	         1.08737e+58
          1212.40010	         1.71792e+58
          1213.20640	         2.00771e+58
          1214.01270	         1.98874e+58
          1214.81900	         2.69260e+58
          1215.62530	         4.53345e+58
          1216.43160	         9.13540e+58
          1217.23790	         1.52523e+59
          1218.04420	         1.16365e+59
          1218.85050	         9.18048e+58
          1219.65680	         5.71855e+58
          1220.46310	         3.11195e+58
          1221.26940	         2.44221e+58
          1222.07570	         1.34593e+58
          1222.88200	         9.32144e+57
          1223.68830	         8.49856e+57
          1224.49460	         4.88858e+57
          1225.30090	         4.22943e+57
          1226.10720	         6.67901e+57
          1226.91350	         7.18417e+57
          1227.71980	         1.01107e+58
          1228.52610	         1.31383e+58
          1229.33240	         7.25918e+57
          1230.13870	         1.07665e+58
          1230.94500	         1.06907e+58
          1231.75130	         5.63751e+57
          1232.55760	         8.25497e+57
          1233.36390	         9.09806e+57
          1234.17020	         7.48113e+57
          1234.97650	         8.66319e+57
          1235.78280	         6.34081e+57
          1236.58910	         6.95099e+57
          1237.39540	         1.16831e+58
          1238.20170	         1.05487e+58
          1239.00800	         1.13833e+58
          1239.81430	         1.64563e+58
          1240.62060	         1.21960e+58
          1241.42690	         1.16382e+58
          1242.23320	         1.42596e+58
          1243.03950	         8.99925e+57
          1243.84580	         8.66678e+57
          1244.65210	         1.07780e+58
          1245.45840	         1.16210e+58
          1246.26470	         1.08128e+58
          1247.07100	         6.60255e+57
          1247.87730	         6.21581e+57
          1248.68360	         6.60531e+57
          1249.48990	         1.02610e+58
          1250.29620	         1.06186e+58
          1251.10250	         8.51671e+57
          1251.90880	         4.61022e+57
          1252.71510	         5.87706e+57
          1253.52140	         6.35510e+57
          1254.32770	         9.76765e+57
          1255.13400	         1.22954e+58
          1255.94030	         9.64635e+57
          1256.74660	         8.71965e+57
          1257.55290	         1.04863e+58
          1258.35920	         8.37397e+57
          1259.16550	         6.09613e+57
          1259.97180	         5.73904e+57
          1260.77810	         1.00275e+58
          1261.58440	         1.21563e+58
          1262.39070	         1.00190e+58
          1263.19700	         9.16797e+57
          1264.00330	         1.08061e+58
          1264.80960	         1.26390e+58
          1265.61590	         1.28181e+58
          1266.42220	         1.14507e+58
          1267.22850	         1.05873e+58
          1268.03480	         1.27932e+58
          1268.84110	         1.49631e+58
          1269.64740	         1.30558e+58
          1270.45370	         1.35547e+58
          1271.26000	         1.30277e+58
          1272.06630	         1.24570e+58
          1272.87260	         1.41575e+58
          1273.67890	         1.46497e+58
          1274.48520	         1.16466e+58
          1275.29150	         1.28148e+58
          1276.09780	         1.11478e+58
          1276.90410	         1.38774e+58
          1277.71040	         1.30044e+58
          1278.51670	         1.14439e+58
          1279.32300	         1.31076e+58
          1280.12930	         1.29888e+58
          1280.93560	         1.22155e+58
          1281.74190	         1.14138e+58
          1282.54820	         1.08964e+58
          1283.35450	         9.86789e+57
          1284.16080	         1.21122e+58
          1284.96710	         1.19042e+58
          1285.77340	         1.17926e+58
          1286.57970	         1.30433e+58
          1287.38600	         1.53348e+58
          1288.19230	         1.78142e+58
          1288.99860	         1.71884e+58
          1289.80490	         9.97235e+57
          1290.61120	         1.09223e+58
          1291.41750	         1.29389e+58
          1292.22380	         1.18985e+58
          1293.03010	         1.17323e+58
          1293.83640	         1.24287e+58
          1294.64270	         9.69432e+57
          1295.44900	         7.39497e+57
          1296.25530	         9.27635e+57
          1297.06160	         1.08203e+58
          1297.86790	         9.84639e+57
          1298.67420	         8.25900e+57
          1299.48050	         9.44643e+57
          1300.28680	         1.08128e+58
          1301.09310	         9.18536e+57
          1301.89940	         4.79148e+57
          1302.70570	         6.74114e+57
          1303.51200	         8.72688e+57
          1304.31830	         9.39357e+57
          1305.12460	         1.10786e+58
          1305.93090	         1.17612e+58
          1306.73720	         1.33127e+58
          1307.54350	         1.46877e+58
          1308.34980	         1.37663e+58
          1309.15610	         1.73042e+58
          1309.96240	         1.75355e+58
          1310.76870	         1.31751e+58
          1311.57500	         1.09848e+58
          1312.38130	         9.99878e+57
          1313.18760	         1.20730e+58
          1313.99390	         1.41302e+58
          1314.80020	         1.68259e+58
          1315.60650	         1.70170e+58
          1316.41280	         1.44533e+58
          1317.21910	         1.04054e+58
          1318.02540	         1.18631e+58
          1318.83170	         1.24065e+58
          1319.63800	         1.12374e+58
          1320.44430	         1.04428e+58
          1321.25060	         1.18825e+58
          1322.05690	         1.32287e+58
          1322.86320	         1.22303e+58
          1323.66950	         1.05441e+58
          1324.47580	         9.11323e+57
          1325.28210	         9.87173e+57
          1326.08840	         1.29593e+58
          1326.89470	         1.44685e+58
          1327.70100	         1.14860e+58
          1328.50730	         7.96871e+57
          1329.31360	         7.23026e+57
          1330.11990	         8.08380e+57
          1330.92620	         9.49386e+57
          1331.73250	         1.10642e+58
          1332.53880	         1.04567e+58
          1333.34510	         9.62291e+57
          1334.15140	         8.85110e+57
          1334.95770	         9.03574e+57
          1335.76400	         1.09534e+58
          1336.57030	         1.11925e+58
          1337.37660	         1.03858e+58
          1338.18290	         1.12923e+58
          1338.98920	         1.23471e+58
          1339.79550	         1.09589e+58
          1340.60180	         1.13097e+58
          1341.40810	         1.23176e+58
          1342.21440	         1.16479e+58
          1343.02070	         1.28291e+58
          1343.82700	         1.36705e+58
          1344.63330	         1.31298e+58
          1345.43960	         1.24462e+58
          1346.24590	         1.11865e+58
          1347.05220	         1.28250e+58
          1347.85850	         1.11142e+58
          1348.66480	         1.20807e+58
          1349.47110	         1.42219e+58
          1350.27740	         1.26058e+58
          1351.08370	         1.06667e+58
          1351.89000	         1.15866e+58
          1352.69630	         1.19037e+58
          1353.50260	         1.22768e+58
          1354.30890	         1.18073e+58
          1355.11520	         1.12054e+58
          1355.92150	         9.85854e+57
          1356.72780	         1.02902e+58
          1357.53410	         1.05195e+58
          1358.34040	         1.06242e+58
          1359.14670	         9.66807e+57
          1359.95300	         1.04111e+58
          1360.75930	         1.15186e+58
          1361.56560	         9.99627e+57
          1362.37190	         1.05032e+58
          1363.17820	         1.09719e+58
          1363.98450	         1.18883e+58
          1364.79080	         1.35547e+58
          1365.59710	         1.37070e+58
          1366.40340	         1.25173e+58
          1367.20970	         1.07861e+58
          1368.01600	         9.68755e+57
          1368.82230	         1.01783e+58
          1369.62860	         1.13387e+58
          1370.43490	         1.03172e+58
          1371.24120	         9.60865e+57
          1372.04750	         7.14227e+57
          1372.85380	         8.75978e+57
          1373.66010	         1.14907e+58
          1374.46640	         1.12179e+58
          1375.27270	         1.02102e+58
          1376.07900	         8.99555e+57
          1376.88530	         8.80519e+57
          1377.69160	         8.57123e+57
          1378.49790	         7.52603e+57
          1379.30420	         8.32499e+57
          1380.11050	         9.73837e+57
          1380.91680	         8.87840e+57
          1381.72310	         9.15074e+57
          1382.52940	         8.69293e+57
          1383.33570	         9.63478e+57
          1384.14200	         1.06886e+58
          1384.94830	         9.92519e+57
          1385.75460	         1.10225e+58
          1386.56090	         1.07724e+58
          1387.36720	         1.04768e+58
          1388.17350	         1.14167e+58
          1388.97980	         1.09215e+58
          1389.78610	         8.95867e+57
          1390.59240	         6.69895e+57
          1391.39870	         7.36889e+57
          1392.20500	         7.75037e+57
          1393.01130	         7.84307e+57
          1393.81760	         7.80578e+57
          1394.62390	         6.58702e+57
          1395.43020	         6.58700e+57
          1396.23650	         7.26517e+57
          1397.04280	         6.54731e+57
          1397.84910	         7.73319e+57
          1398.65540	         8.75297e+57
          1399.46170	         9.59678e+57
          1400.26800	         8.97429e+57
          1401.07430	         7.43032e+57
          1401.88060	         9.10122e+57
          1402.68690	         1.06115e+58
          1403.49320	         9.24241e+57
          1404.29950	         9.32353e+57
          1405.10580	         1.00982e+58
          1405.91210	         1.07865e+58
          1406.71840	         1.07503e+58
          1407.52470	         1.15971e+58
          1408.33100	         1.20973e+58
          1409.13730	         1.25030e+58
          1409.94360	         1.25052e+58
          1410.74990	         1.21356e+58
          1411.55620	         1.13444e+58
          1412.36250	         1.07332e+58
          1413.16880	         9.59601e+57
          1413.97510	         8.32015e+57
          1414.78140	         8.69068e+57
          1415.58770	         1.06779e+58
          1416.39400	         1.20011e+58
          1417.20030	         1.13094e+58
          1418.00660	         1.01446e+58
          1418.81290	         1.25223e+58
          1419.61920	         1.13019e+58
          1420.42550	         1.20629e+58
          1421.23180	         1.34630e+58
          1422.03810	         1.25338e+58
          1422.84440	         1.16018e+58
          1423.65070	         1.35812e+58
          1424.45700	         1.37165e+58
          1425.26330	         9.59257e+57
          1426.06960	         7.41767e+57
          1426.87590	         9.08681e+57
          1427.68220	         9.79428e+57
          1428.48850	         1.02278e+58
          1429.29480	         1.19070e+58
          1430.10110	         1.09325e+58
          1430.90740	         8.37315e+57
          1431.71370	         9.08429e+57
          1432.52000	         9.46314e+57
          1433.32630	         7.74268e+57
          1434.13260	         7.52824e+57
          1434.93890	         8.02632e+57
          1435.74520	         9.21129e+57
          1436.55150	         9.32015e+57
          1437.35780	         8.56387e+57
          1438.16410	         9.02289e+57
          1438.97040	         8.84862e+57
          1439.77670	         8.87018e+57
          1440.58300	         9.51674e+57
          1441.38930	         9.91198e+57
          1442.19560	         9.00648e+57
          1443.00190	         8.42463e+57
          1443.80820	         9.95140e+57
          1444.61450	         9.50117e+57
          1445.42080	         9.03362e+57
          1446.22710	         1.05231e+58
          1447.03340	         9.76861e+57
          1447.83970	         1.06325e+58
          1448.64600	         1.09442e+58
          1449.45230	         1.03894e+58
          1450.25860	         1.02446e+58
          1451.06490	         9.20063e+57
          1451.87120	         8.48479e+57
          1452.67750	         7.35814e+57
          1453.48380	         8.19375e+57
          1454.29010	         7.89674e+57
          1455.09640	         7.50416e+57
          1455.90270	         8.75082e+57
          1456.70900	         8.88323e+57
          1457.51530	         9.87885e+57
          1458.32160	         1.09120e+58
          1459.12790	         1.05840e+58
          1459.93420	         9.13180e+57
          1460.74050	         8.90237e+57
          1461.54680	         8.99556e+57
          1462.35310	         8.00605e+57
          1463.15940	         9.30178e+57
          1463.96570	         1.03038e+58
          1464.77200	         1.07354e+58
          1465.57830	         9.53350e+57
          1466.38460	         8.84916e+57
          1467.19090	         8.93024e+57
          1467.99720	         9.87405e+57
          1468.80350	         9.09595e+57
          1469.60980	         9.07938e+57
          1470.41610	         1.07366e+58
          1471.22240	         9.62462e+57
          1472.02870	         9.10407e+57
          1472.83500	         9.99085e+57
          1473.64130	         1.02361e+58
          1474.44760	         9.58096e+57
          1475.25390	         8.83523e+57
          1476.06020	         8.40656e+57
          1476.86650	         8.07600e+57
          1477.67280	         7.70397e+57
          1478.47910	         6.03224e+57
          1479.28540	         6.02727e+57
          1480.09170	         6.98742e+57
          1480.89800	         8.16233e+57
          1481.70430	         9.15563e+57
          1482.51060	         9.74901e+57
          1483.31690	         8.43824e+57
          1484.12320	         6.87694e+57
          1484.92950	         7.31699e+57
          1485.73580	         8.28457e+57
          1486.54210	         8.33363e+57
          1487.34840	         9.01700e+57
          1488.15470	         9.04116e+57
          1488.96100	         9.13985e+57
          1489.76730	         1.05091e+58
          1490.57360	         1.01165e+58
          1491.37990	         8.01019e+57
          1492.18620	         8.20855e+57
          1492.99250	         8.26873e+57
          1493.79880	         8.28147e+57
          1494.60510	         8.49573e+57
          1495.41140	         7.11092e+57
          1496.21770	         6.96504e+57
          1497.02400	         9.68130e+57
          1497.83030	         9.98583e+57
          1498.63660	         7.43517e+57
          1499.44290	         6.05444e+57
          1500.24920	         6.60240e+57
          1501.05550	         6.88704e+57
          1501.86180	         7.07563e+57
          1502.66810	         9.14943e+57
          1503.47440	         9.23467e+57
          1504.28070	         9.27504e+57
          1505.08700	         9.73913e+57
          1505.89330	         1.01743e+58
          1506.69960	         9.67147e+57
          1507.50590	         9.14255e+57
          1508.31220	         8.73386e+57
          1509.11850	         8.04469e+57
          1509.92480	         8.79651e+57
          1510.73110	         9.16005e+57
          1511.53740	         7.46110e+57
          1512.34370	         6.81145e+57
          1513.15000	         9.45618e+57
          1513.95630	         1.05051e+58
          1514.76260	         8.83356e+57
          1515.56890	         8.35791e+57
          1516.37520	         8.42809e+57
          1517.18150	         7.57949e+57
          1517.98780	         7.05731e+57
          1518.79410	         6.83011e+57
          1519.60040	         8.07652e+57
          1520.40670	         9.46083e+57
          1521.21300	         8.70101e+57
          1522.01930	         8.06793e+57
          1522.82560	         9.61512e+57
          1523.63190	         1.02179e+58
          1524.43820	         8.90871e+57
          1525.24450	         6.76635e+57
          1526.05080	         6.52114e+57
          1526.85710	         7.16792e+57
          1527.66340	         7.12593e+57
          1528.46970	         8.38101e+57
          1529.27600	         8.86508e+57
          1530.08230	         8.32656e+57
          1530.88860	         7.79132e+57
          1531.69490	         8.28164e+57
          1532.50120	         8.14278e+57
          1533.30750	         8.91611e+57
          1534.11380	         9.04535e+57
          1534.92010	         8.21342e+57
          1535.72640	         8.29634e+57
          1536.53270	         9.31732e+57
          1537.33900	         9.00442e+57
          1538.14530	         8.94745e+57
          1538.95160	         8.79847e+57
          1539.75790	         9.49921e+57
          1540.56420	         8.42435e+57
          1541.37050	         7.62741e+57
          1542.17680	         7.40278e+57
          1542.98310	         7.74729e+57
          1543.78940	         7.89809e+57
          1544.59570	         7.34175e+57
          1545.40200	         7.62288e+57
          1546.20830	         1.01586e+58
          1547.01460	         1.15734e+58
          1547.82090	         1.20298e+58
          1548.62720	         1.21387e+58
          1549.43350	         1.17324e+58
          1550.23980	         1.16133e+58
          1551.04610	         1.21539e+58
          1551.85240	         1.21698e+58
          1552.65870	         1.12906e+58
          1553.46500	         1.13664e+58
          1554.27130	         1.02827e+58
          1555.07760	         9.76400e+57
          1555.88390	         9.52480e+57
          1556.69020	         9.03648e+57
          1557.49650	         8.80893e+57
          1558.30280	         8.75940e+57
          1559.10910	         9.11170e+57
          1559.91540	         9.76632e+57
          1560.72170	         9.15751e+57
          1561.52800	         8.53474e+57
          1562.33430	         8.56401e+57
          1563.14060	         7.93164e+57
          1563.94690	         8.12212e+57
          1564.75320	         8.28613e+57
          1565.55950	         7.36756e+57
          1566.36580	         7.96249e+57
          1567.17210	         9.68761e+57
          1567.97840	         1.02029e+58
          1568.78470	         9.11968e+57
          1569.59100	         9.33735e+57
          1570.39730	         9.19630e+57
          1571.20360	         7.44576e+57
          1572.00990	         7.31069e+57
          1572.81620	         8.80120e+57
          1573.62250	         1.02948e+58
          1574.42880	         9.56515e+57
          1575.23510	         8.82873e+57
          1576.04140	         8.69808e+57
          1576.84770	         8.68043e+57
          1577.65400	         9.10589e+57
          1578.46030	         9.63658e+57
          1579.26660	         1.03462e+58
          1580.07290	         9.04407e+57
          1580.87920	         8.07164e+57
          1581.68550	         8.82960e+57
          1582.49180	         8.68449e+57
          1583.29810	         8.24387e+57
          1584.10440	         8.11222e+57
          1584.91070	         7.76459e+57
          1585.71700	         8.64932e+57
          1586.52330	         8.20534e+57
          1587.32960	         8.36498e+57
          1588.13590	         8.47362e+57
          1588.94220	         8.28433e+57
          1589.74850	         8.96540e+57
          1590.55480	         9.22072e+57
          1591.36110	         8.24626e+57
          1592.16740	         8.22313e+57
          1592.97370	         7.86607e+57
          1593.78000	         7.97084e+57
          1594.58630	         9.47091e+57
          1595.39260	         8.59144e+57
          1596.19890	         8.01694e+57
          1597.00520	         8.22126e+57
          1597.81150	         8.65693e+57
          1598.61780	         7.69229e+57
          1599.42410	         6.58437e+57
          1600.23040	         6.58462e+57
          1601.03670	         7.19390e+57
          1601.84300	         6.69367e+57
          1602.64930	         7.78827e+57
          1603.45560	         7.93537e+57
          1604.26190	         8.23954e+57
          1605.06820	         8.64862e+57
          1605.87450	         8.05238e+57
          1606.68080	         7.15739e+57
          1607.48710	         5.93457e+57
          1608.29340	         5.55074e+57
          1609.09970	         6.67204e+57
          1609.90600	         7.69431e+57
          1610.71230	         5.80529e+57
          1611.51860	         5.74408e+57
          1612.32490	         5.98252e+57
          1613.13120	         7.48180e+57
          1613.93750	         8.81207e+57
          1614.74380	         9.06192e+57
          1615.55010	         9.24357e+57
          1616.35640	         9.43958e+57
          1617.16270	         1.05197e+58
          1617.96900	         1.17640e+58
          1618.77530	         1.03154e+58
          1619.58160	         9.00081e+57
          1620.38790	         9.10668e+57
          1621.19420	         9.85672e+57
          1622.00050	         9.06244e+57
          1622.80680	         9.43517e+57
          1623.61310	         9.17513e+57
          1624.41940	         8.54125e+57
          1625.22570	         8.54893e+57
          1626.03200	         8.04215e+57
          1626.83830	         8.30868e+57
          1627.64460	         8.28469e+57
          1628.45090	         6.06907e+57
          1629.25720	         8.31569e+57
          1630.06350	         1.00633e+58
          1630.86980	         6.72750e+57
          1631.67610	         8.12338e+57
          1632.48240	         1.03041e+58
          1633.28870	         8.92522e+57
          1634.09500	         8.86712e+57
          1634.90130	         1.07258e+58
          1635.70760	         8.21254e+57
          1636.51390	         6.94837e+57
          1637.32020	         7.27273e+57
          1638.12650	         8.60655e+57
          1638.93280	         9.82382e+57
          1639.73910	         1.07336e+58
          1640.54540	         1.05475e+58
          1641.35170	         8.21753e+57
          1642.15800	         8.85165e+57
          1642.96430	         9.63130e+57
          1643.77060	         9.53178e+57
          1644.57690	         8.39260e+57
          1645.38320	         7.99758e+57
          1646.18950	         7.34224e+57
          1646.99580	         8.71298e+57
          1647.80210	         7.98219e+57
          1648.60840	         6.84314e+57
          1649.41470	         8.00460e+57
          1650.22100	         6.98239e+57
          1651.02730	         7.05979e+57
          1651.83360	         7.49187e+57
          1652.63990	         8.19845e+57
          1653.44620	         8.98655e+57
          1654.25250	         7.91064e+57
          1655.05880	         7.62848e+57
          1655.86510	         9.28981e+57
          1656.67140	         9.12533e+57
          1657.47770	         7.97415e+57
          1658.28400	         7.94230e+57
          1659.09030	         7.98345e+57
          1659.89660	         8.37016e+57
          1660.70290	         1.00722e+58
          1661.50920	         1.05115e+58
          1662.31550	         8.31360e+57
          1663.12180	         7.98878e+57
          1663.92810	         9.68927e+57
          1664.73440	         1.09965e+58
          1665.54070	         1.23238e+58
          1666.34700	         1.23234e+58
          1667.15330	         1.14317e+58
          1667.95960	         8.98111e+57
          1668.76590	         6.81626e+57
          1669.57220	         6.54226e+57
          1670.37850	         6.95241e+57
          1671.18480	         7.51634e+57
          1671.99110	         8.17584e+57
          1672.79740	         6.76107e+57
          1673.60370	         6.55716e+57
          1674.41000	         8.08034e+57
          1675.21630	         8.35858e+57
          1676.02260	         6.78091e+57
          1676.82890	         7.12602e+57
          1677.63520	         6.99890e+57
          1678.44150	         6.99572e+57
          1679.24780	         8.06610e+57
          1680.05410	         7.23038e+57
          1680.86040	         6.49488e+57
          1681.66670	         7.32508e+57
          1682.47300	         8.27551e+57
          1683.27930	         8.54679e+57
          1684.08560	         9.20083e+57
          1684.89190	         8.69762e+57
          1685.69820	         6.11187e+57
          1686.50450	         5.46212e+57
          1687.31080	         7.28470e+57
          1688.11710	         8.02961e+57
          1688.92340	         6.64793e+57
          1689.72970	         5.96407e+57
          1690.53600	         6.52989e+57
          1691.34230	         7.06839e+57
          1692.14860	         7.50874e+57
          1692.95490	         7.44307e+57
          1693.76120	         6.89511e+57
          1694.56750	         7.50644e+57
          1695.37380	         9.93500e+57
          1696.18010	         9.84027e+57
          1696.98640	         8.03563e+57
          1697.79270	         7.66732e+57
          1698.59900	         7.62831e+57
          1699.40530	         6.76414e+57
          1700.21160	         7.13630e+57
          1701.01790	         8.43947e+57
          1701.82420	         7.77583e+57
          1702.63050	         8.62806e+57
          1703.43680	         8.25697e+57
          1704.24310	         7.86713e+57
          1705.04940	         8.04116e+57
          1705.85570	         7.59438e+57
          1706.66200	         8.39037e+57
          1707.46830	         8.12353e+57
          1708.27460	         7.03075e+57
          1709.08090	         6.71987e+57
          1709.88720	         6.16961e+57
          1710.69350	         7.23265e+57
          1711.49980	         7.94248e+57
          1712.30610	         7.35969e+57
          1713.11240	         8.55428e+57
          1713.91870	         7.62185e+57
          1714.72500	         7.79265e+57
          1715.53130	         8.33806e+57
          1716.33760	         8.03493e+57
          1717.14390	         8.01278e+57
          1717.95020	         8.76398e+57
          1718.75650	         8.60924e+57
          1719.56280	         8.28096e+57
          1720.36910	         7.68245e+57
          1721.17540	         6.62277e+57
          1721.98170	         6.05544e+57
          1722.78800	         6.35141e+57
          1723.59430	         7.14322e+57
          1724.40060	         7.69261e+57
          1725.20690	         8.29532e+57
          1726.01320	         8.05174e+57
          1726.81950	         7.47703e+57
          1727.62580	         6.64209e+57
          1728.43210	         6.47593e+57
          1729.23840	         7.53122e+57
          1730.04470	         8.45334e+57
          1730.85100	         8.44064e+57
          1731.65730	         7.57676e+57
          1732.46360	         7.48934e+57
          1733.26990	         6.98740e+57
          1734.07620	         7.69175e+57
          1734.88250	         8.27931e+57
          1735.68880	         7.77824e+57
          1736.49510	         7.72292e+57
          1737.30140	         7.63053e+57
          1738.10770	         6.99759e+57
          1738.91400	         7.03207e+57
          1739.72030	         8.10843e+57
          1740.52660	         6.75995e+57
          1741.33290	         5.59581e+57
          1742.13920	         5.86141e+57
          1742.94550	         6.73848e+57
          1743.75180	         7.09865e+57
          1744.55810	         7.41685e+57
          1745.36440	         7.77859e+57
          1746.17070	         6.44848e+57
          1746.97700	         5.74257e+57
          1747.78330	         6.38450e+57
          1748.58960	         6.99020e+57
          1749.39590	         7.85606e+57
          1750.20220	         6.57871e+57
          1751.00850	         4.56281e+57
          1751.81480	         4.97813e+57
          1752.62110	         6.17147e+57
          1753.42740	         7.34784e+57
          1754.23370	         6.19308e+57
          1755.04000	         6.12532e+57
          1755.84630	         7.95395e+57
          1756.65260	         8.19375e+57
          1757.45890	         8.55397e+57
          1758.26520	         7.89056e+57
          1759.07150	         9.00756e+57
          1759.87780	         8.65645e+57
          1760.68410	         8.75350e+57
          1761.49040	         6.66319e+57
          1762.29670	         6.70584e+57
          1763.10300	         6.76522e+57
          1763.90930	         7.64727e+57
          1764.71560	         8.52001e+57
          1765.52190	         7.80113e+57
          1766.32820	         9.12524e+57
          1767.13450	         9.26054e+57
          1767.94080	         7.12649e+57
          1768.74710	         6.36830e+57
          1769.55340	         6.60177e+57
          1770.35970	         6.61407e+57
          1771.16600	         7.62400e+57
          1771.97230	         7.80371e+57
          1772.77860	         8.65352e+57
          1773.58490	         7.41859e+57
          1774.39120	         5.44314e+57
          1775.19750	         5.91565e+57
          1776.00380	         6.65736e+57
          1776.81010	         6.85338e+57
          1777.61640	         7.00976e+57
          1778.42270	         7.60222e+57
          1779.22900	         6.55761e+57
          1780.03530	         5.45629e+57
          1780.84160	         7.36438e+57
          1781.64790	         9.22646e+57
          1782.45420	         7.42569e+57
          1783.26050	         5.47991e+57
          1784.06680	         6.82225e+57
          1784.87310	         8.07826e+57
          1785.67940	         8.60172e+57
          1786.48570	         7.59537e+57
          1787.29200	         6.57034e+57
          1788.09830	         7.22118e+57
          1788.90460	         5.82796e+57
          1789.71090	         5.13625e+57
          1790.51720	         5.44424e+57
          1791.32350	         6.40677e+57
          1792.12980	         7.76761e+57
          1792.93610	         7.67616e+57
          1793.74240	         6.49824e+57
          1794.54870	         7.58074e+57
          1795.35500	         8.49086e+57
          1796.16130	         8.03351e+57
          1796.96760	         7.05022e+57
          1797.77390	         7.12156e+57
          1798.58020	         6.89989e+57
          1799.38650	         6.59384e+57
          1800.19280	         7.24410e+57
          1800.99910	         7.56384e+57
          1801.80540	         7.60119e+57
          1802.61170	         8.26814e+57
          1803.41800	         8.75906e+57
          1804.22430	         7.57074e+57
          1805.03060	         5.90636e+57
          1805.83690	         7.54568e+57
          1806.64320	         8.71065e+57
          1807.44950	         7.88122e+57
          1808.25580	         6.99798e+57
          1809.06210	         8.36263e+57
          1809.86840	         7.67601e+57
          1810.67470	         7.41528e+57
          1811.48100	         7.37237e+57
          1812.28730	         7.22991e+57
          1813.09360	         6.99680e+57
          1813.89990	         6.98608e+57
          1814.70620	         7.56341e+57
          1815.51250	         8.45953e+57
          1816.31880	         8.17431e+57
          1817.12510	         6.85133e+57
          1817.93140	         6.66296e+57
          1818.73770	         7.37225e+57
          1819.54400	         8.44100e+57
          1820.35030	         8.40804e+57
          1821.15660	         6.77749e+57
          1821.96290	         6.41119e+57
          1822.76920	         7.04802e+57
          1823.57550	         7.27910e+57
          1824.38180	         7.35102e+57
          1825.18810	         7.03425e+57
          1825.99440	         8.45703e+57
          1826.80070	         8.04710e+57
          1827.60700	         6.24324e+57
          1828.41330	         5.38741e+57
          1829.21960	         6.43167e+57
          1830.02590	         7.96397e+57
          1830.83220	         8.94544e+57
          1831.63850	         8.46621e+57
          1832.44480	         7.90738e+57
          1833.25110	         8.15971e+57
          1834.05740	         8.62921e+57
          1834.86370	         7.40804e+57
          1835.67000	         6.51521e+57
          1836.47630	         7.25338e+57
          1837.28260	         8.49747e+57
          1838.08890	         8.85803e+57
          1838.89520	         9.31993e+57
          1839.70150	         8.84901e+57
          1840.50780	         7.57444e+57
          1841.31410	         6.88891e+57
          1842.12040	         6.30388e+57
          1842.92670	         7.81324e+57
          1843.73300	         6.94890e+57
          1844.53930	         5.93159e+57
          1845.34560	         7.04701e+57
          1846.15190	         7.95335e+57
          1846.95820	         7.61233e+57
          1847.76450	         7.01397e+57
          1848.57080	         5.20422e+57
          1849.37710	         5.08650e+57
          1850.18340	         6.36981e+57
          1850.98970	         7.58188e+57
          1851.79600	         6.93109e+57
          1852.60230	         6.37312e+57
          1853.40860	         6.95124e+57
          1854.21490	         7.11234e+57
          1855.02120	         5.72963e+57
          1855.82750	         4.62190e+57
          1856.63380	         6.46168e+57
          1857.44010	         6.97085e+57
          1858.24640	         6.96722e+57
          1859.05270	         6.67686e+57
          1859.85900	         6.35866e+57
          1860.66530	         6.71009e+57
          1861.47160	         7.16283e+57
          1862.27790	         6.83487e+57
          1863.08420	         6.33407e+57
          1863.89050	         6.86186e+57
          1864.69680	         7.16307e+57
          1865.50310	         6.59214e+57
          1866.30940	         6.90443e+57
          1867.11570	         7.09324e+57
          1867.92200	         7.31278e+57
          1868.72830	         7.36652e+57
          1869.53460	         6.64719e+57
          1870.34090	         7.03529e+57
          1871.14720	         8.25759e+57
          1871.95350	         6.94404e+57
          1872.75980	         6.78600e+57
          1873.56610	         6.93847e+57
          1874.37240	         6.20503e+57
          1875.17870	         6.33699e+57
          1875.98500	         7.35129e+57
          1876.79130	         7.73311e+57
          1877.59760	         6.79479e+57
          1878.40390	         5.19587e+57
          1879.21020	         5.90544e+57
          1880.01650	         8.01564e+57
          1880.82280	         7.88399e+57
          1881.62910	         8.27367e+57
          1882.43540	         8.78026e+57
          1883.24170	         7.51219e+57
          1884.04800	         6.68046e+57
          1884.85430	         7.72293e+57
          1885.66060	         8.77512e+57
          1886.46690	         8.86388e+57
          1887.27320	         8.84403e+57
          1888.07950	         7.07154e+57
          1888.88580	         6.57531e+57
          1889.69210	         8.34135e+57
          1890.49840	         7.86398e+57
          1891.30470	         7.35558e+57
          1892.11100	         7.84332e+57
          1892.91730	         7.84888e+57
          1893.72360	         7.70570e+57
          1894.52990	         6.73162e+57
          1895.33620	         8.29070e+57
          1896.14250	         8.14851e+57
          1896.94880	         5.73166e+57
          1897.75510	         3.88546e+57
          1898.56140	         5.36936e+57
          1899.36770	         7.62517e+57
          1900.17400	         6.62958e+57
          1900.98030	         6.06129e+57
          1901.78660	         6.73911e+57
          1902.59290	         7.25865e+57
          1903.39920	         8.49525e+57
          1904.20550	         8.70382e+57
          1905.01180	         8.38401e+57
          1905.81810	         9.14078e+57
          1906.62440	         1.15395e+58
          1907.43070	         1.40539e+58
          1908.23700	         1.54624e+58
          1909.04330	         1.28812e+58
          1909.84960	         1.08650e+58
          1910.65590	         1.04866e+58
          1911.46220	         9.58493e+57
          1912.26850	         7.47902e+57
          1913.07480	         6.06913e+57
          1913.88110	         5.50300e+57
          1914.68740	         6.10972e+57
          1915.49370	         5.93105e+57
          1916.30000	         6.51560e+57
          1917.10630	         7.22672e+57
          1917.91260	         7.17624e+57
          1918.71890	         6.64173e+57
          1919.52520	         6.74913e+57
          1920.33150	         5.58981e+57
          1921.13780	         5.45513e+57
          1921.94410	         7.32659e+57
          1922.75040	         7.69117e+57
          1923.55670	         7.29648e+57
          1924.36300	         7.16672e+57
          1925.16930	         7.14474e+57
          1925.97560	         5.35970e+57
          1926.78190	         5.33853e+57
          1927.58820	         6.58260e+57
          1928.39450	         6.15263e+57
          1929.20080	         5.48546e+57
          1930.00710	         6.88348e+57
          1930.81340	         8.57317e+57
          1931.61970	         7.52967e+57
          1932.42600	         7.55985e+57
          1933.23230	         8.33532e+57
          1934.03860	         5.98691e+57
          1934.84490	         5.67500e+57
          1935.65120	         8.23604e+57
          1936.45750	         8.09490e+57
          1937.26380	         6.87825e+57
          1938.07010	         8.11902e+57
          1938.87640	         6.46360e+57
          1939.68270	         6.35909e+57
          1940.48900	         7.23926e+57
          1941.29530	         8.81859e+57
          1942.10160	         7.48422e+57
          1942.90790	         6.58462e+57
          1943.71420	         6.76522e+57
          1944.52050	         6.73625e+57
          1945.32680	         5.87454e+57
          1946.13310	         6.03896e+57
          1946.93940	         7.61920e+57
          1947.74570	         7.57281e+57
          1948.55200	         5.89487e+57
          1949.35830	         6.77388e+57
          1950.16460	         6.01868e+57
          1950.97090	         6.08646e+57
          1951.77720	         6.68141e+57
          1952.58350	         6.90443e+57
          1953.38980	         6.17878e+57
          1954.19610	         4.35573e+57
          1955.00240	         5.20575e+57
          1955.80870	         5.94967e+57
          1956.61500	         6.31142e+57
          1957.42130	         6.46667e+57
          1958.22760	         7.08925e+57
          1959.03390	         6.60359e+57
          1959.84020	         6.88701e+57
          1960.64650	         7.04499e+57
          1961.45280	         6.99370e+57
          1962.25910	         6.04288e+57
          1963.06540	         5.64762e+57
          1963.87170	         7.19167e+57
          1964.67800	         7.54449e+57
          1965.48430	         6.81073e+57
          1966.29060	         7.07074e+57
          1967.09690	         8.37840e+57
          1967.90320	         7.62732e+57
          1968.70950	         7.49316e+57
          1969.51580	         5.92495e+57
          1970.32210	         6.46994e+57
          1971.12840	         6.09295e+57
          1971.93470	         4.67041e+57
          1972.74100	         4.61858e+57
          1973.54730	         5.94841e+57
          1974.35360	         5.67625e+57
          1975.15990	         7.48196e+57
          1975.96620	         7.28582e+57
          1976.77250	         7.27812e+57
          1977.57880	         7.07354e+57
          1978.38510	         6.26151e+57
          1979.19140	         6.86545e+57
          1979.99770	         7.62078e+57
          1980.80400	         8.53547e+57
          1981.61030	         7.44942e+57
          1982.41660	         5.37934e+57
          1983.22290	         6.49600e+57
          1984.02920	         6.08109e+57
          1984.83550	         5.96684e+57
          1985.64180	         6.37828e+57
          1986.44810	         6.91551e+57
          1987.25440	         5.80327e+57
          1988.06070	         6.10762e+57
          1988.86700	         6.59347e+57
          1989.67330	         7.12879e+57
          1990.47960	         7.07754e+57
          1991.28590	         6.69844e+57
          1992.09220	         6.52444e+57
          1992.89850	         5.76657e+57
          1993.70480	         4.66493e+57
          1994.51110	         4.29355e+57
          1995.31740	         5.61179e+57
          1996.12370	         5.65971e+57
          1996.93000	         6.54256e+57
          1997.73630	         7.76792e+57
          1998.54260	         8.09857e+57
          1999.34890	         7.12086e+57
          2000.15520	         6.11436e+57
          2000.96150	         6.37067e+57
          2001.76780	         5.90858e+57
          2002.57410	         5.81964e+57
          2003.38040	         5.74380e+57
          2004.18670	         6.21419e+57
          2004.99300	         5.38180e+57
          2005.79930	         7.40561e+57
          2006.60560	         7.59028e+57
          2007.41190	         6.59284e+57
          2008.21820	         6.78924e+57
          2009.02450	         7.31346e+57
          2009.83080	         6.69772e+57
          2010.63710	         6.52999e+57
          2011.44340	         7.38882e+57
          2012.24970	         7.44833e+57
          2013.05600	         7.40490e+57
          2013.86230	         5.91957e+57
          2014.66860	         5.13639e+57
          2015.47490	         6.79386e+57
          2016.28120	         6.48063e+57
          2017.08750	         5.99942e+57
          2017.89380	         6.53577e+57
          2018.70010	         6.43737e+57
          2019.50640	         6.72246e+57
          2020.31270	         7.00507e+57
          2021.11900	         6.81984e+57
          2021.92530	         6.89338e+57
          2022.73160	         7.32765e+57
          2023.53790	         7.90332e+57
          2024.34420	         6.48295e+57
          2025.15050	         5.45989e+57
          2025.95680	         5.40259e+57
          2026.76310	         7.27689e+57
          2027.56940	         6.09499e+57
          2028.37570	         6.93807e+57
          2029.18200	         6.55325e+57
          2029.98830	         6.00889e+57
          2030.79460	         6.63776e+57
          2031.60090	         6.58239e+57
          2032.40720	         5.62361e+57
          2033.21350	         5.45720e+57
          2034.01980	         5.89792e+57
          2034.82610	         4.49370e+57
          2035.63240	         4.42372e+57
          2036.43870	         5.84734e+57
          2037.24500	         5.24436e+57
          2038.05130	         5.85644e+57
          2038.85760	         4.92656e+57
          2039.66390	         4.63794e+57
          2040.47020	         7.29467e+57
          2041.27650	         6.86440e+57
          2042.08280	         5.32214e+57
          2042.88910	         6.28075e+57
          2043.69540	         6.29738e+57
          2044.50170	         7.09102e+57
          2045.30800	         5.45075e+57
          2046.11430	         3.96090e+57
          2046.92060	         6.16030e+57
          2047.72690	         6.55063e+57
          2048.53320	         7.60046e+57
          2049.33950	         5.20501e+57
          2050.14580	         6.44275e+57
          2050.95210	         5.56122e+57
          2051.75840	         7.45582e+57
          2052.56470	         4.45289e+57
          2053.37100	         2.86593e+57
          2054.17730	         5.39944e+57
          2054.98360	         6.99337e+57
          2055.78990	         5.39440e+57
          2056.59620	         4.00401e+57
          2057.40250	         5.73216e+57
          2058.20880	         7.40930e+57
          2059.01510	         6.78553e+57
          2059.82140	         6.02765e+57
          2060.62770	         9.04400e+57
          2061.43400	         1.47775e+58
          2062.24030	         1.09869e+58
          2063.04660	         3.47154e+57
          2063.85290	         6.70791e+56
          2064.65920	        -1.24726e+57
          2065.46550	        -8.19492e+57
          2066.27180	        -8.77376e+57
          2067.07810	         1.73282e+57
          2067.88440	         4.30312e+57
          2068.69070	         6.61581e+57
          2069.49700	         6.33273e+57
          2070.30330	         5.22371e+57
          2071.10960	         5.81108e+57
          2071.91590	         6.26329e+57
          2072.72220	         5.07808e+57
          2073.52850	         3.66971e+57
          2074.33480	         3.78303e+57
          2075.14110	         4.81982e+57
          2075.94740	         3.68687e+57
          2076.75370	         3.90423e+57
          2077.56000	         4.21803e+57
          2078.36630	         5.53047e+57
          2079.17260	         5.54860e+57
          2079.97890	         5.65096e+57
          2080.78520	         6.30041e+57
          2081.59150	         4.83982e+57
          2082.39780	         4.31537e+57
          2083.20410	         2.72888e+57
          2084.01040	         2.21242e+57
          2084.81670	         4.64459e+57
          2085.62300	         3.34764e+57
          2086.42930	         4.05058e+57
          2087.23560	         3.07316e+57
          2088.04190	         3.64191e+57
          2088.84820	         3.56030e+57
          2089.65450	         2.56479e+57
          2090.46080	         8.45638e+56
          2091.26710	         1.33562e+57
          2092.07340	         1.56149e+57
          2092.87970	         1.66127e+57
          2093.68600	        -8.70188e+56
          2094.49230	        -2.66376e+55
          2095.29860	         1.90305e+57
          2096.10490	         2.30444e+57
          2096.91120	         1.14603e+57
          2097.71750	         3.21769e+56
          2098.52380	         8.81985e+56
          2099.33010	         4.29346e+56
          2100.13640	         2.97290e+57
          2100.94270	         1.37527e+57
          2101.74900	         3.01267e+57
          2102.55530	         4.15079e+57
          2103.36160	         1.70396e+57
          2104.16790	         1.08385e+57
          2104.97420	         9.28635e+56
          2105.78050	        -5.95624e+56
          2106.58680	        -4.74991e+56
          2107.39310	        -2.15310e+57
          2108.19940	        -1.84766e+57
          2109.00570	        -1.74325e+57
          2109.81200	        -4.11067e+56
          2110.61830	         1.59559e+57
          2111.42460	         1.18109e+57
          2112.23090	         2.27853e+57
          2113.03720	        -6.29003e+56
          2113.84350	         3.82197e+56
          2114.64980	         5.59569e+56
          2115.45610	        -1.86069e+57
          2116.26240	        -1.25775e+57
          2117.06870	         1.47720e+57
          2117.87500	         9.30978e+56
          2118.68130	        -3.02416e+57
          2119.48760	        -1.48398e+57
          2120.29390	        -5.88986e+56
          2121.10020	        -2.20965e+56
          2121.90650	        -1.21381e+57
          2122.71280	         1.73037e+57
          2123.51910	         5.19109e+57
          2124.32540	         3.00842e+57
          2125.13170	        -2.10639e+57
          2125.93800	        -4.43748e+57
          2126.74430	        -2.01574e+57
          2127.55060	        -5.00072e+57
          2128.35690	        -3.92507e+57
          2129.16320	         1.35082e+57
          2129.96950	        -5.48024e+56
          2130.77580	         2.70601e+57
          2131.58210	         5.36598e+57
          2132.38840	        -1.62920e+57
          2133.19470	        -4.43251e+57
          2134.00100	        -7.69331e+56
          2134.80730	        -8.13054e+57
          2135.61360	        -4.58549e+57
          2136.41990	         1.88344e+57
          2137.22620	         4.75367e+57
          2138.03250	        -3.27476e+57
          2138.83880	        -3.85836e+57
          2139.64510	         6.25486e+57
          2140.45140	        -6.00973e+57
          2141.25770	        -1.09555e+58
          2142.06400	        -4.62219e+57
          2142.87030	        -6.58185e+57
          2143.67660	        -1.19744e+56
          2144.48290	         1.47233e+57
          2145.28920	         1.29062e+57
          2146.09550	        -1.59794e+58
          2146.90180	        -1.43357e+58
          2147.70810	        -5.78956e+57
          2148.51440	        -4.10041e+57
          2149.32070	        -9.73341e+57
          2150.12700	        -5.91741e+57
          2150.93330	         2.55329e+57
          2151.73960	        -6.49142e+57
          2152.54590	        -4.13748e+57
          2153.35220	        -2.02421e+57
          2154.15850	         2.21632e+56
          2154.96480	        -1.29859e+57
          2155.77110	        -2.38633e+57
          2156.57740	        -1.22953e+58
          2157.38370	        -1.17430e+57
          2158.19000	        -8.06869e+57
          2158.99630	        -7.14462e+57
          2159.80260	        -1.46152e+58
          2160.60890	        -5.08709e+57
          2161.41520	        -3.43156e+57
          2162.22150	         2.76404e+57
          2163.02780	         2.46823e+57
          2163.83410	        -2.35873e+56
          2164.64040	        -1.19800e+58
          2165.44670	        -1.20948e+58
          2166.25300	        -1.04707e+58
          2167.05930	        -1.10281e+58
          2167.86560	         1.38437e+57
          2168.67190	        -3.90587e+57
          2169.47820	        -5.58496e+57
          2170.28450	         3.79387e+57
          2171.09080	         5.98436e+57
          2171.89710	        -5.87909e+56
          2172.70340	         3.68721e+57
          2173.50970	        -3.86207e+57
          2174.31600	        -3.06139e+56
          2175.12230	         2.05495e+55
          2175.92860	        -4.08027e+57
          2176.73490	        -9.02912e+57
          2177.54120	        -7.43971e+57
          2178.34750	        -2.65693e+57
          2179.15380	                 nan
          2179.96010	                 nan
          2180.76640	                 nan
          2181.57270	                 nan
          2182.37900	                 nan
          2183.18530	                 nan
          2183.99160	                 nan
          2184.79790	                 nan
          2185.60420	                 nan
          2186.41050	                 nan
          2187.21680	                 nan
          2188.02310	                 nan
          2188.82940	                 nan
          2189.63570	                 nan
          2190.44200	                 nan
          2191.24830	                 nan
          2192.05460	                 nan
          2192.86090	                 nan
          2193.66720	                 nan
          2194.47350	                 nan
          2195.27980	                 nan
          2196.08610	                 nan
          2196.89240	                 nan
          2197.69870	                 nan
          2198.50500	                 nan
          2199.31130	                 nan
          2200.11760	                 nan
          2200.92390	                 nan
          2201.73020	                 nan
          2202.53650	                 nan
          2203.34280	                 nan
          2204.14910	                 nan
          2204.95540	                 nan
          2205.76170	                 nan
          2206.56800	                 nan
          2207.37430	                 nan
          2208.18060	                 nan
          2208.98690	                 nan
          2209.79320	                 nan
          2210.59950	                 nan
          2211.40580	                 nan
          2212.21210	                 nan
          2213.01840	                 nan
          2213.82470	                 nan
          2214.63100	                 nan
          2215.43730	         0.00000e+00
