#sample_69_stacked_spectrum_rest_UV-bands_median_H-alpha_noDC.txt
#median Lum: 1.65581e+42
#Rest-frame wavelength (A) | Luminosity (erg/s/A)
#
          1110.00000	         0.00000e+00
          1110.80630	        -1.14401e+59
          1111.61260	        -9.45325e+58
          1112.41890	         6.02319e+58
          1113.22520	         6.13587e+58
          1114.03150	         3.62512e+58
          1114.83780	         2.77325e+59
          1115.64410	        -8.37546e+57
          1116.45040	         8.06841e+58
          1117.25670	         3.55881e+58
          1118.06300	         1.16732e+58
          1118.86930	        -1.22405e+58
          1119.67560	         9.46934e+58
          1120.48190	        -3.37175e+58
          1121.28820	        -1.30943e+59
          1122.09450	         7.27221e+58
          1122.90080	         6.13990e+58
          1123.70710	         8.80571e+58
          1124.51340	         5.50519e+58
          1125.31970	        -1.30878e+58
          1126.12600	         8.26614e+57
          1126.93230	        -2.59248e+58
          1127.73860	        -4.66577e+58
          1128.54490	         1.52940e+58
          1129.35120	        -1.74204e+58
          1130.15750	        -5.98705e+57
          1130.96380	        -1.99266e+58
          1131.77010	         4.50353e+58
          1132.57640	         4.97805e+58
          1133.38270	         5.54640e+57
          1134.18900	         1.49096e+58
          1134.99530	        -1.00481e+58
          1135.80160	         1.78253e+58
          1136.60790	         3.48357e+58
          1137.41420	         4.03473e+57
          1138.22050	         3.99429e+58
          1139.02680	         3.08511e+58
          1139.83310	         2.74991e+58
          1140.63940	         2.29438e+58
          1141.44570	        -3.10807e+58
          1142.25200	        -5.67564e+57
          1143.05830	         1.39740e+58
          1143.86460	         4.63231e+57
          1144.67090	         2.09531e+58
          1145.47720	         6.29655e+57
          1146.28350	         1.38923e+57
          1147.08980	         1.13218e+58
          1147.89610	         1.68652e+58
          1148.70240	         2.28112e+58
          1149.50870	         3.23967e+58
          1150.31500	         9.00088e+57
          1151.12130	         6.57177e+57
          1151.92760	         5.20645e+56
          1152.73390	         7.88051e+57
          1153.54020	         5.87965e+57
          1154.34650	         1.77664e+58
          1155.15280	         2.69229e+58
          1155.95910	         8.44185e+57
          1156.76540	         9.04848e+57
          1157.57170	         8.07841e+57
          1158.37800	         2.11066e+57
          1159.18430	        -1.76217e+57
          1159.99060	         2.95201e+57
          1160.79690	         9.08092e+57
          1161.60320	         1.72892e+58
          1162.40950	         7.92280e+57
          1163.21580	         2.29945e+57
          1164.02210	         9.69751e+57
          1164.82840	         3.85806e+57
          1165.63470	         2.02116e+58
          1166.44100	         3.21732e+58
          1167.24730	         2.21512e+58
          1168.05360	         5.01497e+57
          1168.85990	         1.21954e+58
          1169.66620	         7.37095e+57
          1170.47250	         6.22607e+57
          1171.27880	         9.75373e+57
          1172.08510	         2.03613e+58
          1172.89140	         1.42232e+58
          1173.69770	         3.34605e+57
          1174.50400	         7.98672e+57
          1175.31030	         1.59319e+58
          1176.11660	         2.18826e+58
          1176.92290	         1.45772e+58
          1177.72920	         1.43859e+58
          1178.53550	         1.21721e+58
          1179.34180	         4.69420e+57
          1180.14810	         8.25363e+57
          1180.95440	         9.55214e+57
          1181.76070	         8.24283e+57
          1182.56700	         5.65913e+57
          1183.37330	         7.57324e+57
          1184.17960	         1.26101e+58
          1184.98590	         6.16007e+57
          1185.79220	         7.35191e+57
          1186.59850	         1.57744e+58
          1187.40480	         1.05624e+58
          1188.21110	         1.30300e+58
          1189.01740	         9.56976e+57
          1189.82370	         7.33450e+57
          1190.63000	         7.17371e+57
          1191.43630	         1.19135e+58
          1192.24260	         1.04146e+58
          1193.04890	         1.38511e+58
          1193.85520	         9.68379e+57
          1194.66150	        -5.81113e+56
          1195.46780	         6.94054e+57
          1196.27410	         1.42628e+58
          1197.08040	         9.62891e+57
          1197.88670	         1.29588e+58
          1198.69300	         1.50685e+58
          1199.49930	         1.43784e+58
          1200.30560	         1.28858e+58
          1201.11190	         1.38042e+58
          1201.91820	         1.05279e+58
          1202.72450	         9.24053e+57
          1203.53080	         1.47301e+58
          1204.33710	         1.00267e+58
          1205.14340	         8.17713e+57
          1205.94970	         6.81838e+57
          1206.75600	         5.64031e+57
          1207.56230	         1.30601e+57
          1208.36860	         6.89926e+57
          1209.17490	         4.59263e+57
          1209.98120	         5.32806e+57
          1210.78750	         4.52851e+57
          1211.59380	         1.26299e+58
          1212.40010	         1.59437e+58
          1213.20640	         1.73626e+58
          1214.01270	         2.07445e+58
          1214.81900	         2.85645e+58
          1215.62530	         4.76762e+58
          1216.43160	         9.16631e+58
          1217.23790	         1.52937e+59
          1218.04420	         1.16034e+59
          1218.85050	         9.07549e+58
          1219.65680	         6.15015e+58
          1220.46310	         3.42878e+58
          1221.26940	         2.26041e+58
          1222.07570	         1.62024e+58
          1222.88200	         1.59137e+58
          1223.68830	         1.33984e+58
          1224.49460	         6.68392e+57
          1225.30090	         3.75727e+57
          1226.10720	         4.91415e+57
          1226.91350	         8.66352e+57
          1227.71980	         8.19694e+57
          1228.52610	         1.07703e+58
          1229.33240	         6.85395e+57
          1230.13870	         4.98892e+57
          1230.94500	         8.75272e+57
          1231.75130	         6.12715e+57
          1232.55760	         8.03442e+57
          1233.36390	         8.40933e+57
          1234.17020	         8.66567e+57
          1234.97650	         7.96321e+57
          1235.78280	         8.12097e+57
          1236.58910	         9.37505e+57
          1237.39540	         9.20024e+57
          1238.20170	         8.51556e+57
          1239.00800	         1.18453e+58
          1239.81430	         1.42342e+58
          1240.62060	         1.03889e+58
          1241.42690	         1.17441e+58
          1242.23320	         1.22304e+58
          1243.03950	         6.26595e+57
          1243.84580	         6.88095e+57
          1244.65210	         1.05743e+58
          1245.45840	         1.01243e+58
          1246.26470	         9.30182e+57
          1247.07100	         7.89744e+57
          1247.87730	         8.51263e+57
          1248.68360	         4.19922e+57
          1249.48990	         8.06985e+57
          1250.29620	         1.28925e+58
          1251.10250	         9.56670e+57
          1251.90880	         5.78916e+57
          1252.71510	         5.39316e+57
          1253.52140	         7.11891e+57
          1254.32770	         9.91038e+57
          1255.13400	         1.29473e+58
          1255.94030	         1.01913e+58
          1256.74660	         9.82918e+57
          1257.55290	         9.98564e+57
          1258.35920	         6.93614e+57
          1259.16550	         4.94990e+57
          1259.97180	         4.55904e+57
          1260.77810	         1.04741e+58
          1261.58440	         1.44825e+58
          1262.39070	         1.08099e+58
          1263.19700	         8.90212e+57
          1264.00330	         9.92465e+57
          1264.80960	         1.20201e+58
          1265.61590	         1.25092e+58
          1266.42220	         1.25274e+58
          1267.22850	         1.24253e+58
          1268.03480	         1.52589e+58
          1268.84110	         1.56541e+58
          1269.64740	         1.35569e+58
          1270.45370	         1.36912e+58
          1271.26000	         1.17229e+58
          1272.06630	         1.20678e+58
          1272.87260	         1.26030e+58
          1273.67890	         1.24264e+58
          1274.48520	         1.27473e+58
          1275.29150	         1.20475e+58
          1276.09780	         1.06962e+58
          1276.90410	         1.29498e+58
          1277.71040	         1.21143e+58
          1278.51670	         1.17646e+58
          1279.32300	         1.40813e+58
          1280.12930	         1.24646e+58
          1280.93560	         1.09478e+58
          1281.74190	         1.19896e+58
          1282.54820	         1.25721e+58
          1283.35450	         1.30264e+58
          1284.16080	         1.32164e+58
          1284.96710	         1.22759e+58
          1285.77340	         1.06555e+58
          1286.57970	         1.13942e+58
          1287.38600	         1.51949e+58
          1288.19230	         1.85326e+58
          1288.99860	         1.61672e+58
          1289.80490	         1.12801e+58
          1290.61120	         1.22033e+58
          1291.41750	         1.43674e+58
          1292.22380	         1.32199e+58
          1293.03010	         1.22192e+58
          1293.83640	         1.11919e+58
          1294.64270	         1.03576e+58
          1295.44900	         7.74929e+57
          1296.25530	         7.21710e+57
          1297.06160	         9.29768e+57
          1297.86790	         1.00638e+58
          1298.67420	         9.97434e+57
          1299.48050	         1.11342e+58
          1300.28680	         1.19237e+58
          1301.09310	         8.95199e+57
          1301.89940	         4.39417e+57
          1302.70570	         6.32821e+57
          1303.51200	         7.72004e+57
          1304.31830	         9.31171e+57
          1305.12460	         1.07199e+58
          1305.93090	         1.21617e+58
          1306.73720	         1.40518e+58
          1307.54350	         1.48989e+58
          1308.34980	         1.53194e+58
          1309.15610	         1.65284e+58
          1309.96240	         1.63660e+58
          1310.76870	         1.41482e+58
          1311.57500	         1.37389e+58
          1312.38130	         1.31259e+58
          1313.18760	         1.45112e+58
          1313.99390	         1.54631e+58
          1314.80020	         1.59530e+58
          1315.60650	         1.50528e+58
          1316.41280	         1.32303e+58
          1317.21910	         1.25360e+58
          1318.02540	         1.28506e+58
          1318.83170	         1.41229e+58
          1319.63800	         1.23766e+58
          1320.44430	         1.16453e+58
          1321.25060	         1.28255e+58
          1322.05690	         1.23342e+58
          1322.86320	         1.23359e+58
          1323.66950	         1.11901e+58
          1324.47580	         9.49279e+57
          1325.28210	         1.02403e+58
          1326.08840	         1.22099e+58
          1326.89470	         1.23973e+58
          1327.70100	         9.19985e+57
          1328.50730	         6.71456e+57
          1329.31360	         9.20814e+57
          1330.11990	         9.47200e+57
          1330.92620	         8.85411e+57
          1331.73250	         1.09066e+58
          1332.53880	         1.15502e+58
          1333.34510	         9.35297e+57
          1334.15140	         7.73295e+57
          1334.95770	         7.75914e+57
          1335.76400	         9.13361e+57
          1336.57030	         9.89208e+57
          1337.37660	         1.11226e+58
          1338.18290	         1.28947e+58
          1338.98920	         1.23531e+58
          1339.79550	         1.20449e+58
          1340.60180	         1.14815e+58
          1341.40810	         1.27930e+58
          1342.21440	         1.24493e+58
          1343.02070	         1.22734e+58
          1343.82700	         1.47277e+58
          1344.63330	         1.42126e+58
          1345.43960	         1.28982e+58
          1346.24590	         1.08795e+58
          1347.05220	         1.06091e+58
          1347.85850	         1.03814e+58
          1348.66480	         1.07555e+58
          1349.47110	         1.15447e+58
          1350.27740	         1.02318e+58
          1351.08370	         1.01035e+58
          1351.89000	         9.34275e+57
          1352.69630	         9.67959e+57
          1353.50260	         1.13735e+58
          1354.30890	         1.13099e+58
          1355.11520	         1.12048e+58
          1355.92150	         1.05945e+58
          1356.72780	         1.05879e+58
          1357.53410	         1.05969e+58
          1358.34040	         1.12934e+58
          1359.14670	         1.07185e+58
          1359.95300	         1.06196e+58
          1360.75930	         1.10185e+58
          1361.56560	         1.04690e+58
          1362.37190	         1.13801e+58
          1363.17820	         1.15315e+58
          1363.98450	         1.17621e+58
          1364.79080	         1.32756e+58
          1365.59710	         1.42493e+58
          1366.40340	         1.25531e+58
          1367.20970	         1.01127e+58
          1368.01600	         9.85444e+57
          1368.82230	         9.90933e+57
          1369.62860	         1.08539e+58
          1370.43490	         9.33609e+57
          1371.24120	         9.69699e+57
          1372.04750	         8.93383e+57
          1372.85380	         1.00104e+58
          1373.66010	         1.19080e+58
          1374.46640	         1.07753e+58
          1375.27270	         1.10011e+58
          1376.07900	         1.01121e+58
          1376.88530	         8.60997e+57
          1377.69160	         8.35463e+57
          1378.49790	         7.63270e+57
          1379.30420	         8.69151e+57
          1380.11050	         1.01698e+58
          1380.91680	         9.48629e+57
          1381.72310	         9.23008e+57
          1382.52940	         8.75873e+57
          1383.33570	         7.56034e+57
          1384.14200	         9.49383e+57
          1384.94830	         1.12720e+58
          1385.75460	         9.25525e+57
          1386.56090	         1.01360e+58
          1387.36720	         1.05301e+58
          1388.17350	         1.13519e+58
          1388.97980	         1.10155e+58
          1389.78610	         9.63699e+57
          1390.59240	         7.83361e+57
          1391.39870	         6.95226e+57
          1392.20500	         9.16048e+57
          1393.01130	         7.82489e+57
          1393.81760	         6.43485e+57
          1394.62390	         6.83717e+57
          1395.43020	         5.04007e+57
          1396.23650	         5.76136e+57
          1397.04280	         7.29137e+57
          1397.84910	         8.67890e+57
          1398.65540	         1.10226e+58
          1399.46170	         1.02999e+58
          1400.26800	         9.01801e+57
          1401.07430	         8.53335e+57
          1401.88060	         8.87172e+57
          1402.68690	         1.00315e+58
          1403.49320	         1.03979e+58
          1404.29950	         9.10520e+57
          1405.10580	         1.06960e+58
          1405.91210	         1.10082e+58
          1406.71840	         1.15923e+58
          1407.52470	         1.05911e+58
          1408.33100	         9.82559e+57
          1409.13730	         1.17723e+58
          1409.94360	         1.26272e+58
          1410.74990	         1.22257e+58
          1411.55620	         1.09802e+58
          1412.36250	         8.56697e+57
          1413.16880	         7.26123e+57
          1413.97510	         7.79505e+57
          1414.78140	         9.45493e+57
          1415.58770	         1.07425e+58
          1416.39400	         9.81417e+57
          1417.20030	         9.50596e+57
          1418.00660	         1.02168e+58
          1418.81290	         1.09220e+58
          1419.61920	         1.03678e+58
          1420.42550	         1.23049e+58
          1421.23180	         1.34222e+58
          1422.03810	         1.23279e+58
          1422.84440	         1.15273e+58
          1423.65070	         1.34423e+58
          1424.45700	         1.21738e+58
          1425.26330	         8.83500e+57
          1426.06960	         8.46693e+57
          1426.87590	         9.58777e+57
          1427.68220	         1.03033e+58
          1428.48850	         1.09419e+58
          1429.29480	         1.01777e+58
          1430.10110	         9.18080e+57
          1430.90740	         8.53579e+57
          1431.71370	         9.91885e+57
          1432.52000	         1.02658e+58
          1433.32630	         8.07909e+57
          1434.13260	         7.64080e+57
          1434.93890	         7.63018e+57
          1435.74520	         8.38632e+57
          1436.55150	         8.84371e+57
          1437.35780	         9.39170e+57
          1438.16410	         1.01083e+58
          1438.97040	         9.77828e+57
          1439.77670	         8.92184e+57
          1440.58300	         8.91564e+57
          1441.38930	         9.00209e+57
          1442.19560	         9.19180e+57
          1443.00190	         8.98274e+57
          1443.80820	         1.04534e+58
          1444.61450	         8.79268e+57
          1445.42080	         8.02390e+57
          1446.22710	         1.09715e+58
          1447.03340	         1.14780e+58
          1447.83970	         1.01717e+58
          1448.64600	         1.04953e+58
          1449.45230	         1.11815e+58
          1450.25860	         1.02571e+58
          1451.06490	         8.66551e+57
          1451.87120	         7.30827e+57
          1452.67750	         7.78395e+57
          1453.48380	         8.49383e+57
          1454.29010	         8.16684e+57
          1455.09640	         7.83126e+57
          1455.90270	         8.95942e+57
          1456.70900	         7.78772e+57
          1457.51530	         8.48204e+57
          1458.32160	         1.16858e+58
          1459.12790	         1.17227e+58
          1459.93420	         1.04064e+58
          1460.74050	         8.80853e+57
          1461.54680	         8.45474e+57
          1462.35310	         7.77353e+57
          1463.15940	         9.72329e+57
          1463.96570	         1.03261e+58
          1464.77200	         1.10715e+58
          1465.57830	         1.01925e+58
          1466.38460	         9.41447e+57
          1467.19090	         9.70544e+57
          1467.99720	         9.48437e+57
          1468.80350	         9.91259e+57
          1469.60980	         9.47677e+57
          1470.41610	         1.05756e+58
          1471.22240	         1.14745e+58
          1472.02870	         1.19867e+58
          1472.83500	         9.97976e+57
          1473.64130	         9.80550e+57
          1474.44760	         9.73668e+57
          1475.25390	         9.45905e+57
          1476.06020	         8.86072e+57
          1476.86650	         8.30336e+57
          1477.67280	         7.79734e+57
          1478.47910	         6.86655e+57
          1479.28540	         6.96117e+57
          1480.09170	         8.59051e+57
          1480.89800	         7.63780e+57
          1481.70430	         6.83149e+57
          1482.51060	         7.34262e+57
          1483.31690	         7.68629e+57
          1484.12320	         8.51734e+57
          1484.92950	         8.02627e+57
          1485.73580	         8.12635e+57
          1486.54210	         8.39184e+57
          1487.34840	         9.16812e+57
          1488.15470	         8.88172e+57
          1488.96100	         8.34915e+57
          1489.76730	         8.84208e+57
          1490.57360	         8.43598e+57
          1491.37990	         7.34429e+57
          1492.18620	         8.38772e+57
          1492.99250	         7.59590e+57
          1493.79880	         7.74466e+57
          1494.60510	         8.99474e+57
          1495.41140	         7.87053e+57
          1496.21770	         8.52866e+57
          1497.02400	         1.07556e+58
          1497.83030	         9.06051e+57
          1498.63660	         7.51969e+57
          1499.44290	         8.14999e+57
          1500.24920	         7.43149e+57
          1501.05550	         7.04252e+57
          1501.86180	         7.81093e+57
          1502.66810	         8.17720e+57
          1503.47440	         8.87814e+57
          1504.28070	         9.20375e+57
          1505.08700	         9.83472e+57
          1505.89330	         1.02217e+58
          1506.69960	         9.20865e+57
          1507.50590	         9.20378e+57
          1508.31220	         8.39169e+57
          1509.11850	         8.47395e+57
          1509.92480	         9.63165e+57
          1510.73110	         9.96700e+57
          1511.53740	         9.22438e+57
          1512.34370	         8.49508e+57
          1513.15000	         8.85593e+57
          1513.95630	         1.02192e+58
          1514.76260	         1.00253e+58
          1515.56890	         8.69399e+57
          1516.37520	         8.35380e+57
          1517.18150	         7.44106e+57
          1517.98780	         7.14344e+57
          1518.79410	         7.45432e+57
          1519.60040	         7.82713e+57
          1520.40670	         9.04590e+57
          1521.21300	         9.35992e+57
          1522.01930	         9.52677e+57
          1522.82560	         9.45067e+57
          1523.63190	         9.68709e+57
          1524.43820	         8.68812e+57
          1525.24450	         6.76055e+57
          1526.05080	         7.23665e+57
          1526.85710	         7.01253e+57
          1527.66340	         6.24091e+57
          1528.46970	         8.10049e+57
          1529.27600	         7.81209e+57
          1530.08230	         6.99018e+57
          1530.88860	         8.28912e+57
          1531.69490	         9.29070e+57
          1532.50120	         9.85018e+57
          1533.30750	         9.89973e+57
          1534.11380	         9.39241e+57
          1534.92010	         9.73662e+57
          1535.72640	         9.69306e+57
          1536.53270	         8.87504e+57
          1537.33900	         7.46386e+57
          1538.14530	         7.88220e+57
          1538.95160	         9.25935e+57
          1539.75790	         8.39978e+57
          1540.56420	         8.94893e+57
          1541.37050	         8.52912e+57
          1542.17680	         7.48999e+57
          1542.98310	         9.18338e+57
          1543.78940	         9.35565e+57
          1544.59570	         7.20239e+57
          1545.40200	         7.27604e+57
          1546.20830	         9.24496e+57
          1547.01460	         1.04735e+58
          1547.82090	         1.12981e+58
          1548.62720	         1.22224e+58
          1549.43350	         1.27074e+58
          1550.23980	         1.18020e+58
          1551.04610	         1.23533e+58
          1551.85240	         1.12783e+58
          1552.65870	         1.09465e+58
          1553.46500	         9.26838e+57
          1554.27130	         8.96537e+57
          1555.07760	         9.86711e+57
          1555.88390	         8.43851e+57
          1556.69020	         8.93046e+57
          1557.49650	         8.91558e+57
          1558.30280	         8.79634e+57
          1559.10910	         8.97122e+57
          1559.91540	         8.09146e+57
          1560.72170	         7.78528e+57
          1561.52800	         8.17878e+57
          1562.33430	         8.17599e+57
          1563.14060	         7.66704e+57
          1563.94690	         7.77511e+57
          1564.75320	         8.22419e+57
          1565.55950	         7.14477e+57
          1566.36580	         7.28922e+57
          1567.17210	         8.86058e+57
          1567.97840	         9.20657e+57
          1568.78470	         9.39863e+57
          1569.59100	         9.61619e+57
          1570.39730	         8.76590e+57
          1571.20360	         7.04800e+57
          1572.00990	         7.33903e+57
          1572.81620	         8.70415e+57
          1573.62250	         1.02546e+58
          1574.42880	         9.38497e+57
          1575.23510	         8.39923e+57
          1576.04140	         9.74432e+57
          1576.84770	         9.49835e+57
          1577.65400	         9.28882e+57
          1578.46030	         1.01939e+58
          1579.26660	         9.73976e+57
          1580.07290	         9.25937e+57
          1580.87920	         8.25718e+57
          1581.68550	         7.83286e+57
          1582.49180	         8.58399e+57
          1583.29810	         7.44455e+57
          1584.10440	         7.66673e+57
          1584.91070	         8.85345e+57
          1585.71700	         8.68607e+57
          1586.52330	         9.06038e+57
          1587.32960	         9.82639e+57
          1588.13590	         9.64574e+57
          1588.94220	         8.61774e+57
          1589.74850	         8.29630e+57
          1590.55480	         8.81080e+57
          1591.36110	         7.78777e+57
          1592.16740	         7.83727e+57
          1592.97370	         8.52149e+57
          1593.78000	         9.15593e+57
          1594.58630	         9.19951e+57
          1595.39260	         8.86473e+57
          1596.19890	         9.52225e+57
          1597.00520	         9.34603e+57
          1597.81150	         9.28833e+57
          1598.61780	         8.13696e+57
          1599.42410	         7.19825e+57
          1600.23040	         7.10294e+57
          1601.03670	         7.74810e+57
          1601.84300	         7.73167e+57
          1602.64930	         9.16054e+57
          1603.45560	         9.74440e+57
          1604.26190	         8.19653e+57
          1605.06820	         7.67425e+57
          1605.87450	         7.42229e+57
          1606.68080	         6.60111e+57
          1607.48710	         5.24860e+57
          1608.29340	         5.59954e+57
          1609.09970	         7.10866e+57
          1609.90600	         6.95011e+57
          1610.71230	         6.38852e+57
          1611.51860	         6.84070e+57
          1612.32490	         5.65185e+57
          1613.13120	         6.86463e+57
          1613.93750	         7.75273e+57
          1614.74380	         7.80020e+57
          1615.55010	         7.74446e+57
          1616.35640	         8.79912e+57
          1617.16270	         1.04203e+58
          1617.96900	         1.09713e+58
          1618.77530	         8.99661e+57
          1619.58160	         8.43527e+57
          1620.38790	         8.36552e+57
          1621.19420	         9.17553e+57
          1622.00050	         8.28339e+57
          1622.80680	         8.19719e+57
          1623.61310	         8.61172e+57
          1624.41940	         7.97488e+57
          1625.22570	         8.80272e+57
          1626.03200	         9.69890e+57
          1626.83830	         8.30954e+57
          1627.64460	         7.25832e+57
          1628.45090	         7.12958e+57
          1629.25720	         8.57284e+57
          1630.06350	         9.07419e+57
          1630.86980	         6.55805e+57
          1631.67610	         7.19830e+57
          1632.48240	         8.55007e+57
          1633.28870	         8.52412e+57
          1634.09500	         9.50882e+57
          1634.90130	         1.18626e+58
          1635.70760	         9.78244e+57
          1636.51390	         8.22552e+57
          1637.32020	         8.80128e+57
          1638.12650	         9.32564e+57
          1638.93280	         9.11724e+57
          1639.73910	         1.02744e+58
          1640.54540	         1.06024e+58
          1641.35170	         9.17375e+57
          1642.15800	         9.12506e+57
          1642.96430	         9.49594e+57
          1643.77060	         9.09756e+57
          1644.57690	         8.27526e+57
          1645.38320	         9.08908e+57
          1646.18950	         7.84209e+57
          1646.99580	         8.56403e+57
          1647.80210	         8.31445e+57
          1648.60840	         8.26386e+57
          1649.41470	         8.85548e+57
          1650.22100	         7.25430e+57
          1651.02730	         7.25642e+57
          1651.83360	         7.34218e+57
          1652.63990	         7.94447e+57
          1653.44620	         8.56129e+57
          1654.25250	         7.74702e+57
          1655.05880	         6.80049e+57
          1655.86510	         7.97591e+57
          1656.67140	         7.82055e+57
          1657.47770	         7.29631e+57
          1658.28400	         8.09951e+57
          1659.09030	         8.96343e+57
          1659.89660	         8.91148e+57
          1660.70290	         9.71485e+57
          1661.50920	         1.01157e+58
          1662.31550	         8.48961e+57
          1663.12180	         7.98988e+57
          1663.92810	         9.77550e+57
          1664.73440	         1.08254e+58
          1665.54070	         1.13263e+58
          1666.34700	         1.20314e+58
          1667.15330	         1.13616e+58
          1667.95960	         9.10378e+57
          1668.76590	         7.73252e+57
          1669.57220	         7.19667e+57
          1670.37850	         7.87030e+57
          1671.18480	         8.33686e+57
          1671.99110	         8.28969e+57
          1672.79740	         7.53380e+57
          1673.60370	         7.13223e+57
          1674.41000	         7.68602e+57
          1675.21630	         7.03181e+57
          1676.02260	         6.94039e+57
          1676.82890	         6.36680e+57
          1677.63520	         6.81608e+57
          1678.44150	         8.31525e+57
          1679.24780	         8.67834e+57
          1680.05410	         7.42489e+57
          1680.86040	         6.42140e+57
          1681.66670	         7.11407e+57
          1682.47300	         7.56435e+57
          1683.27930	         7.63267e+57
          1684.08560	         8.35681e+57
          1684.89190	         8.12595e+57
          1685.69820	         6.12149e+57
          1686.50450	         5.71200e+57
          1687.31080	         7.27632e+57
          1688.11710	         7.39360e+57
          1688.92340	         6.02973e+57
          1689.72970	         6.54250e+57
          1690.53600	         7.21359e+57
          1691.34230	         7.66922e+57
          1692.14860	         9.03463e+57
          1692.95490	         8.67891e+57
          1693.76120	         6.87409e+57
          1694.56750	         6.80127e+57
          1695.37380	         8.38287e+57
          1696.18010	         8.60901e+57
          1696.98640	         8.53702e+57
          1697.79270	         8.77405e+57
          1698.59900	         8.48825e+57
          1699.40530	         7.23238e+57
          1700.21160	         8.07906e+57
          1701.01790	         9.44464e+57
          1701.82420	         8.39921e+57
          1702.63050	         7.68837e+57
          1703.43680	         8.14654e+57
          1704.24310	         7.98311e+57
          1705.04940	         9.03614e+57
          1705.85570	         9.45817e+57
          1706.66200	         8.36425e+57
          1707.46830	         7.40436e+57
          1708.27460	         6.22703e+57
          1709.08090	         5.71558e+57
          1709.88720	         5.10957e+57
          1710.69350	         5.21082e+57
          1711.49980	         5.38414e+57
          1712.30610	         6.87701e+57
          1713.11240	         8.20029e+57
          1713.91870	         6.94041e+57
          1714.72500	         7.79121e+57
          1715.53130	         8.76764e+57
          1716.33760	         8.42498e+57
          1717.14390	         7.32933e+57
          1717.95020	         8.51617e+57
          1718.75650	         9.59986e+57
          1719.56280	         8.81443e+57
          1720.36910	         8.39071e+57
          1721.17540	         7.85078e+57
          1721.98170	         6.78831e+57
          1722.78800	         6.05772e+57
          1723.59430	         7.04769e+57
          1724.40060	         8.42943e+57
          1725.20690	         9.13742e+57
          1726.01320	         9.25675e+57
          1726.81950	         7.81709e+57
          1727.62580	         7.65982e+57
          1728.43210	         7.17724e+57
          1729.23840	         7.58315e+57
          1730.04470	         9.12519e+57
          1730.85100	         9.16804e+57
          1731.65730	         8.54228e+57
          1732.46360	         7.80850e+57
          1733.26990	         7.14364e+57
          1734.07620	         6.95253e+57
          1734.88250	         7.57934e+57
          1735.68880	         8.09491e+57
          1736.49510	         7.61644e+57
          1737.30140	         7.56730e+57
          1738.10770	         6.58032e+57
          1738.91400	         7.05987e+57
          1739.72030	         7.79035e+57
          1740.52660	         5.72259e+57
          1741.33290	         4.85579e+57
          1742.13920	         5.70129e+57
          1742.94550	         6.35785e+57
          1743.75180	         6.79310e+57
          1744.55810	         7.22007e+57
          1745.36440	         7.37321e+57
          1746.17070	         5.73644e+57
          1746.97700	         5.72749e+57
          1747.78330	         6.21111e+57
          1748.58960	         5.54656e+57
          1749.39590	         5.55246e+57
          1750.20220	         6.06550e+57
          1751.00850	         6.18979e+57
          1751.81480	         6.54797e+57
          1752.62110	         7.26966e+57
          1753.42740	         7.71291e+57
          1754.23370	         7.42665e+57
          1755.04000	         6.42388e+57
          1755.84630	         7.24259e+57
          1756.65260	         9.22634e+57
          1757.45890	         8.99955e+57
          1758.26520	         6.81326e+57
          1759.07150	         8.85515e+57
          1759.87780	         8.65154e+57
          1760.68410	         8.13327e+57
          1761.49040	         9.34409e+57
          1762.29670	         7.97339e+57
          1763.10300	         6.70984e+57
          1763.90930	         7.88531e+57
          1764.71560	         7.51631e+57
          1765.52190	         7.36012e+57
          1766.32820	         8.43406e+57
          1767.13450	         9.17075e+57
          1767.94080	         8.32811e+57
          1768.74710	         7.76038e+57
          1769.55340	         7.34716e+57
          1770.35970	         6.26142e+57
          1771.16600	         7.58458e+57
          1771.97230	         8.61361e+57
          1772.77860	         8.01130e+57
          1773.58490	         7.88076e+57
          1774.39120	         6.75504e+57
          1775.19750	         6.43926e+57
          1776.00380	         6.90997e+57
          1776.81010	         6.90472e+57
          1777.61640	         6.69324e+57
          1778.42270	         7.73627e+57
          1779.22900	         7.07040e+57
          1780.03530	         5.95298e+57
          1780.84160	         7.13600e+57
          1781.64790	         8.30663e+57
          1782.45420	         7.99094e+57
          1783.26050	         6.88359e+57
          1784.06680	         7.17159e+57
          1784.87310	         7.90802e+57
          1785.67940	         7.46342e+57
          1786.48570	         6.33415e+57
          1787.29200	         5.52941e+57
          1788.09830	         6.41073e+57
          1788.90460	         6.52885e+57
          1789.71090	         5.58033e+57
          1790.51720	         5.61189e+57
          1791.32350	         6.25831e+57
          1792.12980	         8.08695e+57
          1792.93610	         7.74808e+57
          1793.74240	         7.03081e+57
          1794.54870	         7.58978e+57
          1795.35500	         8.38190e+57
          1796.16130	         7.63986e+57
          1796.96760	         7.43545e+57
          1797.77390	         7.28730e+57
          1798.58020	         7.63627e+57
          1799.38650	         7.11928e+57
          1800.19280	         7.07114e+57
          1800.99910	         8.02446e+57
          1801.80540	         6.76692e+57
          1802.61170	         7.11228e+57
          1803.41800	         8.28730e+57
          1804.22430	         7.87196e+57
          1805.03060	         7.28603e+57
          1805.83690	         7.32087e+57
          1806.64320	         8.64048e+57
          1807.44950	         8.27955e+57
          1808.25580	         7.20692e+57
          1809.06210	         7.93418e+57
          1809.86840	         7.10444e+57
          1810.67470	         6.77609e+57
          1811.48100	         7.43448e+57
          1812.28730	         7.60429e+57
          1813.09360	         6.79182e+57
          1813.89990	         6.96402e+57
          1814.70620	         7.23387e+57
          1815.51250	         8.15542e+57
          1816.31880	         7.84504e+57
          1817.12510	         7.08904e+57
          1817.93140	         7.34748e+57
          1818.73770	         8.14674e+57
          1819.54400	         8.84034e+57
          1820.35030	         8.19396e+57
          1821.15660	         4.73140e+57
          1821.96290	         5.20982e+57
          1822.76920	         6.53127e+57
          1823.57550	         7.49568e+57
          1824.38180	         7.40012e+57
          1825.18810	         7.13583e+57
          1825.99440	         8.39034e+57
          1826.80070	         8.11942e+57
          1827.60700	         6.76967e+57
          1828.41330	         5.28563e+57
          1829.21960	         6.29450e+57
          1830.02590	         6.79941e+57
          1830.83220	         7.27546e+57
          1831.63850	         6.81389e+57
          1832.44480	         7.39064e+57
          1833.25110	         8.33551e+57
          1834.05740	         8.13007e+57
          1834.86370	         6.95035e+57
          1835.67000	         6.07492e+57
          1836.47630	         7.76436e+57
          1837.28260	         9.02909e+57
          1838.08890	         8.08549e+57
          1838.89520	         7.85473e+57
          1839.70150	         7.07926e+57
          1840.50780	         7.05048e+57
          1841.31410	         7.15119e+57
          1842.12040	         6.96814e+57
          1842.92670	         6.74722e+57
          1843.73300	         7.23554e+57
          1844.53930	         6.95920e+57
          1845.34560	         6.81720e+57
          1846.15190	         6.95034e+57
          1846.95820	         7.45731e+57
          1847.76450	         7.50860e+57
          1848.57080	         5.64048e+57
          1849.37710	         6.40582e+57
          1850.18340	         7.98348e+57
          1850.98970	         9.14102e+57
          1851.79600	         8.80419e+57
          1852.60230	         7.04271e+57
          1853.40860	         7.38957e+57
          1854.21490	         7.06581e+57
          1855.02120	         6.06620e+57
          1855.82750	         4.29152e+57
          1856.63380	         5.48663e+57
          1857.44010	         7.61808e+57
          1858.24640	         6.98192e+57
          1859.05270	         7.44033e+57
          1859.85900	         6.49705e+57
          1860.66530	         6.44437e+57
          1861.47160	         7.16916e+57
          1862.27790	         7.70363e+57
          1863.08420	         7.70864e+57
          1863.89050	         8.46913e+57
          1864.69680	         7.88370e+57
          1865.50310	         8.00173e+57
          1866.30940	         6.37530e+57
          1867.11570	         5.75341e+57
          1867.92200	         7.24746e+57
          1868.72830	         7.80907e+57
          1869.53460	         7.34224e+57
          1870.34090	         7.27811e+57
          1871.14720	         7.56476e+57
          1871.95350	         8.07359e+57
          1872.75980	         7.28802e+57
          1873.56610	         7.14660e+57
          1874.37240	         6.03860e+57
          1875.17870	         5.75491e+57
          1875.98500	         7.34573e+57
          1876.79130	         7.69380e+57
          1877.59760	         6.59322e+57
          1878.40390	         5.96188e+57
          1879.21020	         5.97824e+57
          1880.01650	         6.49591e+57
          1880.82280	         7.24262e+57
          1881.62910	         9.10548e+57
          1882.43540	         1.04519e+58
          1883.24170	         9.30498e+57
          1884.04800	         7.24014e+57
          1884.85430	         7.37466e+57
          1885.66060	         8.00592e+57
          1886.46690	         8.12542e+57
          1887.27320	         7.61513e+57
          1888.07950	         5.42830e+57
          1888.88580	         6.02587e+57
          1889.69210	         8.15657e+57
          1890.49840	         8.44169e+57
          1891.30470	         8.50100e+57
          1892.11100	         7.83369e+57
          1892.91730	         7.45953e+57
          1893.72360	         7.13222e+57
          1894.52990	         7.22404e+57
          1895.33620	         7.94943e+57
          1896.14250	         6.62947e+57
          1896.94880	         7.18531e+57
          1897.75510	         4.92689e+57
          1898.56140	         5.31590e+57
          1899.36770	         7.46128e+57
          1900.17400	         7.00409e+57
          1900.98030	         6.52783e+57
          1901.78660	         7.51252e+57
          1902.59290	         7.61358e+57
          1903.39920	         7.80686e+57
          1904.20550	         8.60210e+57
          1905.01180	         8.45764e+57
          1905.81810	         1.02509e+58
          1906.62440	         1.21777e+58
          1907.43070	         1.36687e+58
          1908.23700	         1.60709e+58
          1909.04330	         1.30765e+58
          1909.84960	         1.13594e+58
          1910.65590	         9.98224e+57
          1911.46220	         8.81077e+57
          1912.26850	         6.98268e+57
          1913.07480	         5.22652e+57
          1913.88110	         5.08114e+57
          1914.68740	         6.26662e+57
          1915.49370	         6.37401e+57
          1916.30000	         6.73293e+57
          1917.10630	         7.07473e+57
          1917.91260	         7.02965e+57
          1918.71890	         7.01493e+57
          1919.52520	         6.26394e+57
          1920.33150	         5.85068e+57
          1921.13780	         6.48424e+57
          1921.94410	         7.89011e+57
          1922.75040	         7.65857e+57
          1923.55670	         7.59818e+57
          1924.36300	         7.28507e+57
          1925.16930	         5.38094e+57
          1925.97560	         4.86042e+57
          1926.78190	         5.13361e+57
          1927.58820	         6.60942e+57
          1928.39450	         5.95657e+57
          1929.20080	         5.37560e+57
          1930.00710	         6.47094e+57
          1930.81340	         7.18241e+57
          1931.61970	         6.88797e+57
          1932.42600	         7.24829e+57
          1933.23230	         7.35967e+57
          1934.03860	         5.93369e+57
          1934.84490	         5.79697e+57
          1935.65120	         7.43746e+57
          1936.45750	         8.16480e+57
          1937.26380	         7.10105e+57
          1938.07010	         8.28297e+57
          1938.87640	         7.51020e+57
          1939.68270	         7.73190e+57
          1940.48900	         8.27406e+57
          1941.29530	         8.43349e+57
          1942.10160	         8.51100e+57
          1942.90790	         7.52012e+57
          1943.71420	         7.10750e+57
          1944.52050	         5.72289e+57
          1945.32680	         5.98689e+57
          1946.13310	         7.56247e+57
          1946.93940	         8.35208e+57
          1947.74570	         8.42656e+57
          1948.55200	         6.94069e+57
          1949.35830	         6.43555e+57
          1950.16460	         5.16132e+57
          1950.97090	         5.25747e+57
          1951.77720	         6.12486e+57
          1952.58350	         7.35619e+57
          1953.38980	         5.70101e+57
          1954.19610	         4.26498e+57
          1955.00240	         4.78913e+57
          1955.80870	         5.95965e+57
          1956.61500	         5.92972e+57
          1957.42130	         5.34941e+57
          1958.22760	         6.64448e+57
          1959.03390	         7.05084e+57
          1959.84020	         6.63382e+57
          1960.64650	         7.22258e+57
          1961.45280	         6.40322e+57
          1962.25910	         6.29751e+57
          1963.06540	         6.26377e+57
          1963.87170	         5.53044e+57
          1964.67800	         6.51430e+57
          1965.48430	         6.66064e+57
          1966.29060	         6.52031e+57
          1967.09690	         7.85150e+57
          1967.90320	         6.89763e+57
          1968.70950	         5.39982e+57
          1969.51580	         6.39061e+57
          1970.32210	         6.88588e+57
          1971.12840	         7.13207e+57
          1971.93470	         5.08618e+57
          1972.74100	         5.34718e+57
          1973.54730	         6.15210e+57
          1974.35360	         6.66864e+57
          1975.15990	         7.38746e+57
          1975.96620	         6.13422e+57
          1976.77250	         7.58054e+57
          1977.57880	         7.52746e+57
          1978.38510	         6.61129e+57
          1979.19140	         6.82389e+57
          1979.99770	         7.00064e+57
          1980.80400	         6.87514e+57
          1981.61030	         6.36649e+57
          1982.41660	         6.00045e+57
          1983.22290	         6.63482e+57
          1984.02920	         6.34991e+57
          1984.83550	         7.20984e+57
          1985.64180	         6.53944e+57
          1986.44810	         6.67142e+57
          1987.25440	         6.33904e+57
          1988.06070	         5.45327e+57
          1988.86700	         7.03874e+57
          1989.67330	         6.83984e+57
          1990.47960	         6.72902e+57
          1991.28590	         7.27961e+57
          1992.09220	         6.81650e+57
          1992.89850	         5.47872e+57
          1993.70480	         5.10587e+57
          1994.51110	         5.50500e+57
          1995.31740	         5.02835e+57
          1996.12370	         5.03279e+57
          1996.93000	         5.68968e+57
          1997.73630	         7.55046e+57
          1998.54260	         7.95846e+57
          1999.34890	         6.76568e+57
          2000.15520	         6.53218e+57
          2000.96150	         7.56297e+57
          2001.76780	         7.23668e+57
          2002.57410	         6.23571e+57
          2003.38040	         6.46774e+57
          2004.18670	         6.32367e+57
          2004.99300	         6.40881e+57
          2005.79930	         6.86095e+57
          2006.60560	         5.82652e+57
          2007.41190	         6.07041e+57
          2008.21820	         6.40623e+57
          2009.02450	         7.64745e+57
          2009.83080	         6.16651e+57
          2010.63710	         5.97096e+57
          2011.44340	         6.87062e+57
          2012.24970	         8.06194e+57
          2013.05600	         6.47492e+57
          2013.86230	         6.64517e+57
          2014.66860	         5.80177e+57
          2015.47490	         6.93851e+57
          2016.28120	         6.01788e+57
          2017.08750	         6.01527e+57
          2017.89380	         6.43440e+57
          2018.70010	         6.33537e+57
          2019.50640	         4.87368e+57
          2020.31270	         5.78320e+57
          2021.11900	         7.45828e+57
          2021.92530	         5.83552e+57
          2022.73160	         6.64174e+57
          2023.53790	         6.20901e+57
          2024.34420	         6.71793e+57
          2025.15050	         5.98735e+57
          2025.95680	         5.44099e+57
          2026.76310	         6.87966e+57
          2027.56940	         6.80268e+57
          2028.37570	         7.43213e+57
          2029.18200	         6.52779e+57
          2029.98830	         6.74858e+57
          2030.79460	         5.71549e+57
          2031.60090	         6.15768e+57
          2032.40720	         6.15967e+57
          2033.21350	         6.14585e+57
          2034.01980	         5.76128e+57
          2034.82610	         4.23457e+57
          2035.63240	         3.93554e+57
          2036.43870	         6.71059e+57
          2037.24500	         6.45830e+57
          2038.05130	         5.92576e+57
          2038.85760	         4.49293e+57
          2039.66390	         5.17311e+57
          2040.47020	         5.62425e+57
          2041.27650	         5.72175e+57
          2042.08280	         5.66262e+57
          2042.88910	         6.56437e+57
          2043.69540	         6.85860e+57
          2044.50170	         7.61301e+57
          2045.30800	         6.22382e+57
          2046.11430	         2.64304e+57
          2046.92060	         4.79327e+57
          2047.72690	         5.88518e+57
          2048.53320	         4.41617e+57
          2049.33950	         2.84319e+57
          2050.14580	         3.54236e+57
          2050.95210	         6.67439e+57
          2051.75840	         7.86257e+57
          2052.56470	         6.52947e+57
          2053.37100	         4.26023e+57
          2054.17730	         3.62741e+57
          2054.98360	         4.74264e+57
          2055.78990	         4.53946e+57
          2056.59620	         3.01181e+57
          2057.40250	         4.62799e+57
          2058.20880	         6.86447e+57
          2059.01510	         7.08367e+57
          2059.82140	         6.86679e+57
          2060.62770	         9.65012e+57
          2061.43400	         1.61406e+58
          2062.24030	         1.02835e+58
          2063.04660	         4.71940e+57
          2063.85290	         2.12730e+57
          2064.65920	        -3.90074e+57
          2065.46550	        -7.79967e+57
          2066.27180	        -8.85866e+57
          2067.07810	         3.91020e+56
          2067.88440	         4.88157e+57
          2068.69070	         7.55325e+57
          2069.49700	         6.64129e+57
          2070.30330	         4.89629e+57
          2071.10960	         5.13900e+57
          2071.91590	         7.51764e+57
          2072.72220	         5.07110e+57
          2073.52850	         5.62202e+57
          2074.33480	         5.56911e+57
          2075.14110	         6.11083e+57
          2075.94740	         5.21225e+57
          2076.75370	         6.01470e+57
          2077.56000	         4.46667e+57
          2078.36630	         3.86786e+57
          2079.17260	         4.04416e+57
          2079.97890	         5.24797e+57
          2080.78520	         5.18647e+57
          2081.59150	         3.91077e+57
          2082.39780	         3.17955e+57
          2083.20410	         2.70102e+57
          2084.01040	         3.22860e+57
          2084.81670	         4.48839e+57
          2085.62300	         3.56701e+57
          2086.42930	         3.47260e+57
          2087.23560	         5.09554e+57
          2088.04190	         3.95415e+57
          2088.84820	         3.00945e+57
          2089.65450	         1.97987e+57
          2090.46080	         2.16583e+57
          2091.26710	         2.77616e+57
          2092.07340	         4.21459e+57
          2092.87970	         4.33530e+57
          2093.68600	        -1.18264e+57
          2094.49230	         3.00952e+57
          2095.29860	         5.08339e+57
          2096.10490	         2.47454e+57
          2096.91120	         8.53774e+56
          2097.71750	         2.38348e+57
          2098.52380	         8.16879e+56
          2099.33010	         9.42254e+56
          2100.13640	         1.36148e+57
          2100.94270	         3.04458e+57
          2101.74900	         4.71191e+57
          2102.55530	         3.65645e+57
          2103.36160	         2.55625e+57
          2104.16790	         3.53093e+57
          2104.97420	         1.55002e+57
          2105.78050	        -1.03358e+57
          2106.58680	        -3.58604e+55
          2107.39310	         5.82049e+56
          2108.19940	         1.70906e+57
          2109.00570	        -7.41970e+56
          2109.81200	        -5.06121e+56
          2110.61830	         2.43294e+57
          2111.42460	         1.96299e+57
          2112.23090	         1.55668e+57
          2113.03720	        -2.43351e+56
          2113.84350	         4.17369e+57
          2114.64980	         4.99439e+57
          2115.45610	        -9.35881e+56
          2116.26240	        -6.28185e+57
          2117.06870	        -1.72575e+57
          2117.87500	        -2.28827e+57
          2118.68130	        -3.62225e+56
          2119.48760	         7.20182e+56
          2120.29390	         2.64422e+55
          2121.10020	        -1.75788e+57
          2121.90650	         4.93484e+56
          2122.71280	         2.09138e+57
          2123.51910	         4.21750e+57
          2124.32540	         4.29991e+56
          2125.13170	        -5.66299e+56
          2125.93800	         6.29588e+55
          2126.74430	        -7.33808e+57
          2127.55060	        -6.11191e+57
          2128.35690	        -1.05458e+57
          2129.16320	        -5.82846e+57
          2129.96950	        -1.16941e+58
          2130.77580	        -5.91654e+57
          2131.58210	        -3.47092e+57
          2132.38840	        -4.07765e+57
          2133.19470	        -4.38013e+57
          2134.00100	        -3.59803e+57
          2134.80730	        -9.65650e+57
          2135.61360	         2.52940e+57
          2136.41990	        -1.44990e+57
          2137.22620	         2.96855e+57
          2138.03250	        -3.98758e+57
          2138.83880	        -7.19909e+57
          2139.64510	        -4.04206e+57
          2140.45140	        -2.70057e+57
          2141.25770	        -1.65446e+58
          2142.06400	        -2.49536e+57
          2142.87030	         3.14293e+57
          2143.67660	         6.83677e+57
          2144.48290	         3.45865e+57
          2145.28920	         1.00166e+57
          2146.09550	        -1.13867e+57
          2146.90180	        -7.39277e+57
          2147.70810	        -7.61411e+57
          2148.51440	        -4.59856e+57
          2149.32070	        -6.32085e+57
          2150.12700	        -1.13818e+58
          2150.93330	        -6.19977e+57
          2151.73960	        -2.48040e+57
          2152.54590	         2.72067e+57
          2153.35220	         1.76996e+57
          2154.15850	         6.30741e+57
          2154.96480	         9.22680e+57
          2155.77110	        -2.94709e+55
          2156.57740	        -1.13658e+58
          2157.38370	         4.38621e+57
          2158.19000	        -7.35995e+57
          2158.99630	        -3.82819e+57
          2159.80260	        -1.55712e+58
          2160.60890	        -4.14363e+57
          2161.41520	        -3.08579e+57
          2162.22150	        -1.93455e+57
          2163.02780	         2.90616e+57
          2163.83410	        -6.78114e+57
          2164.64040	        -8.97285e+57
          2165.44670	        -4.61242e+57
          2166.25300	        -2.61266e+57
          2167.05930	        -1.50505e+57
          2167.86560	        -1.22032e+58
          2168.67190	        -7.80108e+57
          2169.47820	         2.05550e+57
          2170.28450	        -6.86832e+57
          2171.09080	         3.07302e+57
          2171.89710	        -1.81836e+57
          2172.70340	         3.51359e+56
          2173.50970	        -1.06891e+58
          2174.31600	        -4.43702e+57
          2175.12230	         3.44522e+57
          2175.92860	        -1.96039e+57
          2176.73490	        -2.56141e+57
          2177.54120	         8.21908e+56
          2178.34750	        -4.40252e+57
          2179.15380	                 nan
          2179.96010	                 nan
          2180.76640	                 nan
          2181.57270	                 nan
          2182.37900	                 nan
          2183.18530	                 nan
          2183.99160	                 nan
          2184.79790	                 nan
          2185.60420	                 nan
          2186.41050	                 nan
          2187.21680	                 nan
          2188.02310	                 nan
          2188.82940	                 nan
          2189.63570	                 nan
          2190.44200	                 nan
          2191.24830	                 nan
          2192.05460	                 nan
          2192.86090	                 nan
          2193.66720	                 nan
          2194.47350	                 nan
          2195.27980	                 nan
          2196.08610	                 nan
          2196.89240	                 nan
          2197.69870	                 nan
          2198.50500	                 nan
          2199.31130	                 nan
          2200.11760	                 nan
          2200.92390	                 nan
          2201.73020	                 nan
          2202.53650	                 nan
          2203.34280	                 nan
          2204.14910	                 nan
          2204.95540	                 nan
          2205.76170	                 nan
          2206.56800	                 nan
          2207.37430	                 nan
          2208.18060	                 nan
          2208.98690	                 nan
          2209.79320	                 nan
          2210.59950	                 nan
          2211.40580	                 nan
          2212.21210	                 nan
          2213.01840	                 nan
          2213.82470	                 nan
          2214.63100	                 nan
          2215.43730	         0.00000e+00
