#sample_306_stacked_spectrum_rest_UV-bands_median_H-alpha_noDC.txt
#median Lum: 1.66869e+42
#Rest-frame wavelength (A) | Luminosity (erg/s/A)
#
          1110.00000	         0.00000e+00
          1110.80630	         8.08816e+58
          1111.61260	         5.53965e+59
          1112.41890	         4.57416e+59
          1113.22520	         3.52363e+59
          1114.03150	        -7.45726e+58
          1114.83780	         4.72700e+58
          1115.64410	         5.95273e+58
          1116.45040	         5.49720e+58
          1117.25670	         1.39364e+59
          1118.06300	         2.00110e+59
          1118.86930	         1.12866e+58
          1119.67560	         6.22794e+58
          1120.48190	        -1.95196e+58
          1121.28820	         1.78411e+58
          1122.09450	         1.42818e+59
          1122.90080	         4.29570e+58
          1123.70710	         1.14101e+59
          1124.51340	         1.13389e+59
          1125.31970	        -2.42306e+58
          1126.12600	        -3.97156e+58
          1126.93230	        -2.73041e+58
          1127.73860	        -5.73549e+58
          1128.54490	         1.23017e+58
          1129.35120	         1.39668e+58
          1130.15750	        -3.37760e+58
          1130.96380	        -3.90005e+58
          1131.77010	         6.41258e+58
          1132.57640	         5.52757e+58
          1133.38270	         2.99009e+58
          1134.18900	         2.35427e+58
          1134.99530	        -8.07515e+57
          1135.80160	        -3.30526e+57
          1136.60790	         3.29169e+58
          1137.41420	        -9.08368e+57
          1138.22050	         4.22210e+58
          1139.02680	         1.64353e+58
          1139.83310	        -8.58048e+57
          1140.63940	         1.54375e+58
          1141.44570	        -1.43374e+58
          1142.25200	        -5.73756e+57
          1143.05830	         7.87651e+57
          1143.86460	         2.85607e+58
          1144.67090	         1.28115e+58
          1145.47720	         2.11816e+58
          1146.28350	         2.39975e+58
          1147.08980	         1.77038e+58
          1147.89610	         1.51367e+58
          1148.70240	         2.45130e+58
          1149.50870	         3.35792e+58
          1150.31500	         1.92922e+58
          1151.12130	         9.39036e+57
          1151.92760	         8.96395e+57
          1152.73390	         1.44451e+56
          1153.54020	         8.14881e+57
          1154.34650	         1.76222e+58
          1155.15280	         2.86612e+58
          1155.95910	         7.98130e+57
          1156.76540	         7.90939e+57
          1157.57170	         7.26375e+57
          1158.37800	         4.77462e+56
          1159.18430	        -1.78485e+57
          1159.99060	         9.19215e+56
          1160.79690	        -1.44961e+57
          1161.60320	         7.36929e+57
          1162.40950	         2.05600e+58
          1163.21580	         1.70548e+58
          1164.02210	         9.16053e+57
          1164.82840	         1.19362e+58
          1165.63470	         1.47967e+58
          1166.44100	         2.66226e+58
          1167.24730	         8.46875e+57
          1168.05360	         9.13517e+57
          1168.85990	         1.06537e+58
          1169.66620	         9.94131e+57
          1170.47250	         1.42965e+58
          1171.27880	         1.52519e+58
          1172.08510	         2.05930e+58
          1172.89140	         1.32319e+58
          1173.69770	         1.00969e+58
          1174.50400	         1.11647e+58
          1175.31030	         1.29048e+58
          1176.11660	         1.20972e+58
          1176.92290	         1.16362e+58
          1177.72920	         1.14332e+58
          1178.53550	         6.76650e+57
          1179.34180	         3.83500e+56
          1180.14810	         6.80623e+57
          1180.95440	         1.13077e+58
          1181.76070	         5.81693e+57
          1182.56700	         8.23547e+57
          1183.37330	         5.42864e+57
          1184.17960	         6.42965e+57
          1184.98590	         1.06703e+58
          1185.79220	         6.11762e+57
          1186.59850	         1.10829e+58
          1187.40480	         1.15842e+58
          1188.21110	         1.40805e+58
          1189.01740	         8.87386e+57
          1189.82370	         9.46740e+57
          1190.63000	         1.16414e+58
          1191.43630	         1.54972e+58
          1192.24260	         1.05183e+58
          1193.04890	         8.85760e+57
          1193.85520	         7.66554e+57
          1194.66150	         7.58749e+57
          1195.46780	         1.11488e+58
          1196.27410	         1.19762e+58
          1197.08040	         8.92258e+57
          1197.88670	         1.55505e+58
          1198.69300	         1.66938e+58
          1199.49930	         1.59486e+58
          1200.30560	         9.71520e+57
          1201.11190	         9.21850e+57
          1201.91820	         9.97423e+57
          1202.72450	         7.92342e+57
          1203.53080	         1.24583e+58
          1204.33710	         6.16170e+57
          1205.14340	         6.03274e+57
          1205.94970	         5.67356e+57
          1206.75600	         6.03968e+57
          1207.56230	         6.44211e+57
          1208.36860	         8.10572e+57
          1209.17490	         5.73003e+57
          1209.98120	         5.02931e+57
          1210.78750	         5.71703e+57
          1211.59380	         1.24032e+58
          1212.40010	         1.89799e+58
          1213.20640	         2.20800e+58
          1214.01270	         2.13379e+58
          1214.81900	         2.78089e+58
          1215.62530	         4.99392e+58
          1216.43160	         9.22125e+58
          1217.23790	         1.51786e+59
          1218.04420	         1.15068e+59
          1218.85050	         8.43322e+58
          1219.65680	         5.38187e+58
          1220.46310	         3.45833e+58
          1221.26940	         2.21564e+58
          1222.07570	         7.68521e+57
          1222.88200	         7.85341e+57
          1223.68830	         9.94528e+57
          1224.49460	         8.96834e+57
          1225.30090	         7.11071e+57
          1226.10720	         4.22264e+57
          1226.91350	         4.36400e+57
          1227.71980	         7.77318e+57
          1228.52610	         1.19517e+58
          1229.33240	         8.48476e+57
          1230.13870	         6.48297e+57
          1230.94500	         7.06234e+57
          1231.75130	         5.34410e+57
          1232.55760	         8.09590e+57
          1233.36390	         9.80713e+57
          1234.17020	         7.53292e+57
          1234.97650	         8.09571e+57
          1235.78280	         7.95699e+57
          1236.58910	         8.71463e+57
          1237.39540	         1.12788e+58
          1238.20170	         1.09250e+58
          1239.00800	         1.21120e+58
          1239.81430	         1.46331e+58
          1240.62060	         1.14583e+58
          1241.42690	         1.02981e+58
          1242.23320	         9.66597e+57
          1243.03950	         7.04316e+57
          1243.84580	         8.27841e+57
          1244.65210	         1.05464e+58
          1245.45840	         9.72606e+57
          1246.26470	         8.55765e+57
          1247.07100	         7.44437e+57
          1247.87730	         7.08937e+57
          1248.68360	         3.23680e+57
          1249.48990	         2.97825e+57
          1250.29620	         6.49687e+57
          1251.10250	         5.95987e+57
          1251.90880	         3.47841e+57
          1252.71510	         5.05787e+57
          1253.52140	         7.33532e+57
          1254.32770	         1.01609e+58
          1255.13400	         1.16560e+58
          1255.94030	         1.04486e+58
          1256.74660	         1.09405e+58
          1257.55290	         1.33007e+58
          1258.35920	         1.17009e+58
          1259.16550	         8.01250e+57
          1259.97180	         5.37660e+57
          1260.77810	         6.35558e+57
          1261.58440	         8.89582e+57
          1262.39070	         6.53072e+57
          1263.19700	         9.92807e+57
          1264.00330	         1.04348e+58
          1264.80960	         9.61727e+57
          1265.61590	         1.14201e+58
          1266.42220	         1.16252e+58
          1267.22850	         1.09366e+58
          1268.03480	         1.38281e+58
          1268.84110	         1.43689e+58
          1269.64740	         1.13605e+58
          1270.45370	         1.39400e+58
          1271.26000	         1.31459e+58
          1272.06630	         1.24929e+58
          1272.87260	         1.24584e+58
          1273.67890	         1.09122e+58
          1274.48520	         1.36970e+58
          1275.29150	         1.44791e+58
          1276.09780	         1.20871e+58
          1276.90410	         1.34415e+58
          1277.71040	         1.42302e+58
          1278.51670	         1.43012e+58
          1279.32300	         1.41401e+58
          1280.12930	         1.26812e+58
          1280.93560	         1.15256e+58
          1281.74190	         1.15787e+58
          1282.54820	         1.22595e+58
          1283.35450	         9.79277e+57
          1284.16080	         8.85885e+57
          1284.96710	         1.24738e+58
          1285.77340	         1.10194e+58
          1286.57970	         1.12799e+58
          1287.38600	         1.77511e+58
          1288.19230	         1.98568e+58
          1288.99860	         1.65603e+58
          1289.80490	         1.25147e+58
          1290.61120	         1.30118e+58
          1291.41750	         1.47775e+58
          1292.22380	         1.19966e+58
          1293.03010	         1.08058e+58
          1293.83640	         1.03856e+58
          1294.64270	         1.03602e+58
          1295.44900	         8.18184e+57
          1296.25530	         6.73046e+57
          1297.06160	         9.45430e+57
          1297.86790	         9.42442e+57
          1298.67420	         8.74890e+57
          1299.48050	         1.05893e+58
          1300.28680	         1.14562e+58
          1301.09310	         8.35113e+57
          1301.89940	         4.03017e+57
          1302.70570	         4.46612e+57
          1303.51200	         7.77350e+57
          1304.31830	         9.43152e+57
          1305.12460	         1.01591e+58
          1305.93090	         1.03840e+58
          1306.73720	         1.13935e+58
          1307.54350	         1.32177e+58
          1308.34980	         1.34956e+58
          1309.15610	         1.30857e+58
          1309.96240	         1.25409e+58
          1310.76870	         1.19325e+58
          1311.57500	         1.34784e+58
          1312.38130	         1.41444e+58
          1313.18760	         1.42276e+58
          1313.99390	         1.53471e+58
          1314.80020	         1.79481e+58
          1315.60650	         1.81017e+58
          1316.41280	         1.42485e+58
          1317.21910	         1.08574e+58
          1318.02540	         1.11732e+58
          1318.83170	         1.25382e+58
          1319.63800	         1.17423e+58
          1320.44430	         1.06208e+58
          1321.25060	         1.23511e+58
          1322.05690	         1.35871e+58
          1322.86320	         1.23258e+58
          1323.66950	         1.05698e+58
          1324.47580	         9.68305e+57
          1325.28210	         1.16972e+58
          1326.08840	         1.24089e+58
          1326.89470	         1.24207e+58
          1327.70100	         9.86381e+57
          1328.50730	         7.73875e+57
          1329.31360	         9.71307e+57
          1330.11990	         1.14522e+58
          1330.92620	         9.36908e+57
          1331.73250	         9.80785e+57
          1332.53880	         1.02817e+58
          1333.34510	         9.58074e+57
          1334.15140	         1.00236e+58
          1334.95770	         9.54408e+57
          1335.76400	         1.13948e+58
          1336.57030	         1.24663e+58
          1337.37660	         1.18335e+58
          1338.18290	         1.05631e+58
          1338.98920	         1.00591e+58
          1339.79550	         1.02914e+58
          1340.60180	         1.14860e+58
          1341.40810	         1.32904e+58
          1342.21440	         1.25771e+58
          1343.02070	         1.28628e+58
          1343.82700	         1.36919e+58
          1344.63330	         1.21454e+58
          1345.43960	         1.12867e+58
          1346.24590	         1.17080e+58
          1347.05220	         1.27982e+58
          1347.85850	         1.07689e+58
          1348.66480	         1.18085e+58
          1349.47110	         1.28229e+58
          1350.27740	         1.26640e+58
          1351.08370	         1.28078e+58
          1351.89000	         1.13929e+58
          1352.69630	         1.09819e+58
          1353.50260	         1.10643e+58
          1354.30890	         1.19530e+58
          1355.11520	         1.31000e+58
          1355.92150	         1.13348e+58
          1356.72780	         9.18661e+57
          1357.53410	         9.88373e+57
          1358.34040	         1.05818e+58
          1359.14670	         1.13854e+58
          1359.95300	         1.21586e+58
          1360.75930	         1.18602e+58
          1361.56560	         9.35501e+57
          1362.37190	         9.63339e+57
          1363.17820	         1.02972e+58
          1363.98450	         1.06044e+58
          1364.79080	         1.21015e+58
          1365.59710	         1.27714e+58
          1366.40340	         1.24941e+58
          1367.20970	         9.41255e+57
          1368.01600	         9.52600e+57
          1368.82230	         1.01739e+58
          1369.62860	         1.17601e+58
          1370.43490	         9.75657e+57
          1371.24120	         8.73401e+57
          1372.04750	         9.37571e+57
          1372.85380	         1.07341e+58
          1373.66010	         1.12443e+58
          1374.46640	         1.07309e+58
          1375.27270	         9.35230e+57
          1376.07900	         8.94631e+57
          1376.88530	         9.61146e+57
          1377.69160	         8.64569e+57
          1378.49790	         6.17567e+57
          1379.30420	         6.37116e+57
          1380.11050	         8.97943e+57
          1380.91680	         9.49817e+57
          1381.72310	         9.57970e+57
          1382.52940	         1.01305e+58
          1383.33570	         8.54794e+57
          1384.14200	         9.02540e+57
          1384.94830	         8.82694e+57
          1385.75460	         9.06784e+57
          1386.56090	         1.20255e+58
          1387.36720	         1.07062e+58
          1388.17350	         1.10651e+58
          1388.97980	         1.07848e+58
          1389.78610	         8.59499e+57
          1390.59240	         7.41588e+57
          1391.39870	         7.36715e+57
          1392.20500	         9.13542e+57
          1393.01130	         8.15098e+57
          1393.81760	         7.96606e+57
          1394.62390	         8.10825e+57
          1395.43020	         7.00550e+57
          1396.23650	         6.74231e+57
          1397.04280	         6.26536e+57
          1397.84910	         7.02296e+57
          1398.65540	         7.81816e+57
          1399.46170	         9.21871e+57
          1400.26800	         8.46875e+57
          1401.07430	         8.43957e+57
          1401.88060	         7.88058e+57
          1402.68690	         8.91542e+57
          1403.49320	         9.71805e+57
          1404.29950	         9.23452e+57
          1405.10580	         1.03974e+58
          1405.91210	         1.08738e+58
          1406.71840	         1.14748e+58
          1407.52470	         1.08360e+58
          1408.33100	         1.02306e+58
          1409.13730	         1.11946e+58
          1409.94360	         1.02939e+58
          1410.74990	         1.05504e+58
          1411.55620	         1.08190e+58
          1412.36250	         9.68353e+57
          1413.16880	         9.12222e+57
          1413.97510	         8.59399e+57
          1414.78140	         1.00079e+58
          1415.58770	         1.12041e+58
          1416.39400	         1.07109e+58
          1417.20030	         1.15213e+58
          1418.00660	         9.91297e+57
          1418.81290	         9.91077e+57
          1419.61920	         1.05799e+58
          1420.42550	         1.08824e+58
          1421.23180	         1.16918e+58
          1422.03810	         1.17215e+58
          1422.84440	         1.07658e+58
          1423.65070	         1.14843e+58
          1424.45700	         1.06519e+58
          1425.26330	         9.68525e+57
          1426.06960	         9.22224e+57
          1426.87590	         9.52754e+57
          1427.68220	         9.44805e+57
          1428.48850	         1.12569e+58
          1429.29480	         1.15138e+58
          1430.10110	         1.02042e+58
          1430.90740	         9.89531e+57
          1431.71370	         8.66254e+57
          1432.52000	         8.48501e+57
          1433.32630	         8.76697e+57
          1434.13260	         7.87402e+57
          1434.93890	         7.40996e+57
          1435.74520	         8.31700e+57
          1436.55150	         9.56183e+57
          1437.35780	         9.12423e+57
          1438.16410	         9.24558e+57
          1438.97040	         9.58395e+57
          1439.77670	         9.32768e+57
          1440.58300	         8.99391e+57
          1441.38930	         8.82829e+57
          1442.19560	         9.25394e+57
          1443.00190	         9.02482e+57
          1443.80820	         1.01506e+58
          1444.61450	         9.78922e+57
          1445.42080	         7.74336e+57
          1446.22710	         1.00756e+58
          1447.03340	         1.01723e+58
          1447.83970	         1.02127e+58
          1448.64600	         1.12277e+58
          1449.45230	         1.02048e+58
          1450.25860	         1.05634e+58
          1451.06490	         9.61768e+57
          1451.87120	         7.97011e+57
          1452.67750	         7.82990e+57
          1453.48380	         9.13705e+57
          1454.29010	         8.91930e+57
          1455.09640	         8.16021e+57
          1455.90270	         8.58532e+57
          1456.70900	         8.93779e+57
          1457.51530	         9.63520e+57
          1458.32160	         1.12132e+58
          1459.12790	         1.15338e+58
          1459.93420	         9.65754e+57
          1460.74050	         7.93622e+57
          1461.54680	         8.66712e+57
          1462.35310	         8.55741e+57
          1463.15940	         9.70896e+57
          1463.96570	         1.10497e+58
          1464.77200	         1.21347e+58
          1465.57830	         1.06381e+58
          1466.38460	         8.92490e+57
          1467.19090	         7.83399e+57
          1467.99720	         8.31525e+57
          1468.80350	         8.75112e+57
          1469.60980	         9.20372e+57
          1470.41610	         1.05171e+58
          1471.22240	         9.63773e+57
          1472.02870	         9.84708e+57
          1472.83500	         9.72037e+57
          1473.64130	         9.78370e+57
          1474.44760	         1.07183e+58
          1475.25390	         9.19953e+57
          1476.06020	         7.48887e+57
          1476.86650	         8.44278e+57
          1477.67280	         8.04084e+57
          1478.47910	         6.44111e+57
          1479.28540	         7.73375e+57
          1480.09170	         9.28943e+57
          1480.89800	         9.06662e+57
          1481.70430	         8.46086e+57
          1482.51060	         7.85571e+57
          1483.31690	         7.91734e+57
          1484.12320	         8.30299e+57
          1484.92950	         7.24509e+57
          1485.73580	         6.81616e+57
          1486.54210	         8.38818e+57
          1487.34840	         8.51435e+57
          1488.15470	         8.11489e+57
          1488.96100	         8.86624e+57
          1489.76730	         8.99254e+57
          1490.57360	         9.18075e+57
          1491.37990	         8.69633e+57
          1492.18620	         8.28279e+57
          1492.99250	         8.39918e+57
          1493.79880	         8.78264e+57
          1494.60510	         7.69378e+57
          1495.41140	         6.95269e+57
          1496.21770	         8.93478e+57
          1497.02400	         1.14764e+58
          1497.83030	         9.97671e+57
          1498.63660	         6.75405e+57
          1499.44290	         6.27117e+57
          1500.24920	         6.91875e+57
          1501.05550	         8.63215e+57
          1501.86180	         9.63994e+57
          1502.66810	         1.00175e+58
          1503.47440	         9.57232e+57
          1504.28070	         8.98116e+57
          1505.08700	         9.74594e+57
          1505.89330	         9.46309e+57
          1506.69960	         8.66705e+57
          1507.50590	         8.68012e+57
          1508.31220	         8.50185e+57
          1509.11850	         8.67174e+57
          1509.92480	         9.06793e+57
          1510.73110	         8.56844e+57
          1511.53740	         7.37395e+57
          1512.34370	         7.70250e+57
          1513.15000	         8.14533e+57
          1513.95630	         9.33128e+57
          1514.76260	         9.19269e+57
          1515.56890	         8.74193e+57
          1516.37520	         8.43352e+57
          1517.18150	         8.06640e+57
          1517.98780	         7.05560e+57
          1518.79410	         6.53340e+57
          1519.60040	         8.07377e+57
          1520.40670	         9.27073e+57
          1521.21300	         9.79677e+57
          1522.01930	         9.55929e+57
          1522.82560	         9.68565e+57
          1523.63190	         1.01903e+58
          1524.43820	         8.58977e+57
          1525.24450	         6.60454e+57
          1526.05080	         5.58209e+57
          1526.85710	         5.49032e+57
          1527.66340	         6.17767e+57
          1528.46970	         6.83408e+57
          1529.27600	         7.32214e+57
          1530.08230	         7.54993e+57
          1530.88860	         6.94525e+57
          1531.69490	         7.45207e+57
          1532.50120	         8.15169e+57
          1533.30750	         9.51871e+57
          1534.11380	         9.61397e+57
          1534.92010	         8.88788e+57
          1535.72640	         9.20363e+57
          1536.53270	         9.99953e+57
          1537.33900	         9.46319e+57
          1538.14530	         9.60639e+57
          1538.95160	         9.40514e+57
          1539.75790	         8.89345e+57
          1540.56420	         9.04931e+57
          1541.37050	         7.75199e+57
          1542.17680	         7.29287e+57
          1542.98310	         7.90063e+57
          1543.78940	         8.06679e+57
          1544.59570	         7.31056e+57
          1545.40200	         8.41740e+57
          1546.20830	         9.60222e+57
          1547.01460	         1.01423e+58
          1547.82090	         1.12703e+58
          1548.62720	         1.17855e+58
          1549.43350	         1.20674e+58
          1550.23980	         1.06709e+58
          1551.04610	         1.19187e+58
          1551.85240	         1.24468e+58
          1552.65870	         1.15748e+58
          1553.46500	         1.02770e+58
          1554.27130	         9.84388e+57
          1555.07760	         9.75545e+57
          1555.88390	         9.28844e+57
          1556.69020	         9.44431e+57
          1557.49650	         9.49893e+57
          1558.30280	         8.87081e+57
          1559.10910	         8.09414e+57
          1559.91540	         8.74937e+57
          1560.72170	         9.46260e+57
          1561.52800	         8.52098e+57
          1562.33430	         9.03162e+57
          1563.14060	         9.17049e+57
          1563.94690	         8.70989e+57
          1564.75320	         7.85630e+57
          1565.55950	         7.05913e+57
          1566.36580	         7.05290e+57
          1567.17210	         8.72741e+57
          1567.97840	         9.43981e+57
          1568.78470	         9.08224e+57
          1569.59100	         9.86922e+57
          1570.39730	         9.11849e+57
          1571.20360	         8.09440e+57
          1572.00990	         7.70176e+57
          1572.81620	         8.70971e+57
          1573.62250	         1.06661e+58
          1574.42880	         1.02031e+58
          1575.23510	         7.60140e+57
          1576.04140	         8.72368e+57
          1576.84770	         9.04284e+57
          1577.65400	         8.52351e+57
          1578.46030	         9.58619e+57
          1579.26660	         1.05902e+58
          1580.07290	         9.63840e+57
          1580.87920	         7.93479e+57
          1581.68550	         7.59027e+57
          1582.49180	         7.48111e+57
          1583.29810	         6.75710e+57
          1584.10440	         8.20954e+57
          1584.91070	         9.74781e+57
          1585.71700	         9.16431e+57
          1586.52330	         9.22657e+57
          1587.32960	         8.56576e+57
          1588.13590	         7.72422e+57
          1588.94220	         8.26445e+57
          1589.74850	         9.82579e+57
          1590.55480	         9.49390e+57
          1591.36110	         8.31288e+57
          1592.16740	         8.38206e+57
          1592.97370	         8.30440e+57
          1593.78000	         8.74069e+57
          1594.58630	         9.16142e+57
          1595.39260	         7.94665e+57
          1596.19890	         8.44197e+57
          1597.00520	         9.37416e+57
          1597.81150	         8.65016e+57
          1598.61780	         7.30363e+57
          1599.42410	         6.59519e+57
          1600.23040	         6.78578e+57
          1601.03670	         7.94634e+57
          1601.84300	         8.05448e+57
          1602.64930	         8.98234e+57
          1603.45560	         8.66493e+57
          1604.26190	         7.47947e+57
          1605.06820	         7.17038e+57
          1605.87450	         6.58755e+57
          1606.68080	         6.88359e+57
          1607.48710	         5.93028e+57
          1608.29340	         5.93027e+57
          1609.09970	         6.64841e+57
          1609.90600	         7.41371e+57
          1610.71230	         7.44590e+57
          1611.51860	         6.73965e+57
          1612.32490	         6.09618e+57
          1613.13120	         7.59466e+57
          1613.93750	         8.42777e+57
          1614.74380	         8.86421e+57
          1615.55010	         8.28782e+57
          1616.35640	         9.18207e+57
          1617.16270	         1.10243e+58
          1617.96900	         1.05975e+58
          1618.77530	         9.30426e+57
          1619.58160	         8.39873e+57
          1620.38790	         7.94241e+57
          1621.19420	         8.35062e+57
          1622.00050	         8.23219e+57
          1622.80680	         8.89006e+57
          1623.61310	         7.28032e+57
          1624.41940	         7.09759e+57
          1625.22570	         8.61446e+57
          1626.03200	         9.14595e+57
          1626.83830	         8.86546e+57
          1627.64460	         7.47280e+57
          1628.45090	         6.86709e+57
          1629.25720	         9.23544e+57
          1630.06350	         9.37246e+57
          1630.86980	         7.13387e+57
          1631.67610	         8.21347e+57
          1632.48240	         9.37997e+57
          1633.28870	         8.40729e+57
          1634.09500	         9.26873e+57
          1634.90130	         1.03658e+58
          1635.70760	         9.69592e+57
          1636.51390	         8.71952e+57
          1637.32020	         8.04390e+57
          1638.12650	         8.24672e+57
          1638.93280	         9.72840e+57
          1639.73910	         1.02324e+58
          1640.54540	         9.63700e+57
          1641.35170	         8.84631e+57
          1642.15800	         1.00788e+58
          1642.96430	         9.08431e+57
          1643.77060	         7.92818e+57
          1644.57690	         7.56190e+57
          1645.38320	         7.73106e+57
          1646.18950	         7.11081e+57
          1646.99580	         7.96458e+57
          1647.80210	         8.56956e+57
          1648.60840	         7.85082e+57
          1649.41470	         7.78586e+57
          1650.22100	         7.25297e+57
          1651.02730	         7.16745e+57
          1651.83360	         7.61478e+57
          1652.63990	         7.51485e+57
          1653.44620	         8.23167e+57
          1654.25250	         8.14729e+57
          1655.05880	         7.08117e+57
          1655.86510	         7.44889e+57
          1656.67140	         8.61683e+57
          1657.47770	         8.20655e+57
          1658.28400	         8.09194e+57
          1659.09030	         9.10189e+57
          1659.89660	         8.88994e+57
          1660.70290	         9.63137e+57
          1661.50920	         9.28700e+57
          1662.31550	         7.50968e+57
          1663.12180	         7.70656e+57
          1663.92810	         9.13702e+57
          1664.73440	         1.13758e+58
          1665.54070	         1.24036e+58
          1666.34700	         1.28381e+58
          1667.15330	         1.09384e+58
          1667.95960	         9.26860e+57
          1668.76590	         7.86429e+57
          1669.57220	         7.07203e+57
          1670.37850	         7.81763e+57
          1671.18480	         7.70822e+57
          1671.99110	         7.84685e+57
          1672.79740	         7.60854e+57
          1673.60370	         7.84742e+57
          1674.41000	         8.65561e+57
          1675.21630	         7.66336e+57
          1676.02260	         6.87606e+57
          1676.82890	         7.00323e+57
          1677.63520	         7.16343e+57
          1678.44150	         7.31291e+57
          1679.24780	         8.63140e+57
          1680.05410	         8.14347e+57
          1680.86040	         5.97033e+57
          1681.66670	         6.79094e+57
          1682.47300	         8.77879e+57
          1683.27930	         8.32843e+57
          1684.08560	         9.00924e+57
          1684.89190	         8.02202e+57
          1685.69820	         5.33836e+57
          1686.50450	         5.14661e+57
          1687.31080	         7.23225e+57
          1688.11710	         7.24219e+57
          1688.92340	         6.87669e+57
          1689.72970	         6.30792e+57
          1690.53600	         6.74227e+57
          1691.34230	         7.04142e+57
          1692.14860	         7.60387e+57
          1692.95490	         7.61838e+57
          1693.76120	         6.45621e+57
          1694.56750	         6.87990e+57
          1695.37380	         8.45794e+57
          1696.18010	         8.69901e+57
          1696.98640	         8.12729e+57
          1697.79270	         8.09154e+57
          1698.59900	         8.42164e+57
          1699.40530	         8.37464e+57
          1700.21160	         7.18507e+57
          1701.01790	         7.90432e+57
          1701.82420	         8.22942e+57
          1702.63050	         8.24899e+57
          1703.43680	         8.30002e+57
          1704.24310	         9.53453e+57
          1705.04940	         9.49040e+57
          1705.85570	         8.46298e+57
          1706.66200	         8.55095e+57
          1707.46830	         7.84069e+57
          1708.27460	         7.76564e+57
          1709.08090	         7.41981e+57
          1709.88720	         5.89004e+57
          1710.69350	         6.25317e+57
          1711.49980	         7.92497e+57
          1712.30610	         8.21505e+57
          1713.11240	         8.75816e+57
          1713.91870	         8.34695e+57
          1714.72500	         7.57320e+57
          1715.53130	         7.89554e+57
          1716.33760	         8.13198e+57
          1717.14390	         7.90158e+57
          1717.95020	         8.35557e+57
          1718.75650	         8.56707e+57
          1719.56280	         8.94136e+57
          1720.36910	         7.62912e+57
          1721.17540	         7.79188e+57
          1721.98170	         7.38582e+57
          1722.78800	         6.83251e+57
          1723.59430	         7.03716e+57
          1724.40060	         8.06227e+57
          1725.20690	         7.87476e+57
          1726.01320	         7.58344e+57
          1726.81950	         7.44438e+57
          1727.62580	         7.43207e+57
          1728.43210	         6.46115e+57
          1729.23840	         7.56908e+57
          1730.04470	         8.29828e+57
          1730.85100	         8.10401e+57
          1731.65730	         7.73878e+57
          1732.46360	         7.96040e+57
          1733.26990	         7.81091e+57
          1734.07620	         7.48102e+57
          1734.88250	         7.54293e+57
          1735.68880	         6.97243e+57
          1736.49510	         8.10417e+57
          1737.30140	         8.06669e+57
          1738.10770	         6.46320e+57
          1738.91400	         7.44352e+57
          1739.72030	         8.31321e+57
          1740.52660	         6.90807e+57
          1741.33290	         6.78087e+57
          1742.13920	         6.15357e+57
          1742.94550	         6.51136e+57
          1743.75180	         7.47397e+57
          1744.55810	         7.46890e+57
          1745.36440	         7.35542e+57
          1746.17070	         5.80709e+57
          1746.97700	         5.17709e+57
          1747.78330	         6.36801e+57
          1748.58960	         5.87181e+57
          1749.39590	         5.71133e+57
          1750.20220	         6.47802e+57
          1751.00850	         6.12889e+57
          1751.81480	         5.90549e+57
          1752.62110	         7.79583e+57
          1753.42740	         9.49885e+57
          1754.23370	         7.62338e+57
          1755.04000	         7.25808e+57
          1755.84630	         8.14760e+57
          1756.65260	         7.87120e+57
          1757.45890	         7.86450e+57
          1758.26520	         7.04357e+57
          1759.07150	         8.75839e+57
          1759.87780	         8.85530e+57
          1760.68410	         9.17022e+57
          1761.49040	         9.78993e+57
          1762.29670	         6.83516e+57
          1763.10300	         7.00985e+57
          1763.90930	         8.17654e+57
          1764.71560	         8.10365e+57
          1765.52190	         7.56946e+57
          1766.32820	         8.80399e+57
          1767.13450	         8.34658e+57
          1767.94080	         6.58490e+57
          1768.74710	         7.18669e+57
          1769.55340	         7.41996e+57
          1770.35970	         6.30024e+57
          1771.16600	         6.43543e+57
          1771.97230	         7.79114e+57
          1772.77860	         7.90873e+57
          1773.58490	         7.31249e+57
          1774.39120	         5.99912e+57
          1775.19750	         5.58452e+57
          1776.00380	         6.33656e+57
          1776.81010	         6.31005e+57
          1777.61640	         6.41176e+57
          1778.42270	         6.99249e+57
          1779.22900	         7.04282e+57
          1780.03530	         6.22715e+57
          1780.84160	         6.75015e+57
          1781.64790	         8.06940e+57
          1782.45420	         6.80125e+57
          1783.26050	         6.24470e+57
          1784.06680	         7.17293e+57
          1784.87310	         6.99566e+57
          1785.67940	         7.05699e+57
          1786.48570	         6.65638e+57
          1787.29200	         6.04408e+57
          1788.09830	         6.26041e+57
          1788.90460	         5.68918e+57
          1789.71090	         5.15470e+57
          1790.51720	         5.75920e+57
          1791.32350	         6.80978e+57
          1792.12980	         7.92466e+57
          1792.93610	         8.04191e+57
          1793.74240	         8.03255e+57
          1794.54870	         8.49687e+57
          1795.35500	         8.77537e+57
          1796.16130	         7.57636e+57
          1796.96760	         5.68947e+57
          1797.77390	         6.59183e+57
          1798.58020	         6.97489e+57
          1799.38650	         6.95498e+57
          1800.19280	         7.66170e+57
          1800.99910	         8.72824e+57
          1801.80540	         8.03199e+57
          1802.61170	         9.16573e+57
          1803.41800	         8.54577e+57
          1804.22430	         6.10411e+57
          1805.03060	         6.95358e+57
          1805.83690	         7.38708e+57
          1806.64320	         7.91045e+57
          1807.44950	         7.51081e+57
          1808.25580	         7.70735e+57
          1809.06210	         8.49096e+57
          1809.86840	         6.48348e+57
          1810.67470	         6.41633e+57
          1811.48100	         8.74125e+57
          1812.28730	         9.48958e+57
          1813.09360	         8.83848e+57
          1813.89990	         8.83454e+57
          1814.70620	         7.13511e+57
          1815.51250	         7.18925e+57
          1816.31880	         7.52016e+57
          1817.12510	         7.32497e+57
          1817.93140	         6.57891e+57
          1818.73770	         6.95044e+57
          1819.54400	         8.04404e+57
          1820.35030	         7.60143e+57
          1821.15660	         6.07644e+57
          1821.96290	         6.36217e+57
          1822.76920	         7.00869e+57
          1823.57550	         7.61365e+57
          1824.38180	         8.04473e+57
          1825.18810	         8.28676e+57
          1825.99440	         8.71244e+57
          1826.80070	         8.47735e+57
          1827.60700	         7.18369e+57
          1828.41330	         4.84242e+57
          1829.21960	         5.35915e+57
          1830.02590	         7.23836e+57
          1830.83220	         7.95570e+57
          1831.63850	         8.13146e+57
          1832.44480	         7.14926e+57
          1833.25110	         7.31737e+57
          1834.05740	         8.81746e+57
          1834.86370	         7.89299e+57
          1835.67000	         6.59777e+57
          1836.47630	         7.48903e+57
          1837.28260	         8.03547e+57
          1838.08890	         8.26420e+57
          1838.89520	         8.47830e+57
          1839.70150	         8.22283e+57
          1840.50780	         7.44313e+57
          1841.31410	         6.69460e+57
          1842.12040	         6.36985e+57
          1842.92670	         6.56898e+57
          1843.73300	         6.35947e+57
          1844.53930	         5.91520e+57
          1845.34560	         7.15106e+57
          1846.15190	         7.44423e+57
          1846.95820	         7.57606e+57
          1847.76450	         7.02517e+57
          1848.57080	         5.47670e+57
          1849.37710	         5.64610e+57
          1850.18340	         6.73067e+57
          1850.98970	         8.02359e+57
          1851.79600	         8.78795e+57
          1852.60230	         7.64013e+57
          1853.40860	         6.18280e+57
          1854.21490	         6.24844e+57
          1855.02120	         7.18988e+57
          1855.82750	         6.30598e+57
          1856.63380	         6.94770e+57
          1857.44010	         7.17641e+57
          1858.24640	         7.25178e+57
          1859.05270	         7.80829e+57
          1859.85900	         6.39648e+57
          1860.66530	         5.57501e+57
          1861.47160	         6.82834e+57
          1862.27790	         7.51032e+57
          1863.08420	         7.51892e+57
          1863.89050	         7.63289e+57
          1864.69680	         6.97928e+57
          1865.50310	         6.35701e+57
          1866.30940	         6.26975e+57
          1867.11570	         5.91023e+57
          1867.92200	         6.92445e+57
          1868.72830	         7.83257e+57
          1869.53460	         7.62917e+57
          1870.34090	         7.56353e+57
          1871.14720	         8.07220e+57
          1871.95350	         6.72206e+57
          1872.75980	         6.32788e+57
          1873.56610	         6.33477e+57
          1874.37240	         5.72490e+57
          1875.17870	         5.55068e+57
          1875.98500	         6.51715e+57
          1876.79130	         7.38431e+57
          1877.59760	         7.26101e+57
          1878.40390	         5.83169e+57
          1879.21020	         5.45974e+57
          1880.01650	         7.39428e+57
          1880.82280	         8.62624e+57
          1881.62910	         8.58104e+57
          1882.43540	         8.81430e+57
          1883.24170	         8.85060e+57
          1884.04800	         6.78617e+57
          1884.85430	         7.21528e+57
          1885.66060	         7.74244e+57
          1886.46690	         8.07133e+57
          1887.27320	         8.36139e+57
          1888.07950	         6.84208e+57
          1888.88580	         6.65970e+57
          1889.69210	         8.37106e+57
          1890.49840	         7.88765e+57
          1891.30470	         7.11744e+57
          1892.11100	         8.26350e+57
          1892.91730	         8.64188e+57
          1893.72360	         9.45143e+57
          1894.52990	         7.96636e+57
          1895.33620	         7.28717e+57
          1896.14250	         7.03756e+57
          1896.94880	         5.50950e+57
          1897.75510	         4.37304e+57
          1898.56140	         5.11723e+57
          1899.36770	         7.84197e+57
          1900.17400	         7.27105e+57
          1900.98030	         6.95515e+57
          1901.78660	         7.00404e+57
          1902.59290	         7.32904e+57
          1903.39920	         8.64987e+57
          1904.20550	         1.03144e+58
          1905.01180	         9.94805e+57
          1905.81810	         9.45282e+57
          1906.62440	         1.18366e+58
          1907.43070	         1.47288e+58
          1908.23700	         1.54978e+58
          1909.04330	         1.29016e+58
          1909.84960	         1.07894e+58
          1910.65590	         1.02135e+58
          1911.46220	         1.00953e+58
          1912.26850	         8.06863e+57
          1913.07480	         5.47861e+57
          1913.88110	         5.07983e+57
          1914.68740	         5.69138e+57
          1915.49370	         5.25419e+57
          1916.30000	         5.76669e+57
          1917.10630	         7.00024e+57
          1917.91260	         6.34235e+57
          1918.71890	         5.97816e+57
          1919.52520	         6.51360e+57
          1920.33150	         5.23641e+57
          1921.13780	         6.38819e+57
          1921.94410	         8.83884e+57
          1922.75040	         8.20590e+57
          1923.55670	         8.02988e+57
          1924.36300	         8.56151e+57
          1925.16930	         7.47389e+57
          1925.97560	         6.91901e+57
          1926.78190	         5.88074e+57
          1927.58820	         6.38064e+57
          1928.39450	         5.88713e+57
          1929.20080	         4.76183e+57
          1930.00710	         5.65476e+57
          1930.81340	         7.66349e+57
          1931.61970	         6.84278e+57
          1932.42600	         6.52677e+57
          1933.23230	         7.51948e+57
          1934.03860	         5.93035e+57
          1934.84490	         5.18135e+57
          1935.65120	         7.51694e+57
          1936.45750	         8.63628e+57
          1937.26380	         7.16139e+57
          1938.07010	         7.60413e+57
          1938.87640	         8.17285e+57
          1939.68270	         8.17182e+57
          1940.48900	         7.11967e+57
          1941.29530	         8.02227e+57
          1942.10160	         7.72925e+57
          1942.90790	         6.02003e+57
          1943.71420	         6.63729e+57
          1944.52050	         7.29979e+57
          1945.32680	         6.07627e+57
          1946.13310	         7.40606e+57
          1946.93940	         8.75179e+57
          1947.74570	         7.92637e+57
          1948.55200	         6.89681e+57
          1949.35830	         7.90468e+57
          1950.16460	         6.43056e+57
          1950.97090	         6.21995e+57
          1951.77720	         7.60243e+57
          1952.58350	         8.03404e+57
          1953.38980	         6.91944e+57
          1954.19610	         4.26913e+57
          1955.00240	         4.87573e+57
          1955.80870	         5.91045e+57
          1956.61500	         6.05656e+57
          1957.42130	         6.64125e+57
          1958.22760	         7.05708e+57
          1959.03390	         6.29886e+57
          1959.84020	         6.85381e+57
          1960.64650	         6.62779e+57
          1961.45280	         6.29890e+57
          1962.25910	         5.51033e+57
          1963.06540	         5.65196e+57
          1963.87170	         6.26938e+57
          1964.67800	         6.99745e+57
          1965.48430	         5.44163e+57
          1966.29060	         5.74029e+57
          1967.09690	         6.83135e+57
          1967.90320	         6.29548e+57
          1968.70950	         6.81948e+57
          1969.51580	         6.41829e+57
          1970.32210	         6.89060e+57
          1971.12840	         6.39585e+57
          1971.93470	         4.65655e+57
          1972.74100	         4.76484e+57
          1973.54730	         6.05835e+57
          1974.35360	         7.43291e+57
          1975.15990	         8.71492e+57
          1975.96620	         7.15591e+57
          1976.77250	         7.72168e+57
          1977.57880	         7.29146e+57
          1978.38510	         6.15083e+57
          1979.19140	         7.73188e+57
          1979.99770	         7.68725e+57
          1980.80400	         7.35348e+57
          1981.61030	         6.25211e+57
          1982.41660	         5.76773e+57
          1983.22290	         5.52931e+57
          1984.02920	         5.53132e+57
          1984.83550	         6.44367e+57
          1985.64180	         6.96080e+57
          1986.44810	         5.95780e+57
          1987.25440	         5.84774e+57
          1988.06070	         6.00267e+57
          1988.86700	         7.29076e+57
          1989.67330	         7.39337e+57
          1990.47960	         6.57617e+57
          1991.28590	         5.97919e+57
          1992.09220	         6.45736e+57
          1992.89850	         6.16899e+57
          1993.70480	         5.24367e+57
          1994.51110	         5.94277e+57
          1995.31740	         5.33415e+57
          1996.12370	         6.01243e+57
          1996.93000	         6.71078e+57
          1997.73630	         7.82456e+57
          1998.54260	         7.93265e+57
          1999.34890	         7.22178e+57
          2000.15520	         5.63847e+57
          2000.96150	         6.97646e+57
          2001.76780	         5.78694e+57
          2002.57410	         5.51123e+57
          2003.38040	         6.16934e+57
          2004.18670	         6.43463e+57
          2004.99300	         5.44904e+57
          2005.79930	         7.38606e+57
          2006.60560	         7.16809e+57
          2007.41190	         6.62947e+57
          2008.21820	         6.75863e+57
          2009.02450	         6.44927e+57
          2009.83080	         5.88327e+57
          2010.63710	         6.89023e+57
          2011.44340	         7.64954e+57
          2012.24970	         7.57631e+57
          2013.05600	         6.25385e+57
          2013.86230	         6.97378e+57
          2014.66860	         5.08246e+57
          2015.47490	         5.60678e+57
          2016.28120	         5.76992e+57
          2017.08750	         5.58498e+57
          2017.89380	         5.20483e+57
          2018.70010	         5.54320e+57
          2019.50640	         5.23317e+57
          2020.31270	         6.35109e+57
          2021.11900	         6.53882e+57
          2021.92530	         6.50718e+57
          2022.73160	         7.32305e+57
          2023.53790	         6.90149e+57
          2024.34420	         6.70502e+57
          2025.15050	         5.81355e+57
          2025.95680	         6.20490e+57
          2026.76310	         6.72302e+57
          2027.56940	         6.54239e+57
          2028.37570	         6.14580e+57
          2029.18200	         5.40630e+57
          2029.98830	         5.41298e+57
          2030.79460	         6.04461e+57
          2031.60090	         4.63349e+57
          2032.40720	         5.00749e+57
          2033.21350	         6.01435e+57
          2034.01980	         5.48584e+57
          2034.82610	         4.44179e+57
          2035.63240	         5.84388e+57
          2036.43870	         6.54058e+57
          2037.24500	         7.31229e+57
          2038.05130	         7.11751e+57
          2038.85760	         5.49153e+57
          2039.66390	         5.83859e+57
          2040.47020	         6.11267e+57
          2041.27650	         6.35865e+57
          2042.08280	         6.40387e+57
          2042.88910	         5.63625e+57
          2043.69540	         5.26912e+57
          2044.50170	         6.39899e+57
          2045.30800	         5.87478e+57
          2046.11430	         5.25758e+57
          2046.92060	         5.88579e+57
          2047.72690	         6.00186e+57
          2048.53320	         6.18460e+57
          2049.33950	         5.16710e+57
          2050.14580	         5.08016e+57
          2050.95210	         6.44987e+57
          2051.75840	         6.67273e+57
          2052.56470	         4.20967e+57
          2053.37100	         3.49669e+57
          2054.17730	         4.87878e+57
          2054.98360	         4.43326e+57
          2055.78990	         3.88123e+57
          2056.59620	         2.45631e+57
          2057.40250	         4.70799e+57
          2058.20880	         6.93978e+57
          2059.01510	         6.15240e+57
          2059.82140	         6.58641e+57
          2060.62770	         1.12098e+58
          2061.43400	         1.49700e+58
          2062.24030	         1.25684e+58
          2063.04660	         3.64778e+57
          2063.85290	         2.05502e+56
          2064.65920	        -3.58204e+57
          2065.46550	        -7.57292e+57
          2066.27180	        -8.75205e+57
          2067.07810	         2.79628e+57
          2067.88440	         4.90177e+57
          2068.69070	         5.64074e+57
          2069.49700	         4.40128e+57
          2070.30330	         3.23483e+57
          2071.10960	         3.47506e+57
          2071.91590	         5.70825e+57
          2072.72220	         3.66488e+57
          2073.52850	         4.48010e+57
          2074.33480	         4.56166e+57
          2075.14110	         6.42172e+57
          2075.94740	         5.41495e+57
          2076.75370	         3.90672e+57
          2077.56000	         4.70621e+57
          2078.36630	         5.17970e+57
          2079.17260	         5.22085e+57
          2079.97890	         5.93298e+57
          2080.78520	         4.68778e+57
          2081.59150	         4.31248e+57
          2082.39780	         4.68813e+57
          2083.20410	         2.92954e+57
          2084.01040	         2.35124e+57
          2084.81670	         3.06080e+57
          2085.62300	         3.45081e+57
          2086.42930	         3.85995e+57
          2087.23560	         3.57049e+57
          2088.04190	         3.12000e+57
          2088.84820	         2.26307e+57
          2089.65450	         2.39381e+57
          2090.46080	         1.53919e+57
          2091.26710	         2.64201e+57
          2092.07340	         3.18274e+57
          2092.87970	         2.64851e+57
          2093.68600	        -1.08432e+57
          2094.49230	         2.78445e+57
          2095.29860	         4.48967e+57
          2096.10490	         2.02563e+57
          2096.91120	         2.32987e+57
          2097.71750	         1.00918e+57
          2098.52380	         1.48292e+57
          2099.33010	         1.92640e+57
          2100.13640	         1.97818e+57
          2100.94270	         3.40942e+57
          2101.74900	         3.84364e+57
          2102.55530	         4.58318e+57
          2103.36160	         9.83809e+56
          2104.16790	         2.70462e+57
          2104.97420	         3.24464e+57
          2105.78050	         1.41988e+57
          2106.58680	        -3.12766e+56
          2107.39310	        -7.43853e+56
          2108.19940	         4.18139e+55
          2109.00570	         1.73579e+57
          2109.81200	         2.13941e+57
          2110.61830	         2.41648e+57
          2111.42460	         1.21690e+57
          2112.23090	         6.35681e+56
          2113.03720	        -1.43569e+57
          2113.84350	        -1.16386e+57
          2114.64980	         8.85053e+57
          2115.45610	        -6.36227e+56
          2116.26240	        -2.26122e+57
          2117.06870	        -7.96587e+56
          2117.87500	        -4.61192e+56
          2118.68130	        -2.03237e+57
          2119.48760	        -3.19181e+57
          2120.29390	         1.76073e+56
          2121.10020	        -7.41688e+56
          2121.90650	        -2.93551e+57
          2122.71280	         2.80094e+57
          2123.51910	         3.85079e+57
          2124.32540	         2.57165e+57
          2125.13170	        -3.49935e+56
          2125.93800	        -2.41464e+57
          2126.74430	        -2.74955e+57
          2127.55060	        -5.39092e+57
          2128.35690	        -5.53460e+57
          2129.16320	         1.56987e+57
          2129.96950	        -4.27174e+56
          2130.77580	        -8.02040e+56
          2131.58210	        -1.88262e+57
          2132.38840	        -6.97203e+57
          2133.19470	        -9.40610e+56
          2134.00100	         3.13730e+57
          2134.80730	         2.29447e+57
          2135.61360	         4.93501e+57
          2136.41990	         1.45513e+58
          2137.22620	         1.03864e+58
          2138.03250	         2.29267e+57
          2138.83880	        -1.92041e+56
          2139.64510	        -5.11307e+57
          2140.45140	        -3.79292e+57
          2141.25770	        -7.20616e+57
          2142.06400	        -9.69644e+57
          2142.87030	        -6.27777e+57
          2143.67660	         6.80274e+57
          2144.48290	         1.09653e+58
          2145.28920	         5.12563e+57
          2146.09550	        -1.17541e+58
          2146.90180	        -7.87896e+57
          2147.70810	        -1.00883e+58
          2148.51440	        -2.64221e+57
          2149.32070	        -5.92874e+57
          2150.12700	        -8.37111e+57
          2150.93330	        -3.95060e+57
          2151.73960	         2.83905e+57
          2152.54590	         1.38072e+57
          2153.35220	         5.49848e+57
          2154.15850	        -1.25689e+57
          2154.96480	        -5.04125e+57
          2155.77110	        -1.04044e+58
          2156.57740	        -1.11860e+58
          2157.38370	        -6.68358e+57
          2158.19000	         4.71445e+57
          2158.99630	         5.60686e+57
          2159.80260	        -1.20378e+58
          2160.60890	        -7.68771e+57
          2161.41520	         4.97325e+57
          2162.22150	         5.78945e+57
          2163.02780	        -3.10980e+57
          2163.83410	        -6.62097e+57
          2164.64040	        -1.18197e+58
          2165.44670	        -8.28420e+57
          2166.25300	        -5.80895e+57
          2167.05930	        -3.18009e+57
          2167.86560	        -1.31843e+58
          2168.67190	        -9.49387e+57
          2169.47820	        -1.44921e+58
          2170.28450	        -9.13783e+57
          2171.09080	         6.58980e+57
          2171.89710	        -7.63080e+56
          2172.70340	         6.05263e+57
          2173.50970	        -6.61721e+57
          2174.31600	        -4.01067e+57
          2175.12230	        -2.72340e+57
          2175.92860	        -5.85584e+57
          2176.73490	        -5.70445e+57
          2177.54120	        -2.32312e+57
          2178.34750	        -4.53536e+57
          2179.15380	                 nan
          2179.96010	                 nan
          2180.76640	                 nan
          2181.57270	                 nan
          2182.37900	                 nan
          2183.18530	                 nan
          2183.99160	                 nan
          2184.79790	                 nan
          2185.60420	                 nan
          2186.41050	                 nan
          2187.21680	                 nan
          2188.02310	                 nan
          2188.82940	                 nan
          2189.63570	                 nan
          2190.44200	                 nan
          2191.24830	                 nan
          2192.05460	                 nan
          2192.86090	                 nan
          2193.66720	                 nan
          2194.47350	                 nan
          2195.27980	                 nan
          2196.08610	                 nan
          2196.89240	                 nan
          2197.69870	                 nan
          2198.50500	                 nan
          2199.31130	                 nan
          2200.11760	                 nan
          2200.92390	                 nan
          2201.73020	                 nan
          2202.53650	                 nan
          2203.34280	                 nan
          2204.14910	                 nan
          2204.95540	                 nan
          2205.76170	                 nan
          2206.56800	                 nan
          2207.37430	                 nan
          2208.18060	                 nan
          2208.98690	                 nan
          2209.79320	                 nan
          2210.59950	                 nan
          2211.40580	                 nan
          2212.21210	                 nan
          2213.01840	                 nan
          2213.82470	                 nan
          2214.63100	                 nan
          2215.43730	         0.00000e+00
