#sample_28_stacked_spectrum_rest_UV-bands_median_H-alpha_noDC.txt
#median Lum: 1.69594e+42
#Rest-frame wavelength (A) | Luminosity (erg/s/A)
#
          1110.00000	         0.00000e+00
          1110.80630	        -3.85832e+59
          1111.61260	         4.95376e+58
          1112.41890	         1.98655e+59
          1113.22520	         5.33058e+58
          1114.03150	        -1.58786e+59
          1114.83780	        -6.53060e+58
          1115.64410	         3.36128e+58
          1116.45040	         1.33434e+59
          1117.25670	         4.44212e+58
          1118.06300	         1.28480e+59
          1118.86930	         1.70486e+59
          1119.67560	         1.09736e+59
          1120.48190	        -3.39168e+58
          1121.28820	        -1.27440e+59
          1122.09450	         1.73642e+58
          1122.90080	         2.17070e+58
          1123.70710	         3.57828e+58
          1124.51340	         1.45241e+59
          1125.31970	         9.49588e+57
          1126.12600	         5.52178e+57
          1126.93230	        -2.78207e+58
          1127.73860	        -4.12529e+58
          1128.54490	         2.74673e+57
          1129.35120	        -1.80741e+58
          1130.15750	        -2.12414e+58
          1130.96380	        -3.53098e+58
          1131.77010	         3.37608e+58
          1132.57640	         1.67104e+58
          1133.38270	        -3.73501e+57
          1134.18900	         9.61423e+57
          1134.99530	         1.84908e+58
          1135.80160	         1.98748e+58
          1136.60790	         1.92059e+58
          1137.41420	        -9.24071e+56
          1138.22050	         3.15853e+58
          1139.02680	         4.87465e+58
          1139.83310	         2.68900e+58
          1140.63940	         1.21192e+58
          1141.44570	        -2.05176e+58
          1142.25200	        -5.83790e+57
          1143.05830	         1.84815e+58
          1143.86460	         2.31057e+58
          1144.67090	         3.99401e+58
          1145.47720	         6.15124e+56
          1146.28350	         5.35067e+57
          1147.08980	         1.04486e+58
          1147.89610	         2.58372e+58
          1148.70240	         2.63428e+58
          1149.50870	         2.95289e+58
          1150.31500	         6.42161e+57
          1151.12130	        -9.36362e+56
          1151.92760	         4.81923e+57
          1152.73390	         6.07459e+57
          1153.54020	         7.69328e+56
          1154.34650	         2.38962e+58
          1155.15280	         1.70403e+58
          1155.95910	         7.51611e+57
          1156.76540	         9.58996e+57
          1157.57170	        -2.46191e+57
          1158.37800	         7.13811e+57
          1159.18430	         6.20650e+57
          1159.99060	         1.60438e+58
          1160.79690	         3.50358e+57
          1161.60320	         7.28714e+57
          1162.40950	         8.73297e+57
          1163.21580	         1.76851e+58
          1164.02210	         1.49739e+58
          1164.82840	         6.42899e+57
          1165.63470	         1.47761e+58
          1166.44100	         3.01370e+58
          1167.24730	         2.70450e+58
          1168.05360	         1.15358e+58
          1168.85990	         6.70665e+57
          1169.66620	         1.22190e+57
          1170.47250	         8.08323e+57
          1171.27880	         1.35286e+58
          1172.08510	         9.14023e+57
          1172.89140	         5.35203e+57
          1173.69770	         8.75206e+57
          1174.50400	         8.93716e+57
          1175.31030	         1.38985e+58
          1176.11660	         1.18809e+58
          1176.92290	         1.22701e+58
          1177.72920	         8.93805e+57
          1178.53550	         3.39646e+57
          1179.34180	         8.99479e+56
          1180.14810	         9.18442e+57
          1180.95440	         1.30929e+58
          1181.76070	         5.17530e+57
          1182.56700	         4.91343e+57
          1183.37330	         8.09925e+57
          1184.17960	         9.65911e+57
          1184.98590	         8.90196e+57
          1185.79220	         9.09108e+57
          1186.59850	         1.76504e+58
          1187.40480	         8.49554e+57
          1188.21110	         1.28738e+58
          1189.01740	         1.06267e+58
          1189.82370	         6.28900e+57
          1190.63000	         9.85005e+57
          1191.43630	         1.16894e+58
          1192.24260	         8.60182e+57
          1193.04890	         1.47530e+58
          1193.85520	         1.39813e+58
          1194.66150	         4.77823e+57
          1195.46780	         5.54915e+57
          1196.27410	         1.13913e+58
          1197.08040	         8.58614e+57
          1197.88670	         1.20501e+58
          1198.69300	         1.67197e+58
          1199.49930	         1.66225e+58
          1200.30560	         8.56445e+57
          1201.11190	         9.85122e+57
          1201.91820	         1.06215e+58
          1202.72450	         8.10302e+57
          1203.53080	         1.81671e+58
          1204.33710	         9.69058e+57
          1205.14340	         7.29969e+57
          1205.94970	         8.26522e+57
          1206.75600	         1.21349e+58
          1207.56230	         4.08058e+57
          1208.36860	         5.43538e+57
          1209.17490	         4.06294e+57
          1209.98120	         7.33768e+57
          1210.78750	         1.29382e+58
          1211.59380	         1.08262e+58
          1212.40010	         1.49910e+58
          1213.20640	         1.90465e+58
          1214.01270	         2.05559e+58
          1214.81900	         2.58040e+58
          1215.62530	         4.58911e+58
          1216.43160	         9.00177e+58
          1217.23790	         1.48260e+59
          1218.04420	         1.14477e+59
          1218.85050	         8.60908e+58
          1219.65680	         5.48292e+58
          1220.46310	         3.04340e+58
          1221.26940	         2.23254e+58
          1222.07570	         1.48494e+58
          1222.88200	         9.59360e+57
          1223.68830	         1.08617e+58
          1224.49460	         9.18074e+57
          1225.30090	         9.50434e+57
          1226.10720	         9.72849e+57
          1226.91350	         9.59932e+57
          1227.71980	         1.03490e+58
          1228.52610	         1.33516e+58
          1229.33240	         1.28524e+58
          1230.13870	         1.06214e+58
          1230.94500	         9.26041e+57
          1231.75130	         7.12220e+57
          1232.55760	         7.76536e+57
          1233.36390	         9.36979e+57
          1234.17020	         9.08756e+57
          1234.97650	         8.69500e+57
          1235.78280	         8.51602e+57
          1236.58910	         9.32699e+57
          1237.39540	         1.04342e+58
          1238.20170	         1.05617e+58
          1239.00800	         1.21009e+58
          1239.81430	         1.37467e+58
          1240.62060	         1.14804e+58
          1241.42690	         8.88451e+57
          1242.23320	         9.95191e+57
          1243.03950	         8.36041e+57
          1243.84580	         7.39427e+57
          1244.65210	         8.24088e+57
          1245.45840	         1.06052e+58
          1246.26470	         1.26294e+58
          1247.07100	         9.11609e+57
          1247.87730	         5.87708e+57
          1248.68360	         3.27580e+57
          1249.48990	         9.87406e+57
          1250.29620	         1.28511e+58
          1251.10250	         7.38975e+57
          1251.90880	         6.72610e+57
          1252.71510	         6.24813e+57
          1253.52140	         7.23317e+57
          1254.32770	         1.08539e+58
          1255.13400	         1.18476e+58
          1255.94030	         1.12043e+58
          1256.74660	         9.55508e+57
          1257.55290	         1.11220e+58
          1258.35920	         1.05638e+58
          1259.16550	         5.74901e+57
          1259.97180	         5.13791e+57
          1260.77810	         7.16100e+57
          1261.58440	         9.71276e+57
          1262.39070	         8.45957e+57
          1263.19700	         9.57364e+57
          1264.00330	         1.07448e+58
          1264.80960	         9.67814e+57
          1265.61590	         1.25687e+58
          1266.42220	         1.25775e+58
          1267.22850	         1.05259e+58
          1268.03480	         1.28092e+58
          1268.84110	         1.47985e+58
          1269.64740	         1.31864e+58
          1270.45370	         1.13701e+58
          1271.26000	         1.11218e+58
          1272.06630	         1.40227e+58
          1272.87260	         1.43455e+58
          1273.67890	         1.31633e+58
          1274.48520	         1.29503e+58
          1275.29150	         1.49906e+58
          1276.09780	         1.39057e+58
          1276.90410	         1.64579e+58
          1277.71040	         1.45832e+58
          1278.51670	         1.14851e+58
          1279.32300	         1.34304e+58
          1280.12930	         1.39590e+58
          1280.93560	         1.26446e+58
          1281.74190	         1.23778e+58
          1282.54820	         1.28912e+58
          1283.35450	         1.06635e+58
          1284.16080	         9.68646e+57
          1284.96710	         1.32208e+58
          1285.77340	         1.37579e+58
          1286.57970	         1.22102e+58
          1287.38600	         1.43323e+58
          1288.19230	         1.67906e+58
          1288.99860	         1.47357e+58
          1289.80490	         1.18462e+58
          1290.61120	         1.35842e+58
          1291.41750	         1.34086e+58
          1292.22380	         1.26923e+58
          1293.03010	         1.17995e+58
          1293.83640	         1.27556e+58
          1294.64270	         1.21393e+58
          1295.44900	         8.80959e+57
          1296.25530	         8.13873e+57
          1297.06160	         1.03622e+58
          1297.86790	         1.12452e+58
          1298.67420	         1.02241e+58
          1299.48050	         1.02244e+58
          1300.28680	         1.06889e+58
          1301.09310	         8.11049e+57
          1301.89940	         4.31172e+57
          1302.70570	         4.99741e+57
          1303.51200	         6.41700e+57
          1304.31830	         1.05447e+58
          1305.12460	         1.13921e+58
          1305.93090	         1.13117e+58
          1306.73720	         1.24939e+58
          1307.54350	         1.34144e+58
          1308.34980	         1.35315e+58
          1309.15610	         1.46125e+58
          1309.96240	         1.54134e+58
          1310.76870	         1.39412e+58
          1311.57500	         1.14279e+58
          1312.38130	         1.15920e+58
          1313.18760	         1.35944e+58
          1313.99390	         1.42454e+58
          1314.80020	         1.58141e+58
          1315.60650	         1.45197e+58
          1316.41280	         1.27934e+58
          1317.21910	         1.17187e+58
          1318.02540	         1.09135e+58
          1318.83170	         1.19802e+58
          1319.63800	         1.23560e+58
          1320.44430	         1.18423e+58
          1321.25060	         1.31872e+58
          1322.05690	         1.32625e+58
          1322.86320	         1.32985e+58
          1323.66950	         1.10289e+58
          1324.47580	         7.12139e+57
          1325.28210	         8.20900e+57
          1326.08840	         1.13490e+58
          1326.89470	         1.19644e+58
          1327.70100	         1.14823e+58
          1328.50730	         9.84527e+57
          1329.31360	         1.03164e+58
          1330.11990	         8.85644e+57
          1330.92620	         7.14707e+57
          1331.73250	         9.76008e+57
          1332.53880	         9.88158e+57
          1333.34510	         8.73869e+57
          1334.15140	         1.01982e+58
          1334.95770	         9.82143e+57
          1335.76400	         9.49758e+57
          1336.57030	         1.00225e+58
          1337.37660	         1.08437e+58
          1338.18290	         1.13517e+58
          1338.98920	         1.09114e+58
          1339.79550	         1.11756e+58
          1340.60180	         1.24870e+58
          1341.40810	         1.33272e+58
          1342.21440	         1.15468e+58
          1343.02070	         9.90568e+57
          1343.82700	         1.17321e+58
          1344.63330	         1.27088e+58
          1345.43960	         1.24838e+58
          1346.24590	         1.12966e+58
          1347.05220	         1.32473e+58
          1347.85850	         1.24549e+58
          1348.66480	         1.22095e+58
          1349.47110	         1.36386e+58
          1350.27740	         1.24747e+58
          1351.08370	         1.15386e+58
          1351.89000	         1.23304e+58
          1352.69630	         1.29826e+58
          1353.50260	         1.23598e+58
          1354.30890	         1.30485e+58
          1355.11520	         1.19434e+58
          1355.92150	         1.02865e+58
          1356.72780	         1.00103e+58
          1357.53410	         1.05466e+58
          1358.34040	         1.11453e+58
          1359.14670	         9.49436e+57
          1359.95300	         1.04544e+58
          1360.75930	         1.13241e+58
          1361.56560	         9.27570e+57
          1362.37190	         1.05176e+58
          1363.17820	         1.03026e+58
          1363.98450	         1.06285e+58
          1364.79080	         1.23490e+58
          1365.59710	         1.32046e+58
          1366.40340	         1.10897e+58
          1367.20970	         8.51650e+57
          1368.01600	         9.40950e+57
          1368.82230	         9.92960e+57
          1369.62860	         1.02298e+58
          1370.43490	         9.66842e+57
          1371.24120	         9.62714e+57
          1372.04750	         9.41615e+57
          1372.85380	         1.07246e+58
          1373.66010	         1.10777e+58
          1374.46640	         1.00214e+58
          1375.27270	         9.97844e+57
          1376.07900	         8.52640e+57
          1376.88530	         8.96473e+57
          1377.69160	         9.04119e+57
          1378.49790	         6.98869e+57
          1379.30420	         7.23730e+57
          1380.11050	         9.37796e+57
          1380.91680	         9.11717e+57
          1381.72310	         9.02881e+57
          1382.52940	         9.46087e+57
          1383.33570	         8.33178e+57
          1384.14200	         8.29773e+57
          1384.94830	         1.10717e+58
          1385.75460	         1.04397e+58
          1386.56090	         1.04789e+58
          1387.36720	         1.02722e+58
          1388.17350	         1.29374e+58
          1388.97980	         1.37147e+58
          1389.78610	         1.04884e+58
          1390.59240	         7.93958e+57
          1391.39870	         6.66802e+57
          1392.20500	         8.09481e+57
          1393.01130	         9.18780e+57
          1393.81760	         8.28324e+57
          1394.62390	         7.87499e+57
          1395.43020	         7.93312e+57
          1396.23650	         7.60971e+57
          1397.04280	         7.87830e+57
          1397.84910	         8.02465e+57
          1398.65540	         7.93023e+57
          1399.46170	         8.10864e+57
          1400.26800	         7.41884e+57
          1401.07430	         6.58610e+57
          1401.88060	         8.74156e+57
          1402.68690	         9.20598e+57
          1403.49320	         8.90758e+57
          1404.29950	         9.34028e+57
          1405.10580	         1.01145e+58
          1405.91210	         1.10572e+58
          1406.71840	         1.14506e+58
          1407.52470	         1.00052e+58
          1408.33100	         9.64705e+57
          1409.13730	         1.07650e+58
          1409.94360	         1.15856e+58
          1410.74990	         1.05911e+58
          1411.55620	         9.19947e+57
          1412.36250	         8.87522e+57
          1413.16880	         9.06722e+57
          1413.97510	         8.57945e+57
          1414.78140	         8.32310e+57
          1415.58770	         1.00726e+58
          1416.39400	         1.05081e+58
          1417.20030	         1.09661e+58
          1418.00660	         1.05193e+58
          1418.81290	         1.02855e+58
          1419.61920	         1.00005e+58
          1420.42550	         1.14846e+58
          1421.23180	         1.42183e+58
          1422.03810	         1.36448e+58
          1422.84440	         1.24556e+58
          1423.65070	         1.39107e+58
          1424.45700	         1.19546e+58
          1425.26330	         9.02900e+57
          1426.06960	         8.20807e+57
          1426.87590	         1.03198e+58
          1427.68220	         1.05822e+58
          1428.48850	         1.13262e+58
          1429.29480	         1.00763e+58
          1430.10110	         8.56278e+57
          1430.90740	         8.50404e+57
          1431.71370	         9.07053e+57
          1432.52000	         9.68181e+57
          1433.32630	         8.99934e+57
          1434.13260	         8.24039e+57
          1434.93890	         8.24615e+57
          1435.74520	         9.00477e+57
          1436.55150	         9.33398e+57
          1437.35780	         9.93492e+57
          1438.16410	         9.82219e+57
          1438.97040	         9.50173e+57
          1439.77670	         9.44453e+57
          1440.58300	         9.46609e+57
          1441.38930	         9.33681e+57
          1442.19560	         9.86193e+57
          1443.00190	         1.00581e+58
          1443.80820	         1.13054e+58
          1444.61450	         9.94120e+57
          1445.42080	         8.88110e+57
          1446.22710	         1.00397e+58
          1447.03340	         9.29682e+57
          1447.83970	         9.79368e+57
          1448.64600	         1.14177e+58
          1449.45230	         1.02158e+58
          1450.25860	         9.05516e+57
          1451.06490	         8.65110e+57
          1451.87120	         7.49146e+57
          1452.67750	         7.63807e+57
          1453.48380	         8.58233e+57
          1454.29010	         8.20665e+57
          1455.09640	         8.12522e+57
          1455.90270	         9.02523e+57
          1456.70900	         8.89821e+57
          1457.51530	         9.82725e+57
          1458.32160	         1.16218e+58
          1459.12790	         1.11781e+58
          1459.93420	         9.55583e+57
          1460.74050	         7.80289e+57
          1461.54680	         8.29297e+57
          1462.35310	         7.97008e+57
          1463.15940	         8.82183e+57
          1463.96570	         1.14829e+58
          1464.77200	         1.21560e+58
          1465.57830	         9.93184e+57
          1466.38460	         9.45133e+57
          1467.19090	         9.28302e+57
          1467.99720	         8.06683e+57
          1468.80350	         8.33296e+57
          1469.60980	         9.46701e+57
          1470.41610	         9.50552e+57
          1471.22240	         8.95787e+57
          1472.02870	         9.30998e+57
          1472.83500	         9.54353e+57
          1473.64130	         1.10817e+58
          1474.44760	         1.12431e+58
          1475.25390	         9.12436e+57
          1476.06020	         7.78514e+57
          1476.86650	         8.62556e+57
          1477.67280	         8.43254e+57
          1478.47910	         7.17677e+57
          1479.28540	         7.66763e+57
          1480.09170	         9.47451e+57
          1480.89800	         9.93474e+57
          1481.70430	         9.89670e+57
          1482.51060	         8.52568e+57
          1483.31690	         6.30899e+57
          1484.12320	         7.12386e+57
          1484.92950	         7.84320e+57
          1485.73580	         8.55450e+57
          1486.54210	         8.50862e+57
          1487.34840	         8.75570e+57
          1488.15470	         9.17247e+57
          1488.96100	         9.31877e+57
          1489.76730	         8.73369e+57
          1490.57360	         8.39171e+57
          1491.37990	         6.64805e+57
          1492.18620	         7.32887e+57
          1492.99250	         8.15437e+57
          1493.79880	         8.76453e+57
          1494.60510	         9.36639e+57
          1495.41140	         7.87496e+57
          1496.21770	         6.87931e+57
          1497.02400	         8.69450e+57
          1497.83030	         8.26815e+57
          1498.63660	         6.60265e+57
          1499.44290	         6.81759e+57
          1500.24920	         8.04088e+57
          1501.05550	         8.36915e+57
          1501.86180	         8.67091e+57
          1502.66810	         9.23976e+57
          1503.47440	         8.43762e+57
          1504.28070	         8.29483e+57
          1505.08700	         9.30044e+57
          1505.89330	         8.89245e+57
          1506.69960	         9.48644e+57
          1507.50590	         9.36802e+57
          1508.31220	         8.15171e+57
          1509.11850	         8.59801e+57
          1509.92480	         9.42150e+57
          1510.73110	         8.55011e+57
          1511.53740	         7.11265e+57
          1512.34370	         7.62529e+57
          1513.15000	         9.81037e+57
          1513.95630	         1.09489e+58
          1514.76260	         1.05591e+58
          1515.56890	         8.79272e+57
          1516.37520	         8.48862e+57
          1517.18150	         8.19929e+57
          1517.98780	         7.38332e+57
          1518.79410	         7.15359e+57
          1519.60040	         7.35916e+57
          1520.40670	         9.10286e+57
          1521.21300	         9.59507e+57
          1522.01930	         7.78048e+57
          1522.82560	         8.90524e+57
          1523.63190	         1.02947e+58
          1524.43820	         7.77919e+57
          1525.24450	         5.59833e+57
          1526.05080	         5.75566e+57
          1526.85710	         6.43065e+57
          1527.66340	         7.55368e+57
          1528.46970	         7.99801e+57
          1529.27600	         7.78637e+57
          1530.08230	         7.71471e+57
          1530.88860	         7.44743e+57
          1531.69490	         8.53610e+57
          1532.50120	         9.66243e+57
          1533.30750	         1.04681e+58
          1534.11380	         9.78764e+57
          1534.92010	         8.52056e+57
          1535.72640	         8.77327e+57
          1536.53270	         9.50728e+57
          1537.33900	         8.95054e+57
          1538.14530	         8.25488e+57
          1538.95160	         8.15318e+57
          1539.75790	         9.08408e+57
          1540.56420	         8.30597e+57
          1541.37050	         7.21985e+57
          1542.17680	         7.28842e+57
          1542.98310	         7.47843e+57
          1543.78940	         8.75976e+57
          1544.59570	         8.06194e+57
          1545.40200	         7.96482e+57
          1546.20830	         8.92869e+57
          1547.01460	         1.11345e+58
          1547.82090	         1.10707e+58
          1548.62720	         1.17275e+58
          1549.43350	         1.20761e+58
          1550.23980	         1.12468e+58
          1551.04610	         1.18816e+58
          1551.85240	         1.23465e+58
          1552.65870	         1.16465e+58
          1553.46500	         1.10577e+58
          1554.27130	         1.11442e+58
          1555.07760	         9.63303e+57
          1555.88390	         8.62981e+57
          1556.69020	         8.89320e+57
          1557.49650	         8.30235e+57
          1558.30280	         8.72564e+57
          1559.10910	         1.00039e+58
          1559.91540	         9.30661e+57
          1560.72170	         7.52536e+57
          1561.52800	         7.88909e+57
          1562.33430	         9.51012e+57
          1563.14060	         9.06648e+57
          1563.94690	         8.76380e+57
          1564.75320	         8.09235e+57
          1565.55950	         6.84314e+57
          1566.36580	         7.26686e+57
          1567.17210	         8.36380e+57
          1567.97840	         8.81947e+57
          1568.78470	         8.63696e+57
          1569.59100	         9.58258e+57
          1570.39730	         9.44339e+57
          1571.20360	         7.70430e+57
          1572.00990	         7.26290e+57
          1572.81620	         7.92856e+57
          1573.62250	         9.33020e+57
          1574.42880	         9.35825e+57
          1575.23510	         8.14938e+57
          1576.04140	         8.67367e+57
          1576.84770	         9.31375e+57
          1577.65400	         8.86974e+57
          1578.46030	         9.95170e+57
          1579.26660	         1.03289e+58
          1580.07290	         9.29294e+57
          1580.87920	         7.92329e+57
          1581.68550	         8.02030e+57
          1582.49180	         8.33806e+57
          1583.29810	         7.43893e+57
          1584.10440	         9.01102e+57
          1584.91070	         9.79420e+57
          1585.71700	         9.39666e+57
          1586.52330	         9.19378e+57
          1587.32960	         8.16354e+57
          1588.13590	         8.27331e+57
          1588.94220	         8.35332e+57
          1589.74850	         8.75834e+57
          1590.55480	         9.38370e+57
          1591.36110	         8.24703e+57
          1592.16740	         7.92401e+57
          1592.97370	         8.44448e+57
          1593.78000	         9.17689e+57
          1594.58630	         9.26593e+57
          1595.39260	         8.19113e+57
          1596.19890	         8.74426e+57
          1597.00520	         8.91942e+57
          1597.81150	         8.19817e+57
          1598.61780	         7.19061e+57
          1599.42410	         7.20230e+57
          1600.23040	         7.40852e+57
          1601.03670	         7.55134e+57
          1601.84300	         7.17430e+57
          1602.64930	         7.66754e+57
          1603.45560	         8.38572e+57
          1604.26190	         7.89234e+57
          1605.06820	         7.58499e+57
          1605.87450	         8.47817e+57
          1606.68080	         8.36247e+57
          1607.48710	         6.12376e+57
          1608.29340	         4.99369e+57
          1609.09970	         6.80747e+57
          1609.90600	         8.46886e+57
          1610.71230	         7.36263e+57
          1611.51860	         7.31946e+57
          1612.32490	         7.03806e+57
          1613.13120	         8.60432e+57
          1613.93750	         8.77274e+57
          1614.74380	         8.50971e+57
          1615.55010	         8.24210e+57
          1616.35640	         9.01014e+57
          1617.16270	         1.00192e+58
          1617.96900	         9.60961e+57
          1618.77530	         8.14881e+57
          1619.58160	         8.61575e+57
          1620.38790	         8.29657e+57
          1621.19420	         8.62478e+57
          1622.00050	         8.51565e+57
          1622.80680	         9.04182e+57
          1623.61310	         8.25905e+57
          1624.41940	         7.73456e+57
          1625.22570	         9.27043e+57
          1626.03200	         9.43568e+57
          1626.83830	         8.39866e+57
          1627.64460	         8.01493e+57
          1628.45090	         6.54060e+57
          1629.25720	         8.10481e+57
          1630.06350	         8.85514e+57
          1630.86980	         5.33636e+57
          1631.67610	         7.85604e+57
          1632.48240	         8.72965e+57
          1633.28870	         7.43463e+57
          1634.09500	         8.78480e+57
          1634.90130	         1.06774e+58
          1635.70760	         8.78146e+57
          1636.51390	         7.00937e+57
          1637.32020	         7.64318e+57
          1638.12650	         9.05662e+57
          1638.93280	         9.29585e+57
          1639.73910	         9.53284e+57
          1640.54540	         9.76824e+57
          1641.35170	         7.81137e+57
          1642.15800	         8.20410e+57
          1642.96430	         8.46049e+57
          1643.77060	         7.66384e+57
          1644.57690	         8.19012e+57
          1645.38320	         7.85413e+57
          1646.18950	         6.40631e+57
          1646.99580	         8.13151e+57
          1647.80210	         8.43126e+57
          1648.60840	         8.47515e+57
          1649.41470	         8.98232e+57
          1650.22100	         7.38427e+57
          1651.02730	         7.80324e+57
          1651.83360	         7.81601e+57
          1652.63990	         8.82737e+57
          1653.44620	         9.95938e+57
          1654.25250	         9.19671e+57
          1655.05880	         7.47179e+57
          1655.86510	         7.62139e+57
          1656.67140	         9.06440e+57
          1657.47770	         8.53350e+57
          1658.28400	         7.90802e+57
          1659.09030	         8.64160e+57
          1659.89660	         9.13471e+57
          1660.70290	         9.85197e+57
          1661.50920	         1.02103e+58
          1662.31550	         9.58638e+57
          1663.12180	         9.41390e+57
          1663.92810	         9.57789e+57
          1664.73440	         9.82666e+57
          1665.54070	         1.19919e+58
          1666.34700	         1.25348e+58
          1667.15330	         1.16279e+58
          1667.95960	         9.55807e+57
          1668.76590	         7.39414e+57
          1669.57220	         7.25699e+57
          1670.37850	         7.67071e+57
          1671.18480	         8.06489e+57
          1671.99110	         7.95297e+57
          1672.79740	         7.22269e+57
          1673.60370	         6.69345e+57
          1674.41000	         7.98978e+57
          1675.21630	         8.14755e+57
          1676.02260	         6.80693e+57
          1676.82890	         7.02187e+57
          1677.63520	         6.47881e+57
          1678.44150	         6.71131e+57
          1679.24780	         7.74487e+57
          1680.05410	         7.19441e+57
          1680.86040	         5.46027e+57
          1681.66670	         6.38918e+57
          1682.47300	         8.93709e+57
          1683.27930	         8.70543e+57
          1684.08560	         9.19934e+57
          1684.89190	         8.15174e+57
          1685.69820	         5.45779e+57
          1686.50450	         5.72839e+57
          1687.31080	         7.09186e+57
          1688.11710	         8.13660e+57
          1688.92340	         6.84154e+57
          1689.72970	         6.03910e+57
          1690.53600	         6.31971e+57
          1691.34230	         7.26104e+57
          1692.14860	         8.17374e+57
          1692.95490	         8.26747e+57
          1693.76120	         7.04270e+57
          1694.56750	         6.32839e+57
          1695.37380	         7.65578e+57
          1696.18010	         7.82470e+57
          1696.98640	         8.75032e+57
          1697.79270	         8.75569e+57
          1698.59900	         7.60178e+57
          1699.40530	         7.01184e+57
          1700.21160	         7.35474e+57
          1701.01790	         8.01895e+57
          1701.82420	         7.30197e+57
          1702.63050	         7.37013e+57
          1703.43680	         8.21941e+57
          1704.24310	         7.87382e+57
          1705.04940	         7.70740e+57
          1705.85570	         8.61876e+57
          1706.66200	         8.67201e+57
          1707.46830	         7.89566e+57
          1708.27460	         7.72059e+57
          1709.08090	         8.11150e+57
          1709.88720	         7.43799e+57
          1710.69350	         6.19445e+57
          1711.49980	         6.58570e+57
          1712.30610	         7.75384e+57
          1713.11240	         8.76860e+57
          1713.91870	         7.88369e+57
          1714.72500	         8.00845e+57
          1715.53130	         8.50078e+57
          1716.33760	         8.23159e+57
          1717.14390	         7.60412e+57
          1717.95020	         7.95696e+57
          1718.75650	         8.67634e+57
          1719.56280	         8.82822e+57
          1720.36910	         7.67963e+57
          1721.17540	         6.26949e+57
          1721.98170	         5.14750e+57
          1722.78800	         5.79782e+57
          1723.59430	         6.92725e+57
          1724.40060	         8.07420e+57
          1725.20690	         7.67072e+57
          1726.01320	         8.19103e+57
          1726.81950	         8.13324e+57
          1727.62580	         7.35204e+57
          1728.43210	         6.96439e+57
          1729.23840	         6.88433e+57
          1730.04470	         8.08177e+57
          1730.85100	         9.35633e+57
          1731.65730	         9.28137e+57
          1732.46360	         7.86680e+57
          1733.26990	         6.95565e+57
          1734.07620	         7.36389e+57
          1734.88250	         7.42469e+57
          1735.68880	         7.33251e+57
          1736.49510	         7.85709e+57
          1737.30140	         7.78336e+57
          1738.10770	         6.15649e+57
          1738.91400	         7.00005e+57
          1739.72030	         6.72343e+57
          1740.52660	         5.32977e+57
          1741.33290	         6.26706e+57
          1742.13920	         6.55674e+57
          1742.94550	         6.60511e+57
          1743.75180	         7.29261e+57
          1744.55810	         7.71438e+57
          1745.36440	         7.09701e+57
          1746.17070	         5.12713e+57
          1746.97700	         5.97710e+57
          1747.78330	         6.94087e+57
          1748.58960	         6.30795e+57
          1749.39590	         6.17565e+57
          1750.20220	         5.64101e+57
          1751.00850	         5.68042e+57
          1751.81480	         6.62472e+57
          1752.62110	         8.13791e+57
          1753.42740	         8.12234e+57
          1754.23370	         7.33218e+57
          1755.04000	         7.57636e+57
          1755.84630	         6.87653e+57
          1756.65260	         8.10915e+57
          1757.45890	         8.63222e+57
          1758.26520	         6.63662e+57
          1759.07150	         8.49850e+57
          1759.87780	         9.04370e+57
          1760.68410	         8.35179e+57
          1761.49040	         7.82354e+57
          1762.29670	         6.45954e+57
          1763.10300	         6.87000e+57
          1763.90930	         7.69124e+57
          1764.71560	         8.05206e+57
          1765.52190	         7.97346e+57
          1766.32820	         8.45066e+57
          1767.13450	         7.27274e+57
          1767.94080	         6.16830e+57
          1768.74710	         6.58249e+57
          1769.55340	         7.08349e+57
          1770.35970	         6.44813e+57
          1771.16600	         6.89087e+57
          1771.97230	         8.18087e+57
          1772.77860	         9.00024e+57
          1773.58490	         7.44525e+57
          1774.39120	         5.97664e+57
          1775.19750	         6.54078e+57
          1776.00380	         5.94868e+57
          1776.81010	         6.04368e+57
          1777.61640	         5.82445e+57
          1778.42270	         7.56920e+57
          1779.22900	         7.55302e+57
          1780.03530	         6.33893e+57
          1780.84160	         6.97822e+57
          1781.64790	         8.84941e+57
          1782.45420	         7.71811e+57
          1783.26050	         6.84278e+57
          1784.06680	         8.16159e+57
          1784.87310	         8.71513e+57
          1785.67940	         8.77385e+57
          1786.48570	         7.49786e+57
          1787.29200	         7.24030e+57
          1788.09830	         6.64209e+57
          1788.90460	         6.03998e+57
          1789.71090	         6.22481e+57
          1790.51720	         5.73017e+57
          1791.32350	         7.08948e+57
          1792.12980	         9.21601e+57
          1792.93610	         7.74941e+57
          1793.74240	         7.27866e+57
          1794.54870	         7.22790e+57
          1795.35500	         7.97403e+57
          1796.16130	         8.19036e+57
          1796.96760	         7.07030e+57
          1797.77390	         6.98649e+57
          1798.58020	         6.90194e+57
          1799.38650	         6.33453e+57
          1800.19280	         7.62439e+57
          1800.99910	         8.12747e+57
          1801.80540	         7.39285e+57
          1802.61170	         7.91277e+57
          1803.41800	         8.32890e+57
          1804.22430	         7.75771e+57
          1805.03060	         7.34105e+57
          1805.83690	         8.48975e+57
          1806.64320	         8.75372e+57
          1807.44950	         6.71774e+57
          1808.25580	         6.29973e+57
          1809.06210	         8.05701e+57
          1809.86840	         6.80574e+57
          1810.67470	         6.15229e+57
          1811.48100	         7.89099e+57
          1812.28730	         8.62552e+57
          1813.09360	         7.61968e+57
          1813.89990	         7.36142e+57
          1814.70620	         6.32849e+57
          1815.51250	         7.81407e+57
          1816.31880	         8.13743e+57
          1817.12510	         6.95019e+57
          1817.93140	         6.21141e+57
          1818.73770	         7.25625e+57
          1819.54400	         8.61882e+57
          1820.35030	         8.12812e+57
          1821.15660	         5.75268e+57
          1821.96290	         6.34348e+57
          1822.76920	         7.33404e+57
          1823.57550	         6.52038e+57
          1824.38180	         7.50720e+57
          1825.18810	         8.42548e+57
          1825.99440	         8.76176e+57
          1826.80070	         8.08445e+57
          1827.60700	         7.15361e+57
          1828.41330	         7.08182e+57
          1829.21960	         7.83278e+57
          1830.02590	         7.62384e+57
          1830.83220	         7.75847e+57
          1831.63850	         7.76609e+57
          1832.44480	         7.75153e+57
          1833.25110	         8.73848e+57
          1834.05740	         8.98879e+57
          1834.86370	         7.37275e+57
          1835.67000	         5.65556e+57
          1836.47630	         7.52630e+57
          1837.28260	         9.27731e+57
          1838.08890	         8.79446e+57
          1838.89520	         8.60821e+57
          1839.70150	         7.55808e+57
          1840.50780	         7.19345e+57
          1841.31410	         6.25446e+57
          1842.12040	         6.89980e+57
          1842.92670	         6.85641e+57
          1843.73300	         6.27380e+57
          1844.53930	         6.88703e+57
          1845.34560	         7.63180e+57
          1846.15190	         8.12310e+57
          1846.95820	         8.33093e+57
          1847.76450	         8.03405e+57
          1848.57080	         6.34854e+57
          1849.37710	         6.51352e+57
          1850.18340	         8.01782e+57
          1850.98970	         8.51386e+57
          1851.79600	         7.90158e+57
          1852.60230	         6.39486e+57
          1853.40860	         7.01139e+57
          1854.21490	         7.89247e+57
          1855.02120	         6.01151e+57
          1855.82750	         4.09920e+57
          1856.63380	         5.53443e+57
          1857.44010	         7.44323e+57
          1858.24640	         7.59126e+57
          1859.05270	         7.45315e+57
          1859.85900	         5.50626e+57
          1860.66530	         5.50850e+57
          1861.47160	         6.93732e+57
          1862.27790	         6.93038e+57
          1863.08420	         6.98170e+57
          1863.89050	         7.51259e+57
          1864.69680	         6.69767e+57
          1865.50310	         6.02636e+57
          1866.30940	         7.05334e+57
          1867.11570	         6.64058e+57
          1867.92200	         7.10624e+57
          1868.72830	         7.24506e+57
          1869.53460	         6.46875e+57
          1870.34090	         6.80469e+57
          1871.14720	         6.99582e+57
          1871.95350	         7.07442e+57
          1872.75980	         6.31850e+57
          1873.56610	         6.43351e+57
          1874.37240	         6.35862e+57
          1875.17870	         6.80301e+57
          1875.98500	         7.44209e+57
          1876.79130	         7.68250e+57
          1877.59760	         7.29209e+57
          1878.40390	         6.41478e+57
          1879.21020	         6.02338e+57
          1880.01650	         6.65081e+57
          1880.82280	         7.77591e+57
          1881.62910	         8.00379e+57
          1882.43540	         9.34444e+57
          1883.24170	         7.47437e+57
          1884.04800	         7.86533e+57
          1884.85430	         7.60668e+57
          1885.66060	         7.67054e+57
          1886.46690	         7.70069e+57
          1887.27320	         7.08027e+57
          1888.07950	         5.96624e+57
          1888.88580	         6.57130e+57
          1889.69210	         8.17259e+57
          1890.49840	         8.47328e+57
          1891.30470	         8.44006e+57
          1892.11100	         8.31116e+57
          1892.91730	         7.33025e+57
          1893.72360	         7.53081e+57
          1894.52990	         8.23112e+57
          1895.33620	         7.99887e+57
          1896.14250	         7.09141e+57
          1896.94880	         6.43498e+57
          1897.75510	         5.53942e+57
          1898.56140	         5.92179e+57
          1899.36770	         7.46922e+57
          1900.17400	         7.88859e+57
          1900.98030	         6.10881e+57
          1901.78660	         6.73452e+57
          1902.59290	         7.33839e+57
          1903.39920	         9.15050e+57
          1904.20550	         9.13159e+57
          1905.01180	         8.89905e+57
          1905.81810	         9.42948e+57
          1906.62440	         1.15153e+58
          1907.43070	         1.44660e+58
          1908.23700	         1.56496e+58
          1909.04330	         1.37404e+58
          1909.84960	         1.16631e+58
          1910.65590	         1.06184e+58
          1911.46220	         9.69846e+57
          1912.26850	         7.71329e+57
          1913.07480	         5.88230e+57
          1913.88110	         5.71932e+57
          1914.68740	         5.64456e+57
          1915.49370	         5.63692e+57
          1916.30000	         6.27592e+57
          1917.10630	         6.44798e+57
          1917.91260	         6.34176e+57
          1918.71890	         5.97332e+57
          1919.52520	         5.66720e+57
          1920.33150	         6.16061e+57
          1921.13780	         7.05928e+57
          1921.94410	         8.12949e+57
          1922.75040	         8.56256e+57
          1923.55670	         7.62399e+57
          1924.36300	         6.76612e+57
          1925.16930	         6.02970e+57
          1925.97560	         5.09537e+57
          1926.78190	         5.32179e+57
          1927.58820	         5.92474e+57
          1928.39450	         5.02201e+57
          1929.20080	         5.68879e+57
          1930.00710	         6.76955e+57
          1930.81340	         7.99351e+57
          1931.61970	         6.51909e+57
          1932.42600	         6.18972e+57
          1933.23230	         8.07620e+57
          1934.03860	         7.28625e+57
          1934.84490	         6.37724e+57
          1935.65120	         8.99374e+57
          1936.45750	         9.13149e+57
          1937.26380	         6.81857e+57
          1938.07010	         7.30661e+57
          1938.87640	         7.32037e+57
          1939.68270	         7.33030e+57
          1940.48900	         7.69299e+57
          1941.29530	         8.16988e+57
          1942.10160	         8.39682e+57
          1942.90790	         7.20505e+57
          1943.71420	         6.10764e+57
          1944.52050	         5.87234e+57
          1945.32680	         5.42514e+57
          1946.13310	         7.01457e+57
          1946.93940	         7.97954e+57
          1947.74570	         7.08491e+57
          1948.55200	         6.72779e+57
          1949.35830	         6.21328e+57
          1950.16460	         5.51180e+57
          1950.97090	         5.30713e+57
          1951.77720	         6.72946e+57
          1952.58350	         7.66260e+57
          1953.38980	         6.55029e+57
          1954.19610	         5.23712e+57
          1955.00240	         5.44310e+57
          1955.80870	         5.43418e+57
          1956.61500	         6.74713e+57
          1957.42130	         6.95065e+57
          1958.22760	         7.76686e+57
          1959.03390	         7.51620e+57
          1959.84020	         6.75035e+57
          1960.64650	         6.80563e+57
          1961.45280	         5.84093e+57
          1962.25910	         4.90803e+57
          1963.06540	         5.89135e+57
          1963.87170	         6.33643e+57
          1964.67800	         7.84592e+57
          1965.48430	         6.63095e+57
          1966.29060	         5.22426e+57
          1967.09690	         7.58948e+57
          1967.90320	         7.60966e+57
          1968.70950	         6.69770e+57
          1969.51580	         5.99839e+57
          1970.32210	         6.59597e+57
          1971.12840	         6.26263e+57
          1971.93470	         4.38229e+57
          1972.74100	         4.22304e+57
          1973.54730	         6.65417e+57
          1974.35360	         6.11793e+57
          1975.15990	         6.39267e+57
          1975.96620	         7.47334e+57
          1976.77250	         8.01024e+57
          1977.57880	         8.58198e+57
          1978.38510	         7.19554e+57
          1979.19140	         6.48537e+57
          1979.99770	         8.08461e+57
          1980.80400	         7.91688e+57
          1981.61030	         6.67504e+57
          1982.41660	         5.91461e+57
          1983.22290	         5.84686e+57
          1984.02920	         6.49322e+57
          1984.83550	         7.19362e+57
          1985.64180	         7.18310e+57
          1986.44810	         6.98365e+57
          1987.25440	         6.42492e+57
          1988.06070	         4.49087e+57
          1988.86700	         5.90035e+57
          1989.67330	         6.76538e+57
          1990.47960	         6.16882e+57
          1991.28590	         6.31774e+57
          1992.09220	         6.72018e+57
          1992.89850	         6.28505e+57
          1993.70480	         5.20394e+57
          1994.51110	         4.13517e+57
          1995.31740	         5.05806e+57
          1996.12370	         5.25691e+57
          1996.93000	         5.89147e+57
          1997.73630	         7.26644e+57
          1998.54260	         8.46116e+57
          1999.34890	         7.58988e+57
          2000.15520	         6.92355e+57
          2000.96150	         5.31408e+57
          2001.76780	         5.26899e+57
          2002.57410	         5.42919e+57
          2003.38040	         6.76831e+57
          2004.18670	         5.95856e+57
          2004.99300	         4.56478e+57
          2005.79930	         6.02967e+57
          2006.60560	         6.07671e+57
          2007.41190	         5.92574e+57
          2008.21820	         6.89133e+57
          2009.02450	         7.30937e+57
          2009.83080	         6.80299e+57
          2010.63710	         6.83317e+57
          2011.44340	         6.46144e+57
          2012.24970	         7.28649e+57
          2013.05600	         7.46607e+57
          2013.86230	         7.19522e+57
          2014.66860	         5.22055e+57
          2015.47490	         6.05479e+57
          2016.28120	         4.96795e+57
          2017.08750	         5.89862e+57
          2017.89380	         6.30620e+57
          2018.70010	         6.32263e+57
          2019.50640	         6.19754e+57
          2020.31270	         7.15779e+57
          2021.11900	         7.55679e+57
          2021.92530	         6.85799e+57
          2022.73160	         6.85397e+57
          2023.53790	         7.40546e+57
          2024.34420	         6.00723e+57
          2025.15050	         5.08193e+57
          2025.95680	         5.95241e+57
          2026.76310	         6.02382e+57
          2027.56940	         6.28539e+57
          2028.37570	         6.16852e+57
          2029.18200	         6.14432e+57
          2029.98830	         6.31182e+57
          2030.79460	         7.84607e+57
          2031.60090	         7.09028e+57
          2032.40720	         6.10207e+57
          2033.21350	         6.67797e+57
          2034.01980	         6.14356e+57
          2034.82610	         4.53467e+57
          2035.63240	         5.16527e+57
          2036.43870	         5.50621e+57
          2037.24500	         5.97438e+57
          2038.05130	         7.14794e+57
          2038.85760	         6.26332e+57
          2039.66390	         5.68934e+57
          2040.47020	         5.34797e+57
          2041.27650	         6.06930e+57
          2042.08280	         5.38979e+57
          2042.88910	         6.34213e+57
          2043.69540	         6.71178e+57
          2044.50170	         6.88399e+57
          2045.30800	         7.09114e+57
          2046.11430	         5.22467e+57
          2046.92060	         5.09074e+57
          2047.72690	         6.70898e+57
          2048.53320	         5.82244e+57
          2049.33950	         4.47051e+57
          2050.14580	         5.50185e+57
          2050.95210	         6.91417e+57
          2051.75840	         7.04264e+57
          2052.56470	         5.85192e+57
          2053.37100	         3.28465e+57
          2054.17730	         5.07782e+57
          2054.98360	         5.02458e+57
          2055.78990	         2.45594e+57
          2056.59620	         2.88232e+57
          2057.40250	         6.44342e+57
          2058.20880	         7.22003e+57
          2059.01510	         7.00956e+57
          2059.82140	         6.62039e+57
          2060.62770	         9.12617e+57
          2061.43400	         1.47097e+58
          2062.24030	         1.25135e+58
          2063.04660	         4.33586e+57
          2063.85290	         2.48990e+57
          2064.65920	        -1.75027e+57
          2065.46550	        -9.14782e+57
          2066.27180	        -7.59037e+57
          2067.07810	         4.22418e+57
          2067.88440	         5.26040e+57
          2068.69070	         7.25558e+57
          2069.49700	         5.59195e+57
          2070.30330	         3.90687e+57
          2071.10960	         6.65597e+57
          2071.91590	         6.22592e+57
          2072.72220	         3.86228e+57
          2073.52850	         5.05343e+57
          2074.33480	         5.21532e+57
          2075.14110	         5.20245e+57
          2075.94740	         3.31870e+57
          2076.75370	         5.19506e+57
          2077.56000	         5.27967e+57
          2078.36630	         5.56528e+57
          2079.17260	         4.89608e+57
          2079.97890	         4.62359e+57
          2080.78520	         6.28899e+57
          2081.59150	         4.43701e+57
          2082.39780	         5.02242e+57
          2083.20410	         1.94233e+57
          2084.01040	         2.45246e+57
          2084.81670	         2.71289e+57
          2085.62300	         3.47949e+57
          2086.42930	         5.61520e+57
          2087.23560	         4.68159e+57
          2088.04190	         3.10682e+57
          2088.84820	         4.73588e+57
          2089.65450	         1.86089e+57
          2090.46080	         1.05350e+57
          2091.26710	         3.99182e+57
          2092.07340	         2.81196e+57
          2092.87970	         3.15029e+57
          2093.68600	        -7.61205e+56
          2094.49230	         1.88664e+57
          2095.29860	         5.52284e+57
          2096.10490	         3.13837e+57
          2096.91120	         7.66050e+56
          2097.71750	         9.91969e+56
          2098.52380	        -8.47050e+55
          2099.33010	         1.88073e+57
          2100.13640	         2.19317e+57
          2100.94270	         3.05624e+57
          2101.74900	         1.99110e+57
          2102.55530	         1.58694e+57
          2103.36160	         1.98545e+57
          2104.16790	         5.61753e+57
          2104.97420	         4.04861e+57
          2105.78050	         2.40898e+57
          2106.58680	         7.35465e+56
          2107.39310	        -1.10005e+57
          2108.19940	         8.02219e+55
          2109.00570	        -9.08429e+56
          2109.81200	         8.45761e+56
          2110.61830	         7.01958e+55
          2111.42460	        -4.83898e+56
          2112.23090	        -2.32908e+57
          2113.03720	        -2.68059e+57
          2113.84350	        -1.69812e+57
          2114.64980	         8.13205e+57
          2115.45610	         7.45333e+56
          2116.26240	         1.00805e+57
          2117.06870	        -1.29710e+57
          2117.87500	        -1.34339e+57
          2118.68130	         4.41332e+55
          2119.48760	         9.39222e+57
          2120.29390	         5.34430e+56
          2121.10020	        -6.43081e+57
          2121.90650	        -1.77922e+57
          2122.71280	         1.36674e+57
          2123.51910	         7.65685e+57
          2124.32540	         1.01113e+57
          2125.13170	        -3.05305e+55
          2125.93800	         5.35208e+56
          2126.74430	        -6.35822e+57
          2127.55060	        -9.06824e+57
          2128.35690	        -4.85479e+57
          2129.16320	        -7.90417e+57
          2129.96950	        -3.55300e+57
          2130.77580	         4.21720e+57
          2131.58210	         5.74165e+57
          2132.38840	        -3.02514e+57
          2133.19470	        -3.13984e+57
          2134.00100	        -7.46302e+56
          2134.80730	        -1.16807e+58
          2135.61360	        -3.33630e+57
          2136.41990	         2.98650e+57
          2137.22620	         1.29306e+57
          2138.03250	        -2.78819e+56
          2138.83880	        -6.55236e+57
          2139.64510	        -2.40432e+57
          2140.45140	        -5.05486e+57
          2141.25770	        -6.99604e+57
          2142.06400	        -1.31329e+57
          2142.87030	         2.16063e+57
          2143.67660	         1.01207e+58
          2144.48290	        -1.45821e+57
          2145.28920	         5.08307e+57
          2146.09550	         4.82441e+55
          2146.90180	        -4.21998e+57
          2147.70810	        -3.51210e+57
          2148.51440	        -8.26562e+56
          2149.32070	        -1.11536e+58
          2150.12700	        -1.46345e+58
          2150.93330	         8.70444e+56
          2151.73960	        -4.25991e+56
          2152.54590	         5.05631e+57
          2153.35220	         8.59088e+57
          2154.15850	        -1.01870e+58
          2154.96480	        -5.15206e+57
          2155.77110	         6.28227e+57
          2156.57740	         8.39661e+57
          2157.38370	         3.75059e+57
          2158.19000	         4.74622e+57
          2158.99630	        -7.23730e+56
          2159.80260	        -7.37677e+57
          2160.60890	        -7.05965e+57
          2161.41520	         2.40864e+57
          2162.22150	         3.51789e+57
          2163.02780	         1.06480e+57
          2163.83410	        -1.66104e+57
          2164.64040	        -3.93999e+57
          2165.44670	        -2.97389e+57
          2166.25300	        -1.63896e+58
          2167.05930	        -2.01872e+58
          2167.86560	        -2.04480e+58
          2168.67190	        -1.64744e+58
          2169.47820	        -1.82475e+58
          2170.28450	        -6.87850e+57
          2171.09080	        -1.90971e+57
          2171.89710	         2.38071e+57
          2172.70340	         2.02684e+57
          2173.50970	        -7.21827e+57
          2174.31600	        -1.34988e+57
          2175.12230	        -9.23906e+56
          2175.92860	        -4.75780e+57
          2176.73490	        -6.57158e+57
          2177.54120	        -6.62602e+57
          2178.34750	        -3.85286e+57
          2179.15380	                 nan
          2179.96010	                 nan
          2180.76640	                 nan
          2181.57270	                 nan
          2182.37900	                 nan
          2183.18530	                 nan
          2183.99160	                 nan
          2184.79790	                 nan
          2185.60420	                 nan
          2186.41050	                 nan
          2187.21680	                 nan
          2188.02310	                 nan
          2188.82940	                 nan
          2189.63570	                 nan
          2190.44200	                 nan
          2191.24830	                 nan
          2192.05460	                 nan
          2192.86090	                 nan
          2193.66720	                 nan
          2194.47350	                 nan
          2195.27980	                 nan
          2196.08610	                 nan
          2196.89240	                 nan
          2197.69870	                 nan
          2198.50500	                 nan
          2199.31130	                 nan
          2200.11760	                 nan
          2200.92390	                 nan
          2201.73020	                 nan
          2202.53650	                 nan
          2203.34280	                 nan
          2204.14910	                 nan
          2204.95540	                 nan
          2205.76170	                 nan
          2206.56800	                 nan
          2207.37430	                 nan
          2208.18060	                 nan
          2208.98690	                 nan
          2209.79320	                 nan
          2210.59950	                 nan
          2211.40580	                 nan
          2212.21210	                 nan
          2213.01840	                 nan
          2213.82470	                 nan
          2214.63100	                 nan
          2215.43730	         0.00000e+00
