#sample_60_stacked_spectrum_rest_UV-bands_median_H-alpha_noDC.txt
#median Lum: 1.67790e+42
#Rest-frame wavelength (A) | Luminosity (erg/s/A)
#
          1110.00000	         0.00000e+00
          1110.80630	         6.38078e+58
          1111.61260	        -1.12370e+59
          1112.41890	         5.95302e+58
          1113.22520	        -6.85059e+58
          1114.03150	        -1.28786e+59
          1114.83780	         5.65661e+58
          1115.64410	         1.12524e+59
          1116.45040	         2.82423e+59
          1117.25670	         5.78108e+58
          1118.06300	         4.80554e+58
          1118.86930	        -1.48255e+58
          1119.67560	         2.08050e+58
          1120.48190	        -1.37511e+58
          1121.28820	        -8.56398e+58
          1122.09450	         9.14295e+58
          1122.90080	         9.09092e+58
          1123.70710	         2.61233e+58
          1124.51340	         1.15373e+59
          1125.31970	         9.16880e+57
          1126.12600	        -1.68919e+58
          1126.93230	        -4.15275e+58
          1127.73860	         8.00894e+57
          1128.54490	         1.54549e+58
          1129.35120	         1.00904e+58
          1130.15750	        -1.67634e+58
          1130.96380	        -2.72790e+58
          1131.77010	         2.04963e+58
          1132.57640	         4.06522e+58
          1133.38270	         4.83104e+58
          1134.18900	         3.17963e+58
          1134.99530	         6.16047e+57
          1135.80160	         4.51783e+58
          1136.60790	         1.09118e+58
          1137.41420	         3.84295e+57
          1138.22050	         3.21849e+58
          1139.02680	         1.88752e+58
          1139.83310	         2.27262e+58
          1140.63940	         1.63679e+58
          1141.44570	        -2.14903e+57
          1142.25200	        -6.37866e+57
          1143.05830	         3.69518e+57
          1143.86460	         1.14347e+58
          1144.67090	         2.86293e+58
          1145.47720	         3.88196e+57
          1146.28350	         1.62978e+58
          1147.08980	         2.05000e+58
          1147.89610	         2.38009e+58
          1148.70240	         1.87417e+58
          1149.50870	         1.79684e+58
          1150.31500	         9.57067e+57
          1151.12130	         1.26739e+58
          1151.92760	         9.88756e+57
          1152.73390	         1.36598e+58
          1153.54020	         2.75600e+57
          1154.34650	         1.94791e+58
          1155.15280	         1.36285e+58
          1155.95910	         5.98258e+57
          1156.76540	         1.19989e+58
          1157.57170	        -4.09277e+56
          1158.37800	         1.33338e+57
          1159.18430	        -9.72163e+57
          1159.99060	         4.96134e+57
          1160.79690	         1.31335e+58
          1161.60320	         1.87739e+58
          1162.40950	         1.64758e+58
          1163.21580	         1.52439e+58
          1164.02210	         6.13842e+57
          1164.82840	         2.56454e+57
          1165.63470	         1.84374e+58
          1166.44100	         3.55316e+58
          1167.24730	         2.56822e+58
          1168.05360	         8.07490e+57
          1168.85990	         6.15199e+57
          1169.66620	         9.51363e+57
          1170.47250	         1.30495e+58
          1171.27880	         1.30405e+58
          1172.08510	         9.82298e+57
          1172.89140	         1.10832e+58
          1173.69770	         6.51032e+57
          1174.50400	         1.08776e+58
          1175.31030	         2.01073e+58
          1176.11660	         2.11943e+58
          1176.92290	         1.47823e+58
          1177.72920	         1.13566e+58
          1178.53550	         9.06960e+57
          1179.34180	         2.78512e+57
          1180.14810	         5.31391e+57
          1180.95440	         6.37127e+57
          1181.76070	         2.03954e+57
          1182.56700	         7.12572e+57
          1183.37330	         8.93883e+57
          1184.17960	         1.05352e+58
          1184.98590	         7.75904e+57
          1185.79220	         2.49818e+57
          1186.59850	         9.08080e+57
          1187.40480	         1.27498e+58
          1188.21110	         1.89375e+58
          1189.01740	         1.35769e+58
          1189.82370	         6.50862e+57
          1190.63000	         1.14864e+58
          1191.43630	         1.59126e+58
          1192.24260	         1.28330e+58
          1193.04890	         1.21106e+58
          1193.85520	         1.23166e+58
          1194.66150	         8.86100e+57
          1195.46780	         1.04239e+58
          1196.27410	         1.22552e+58
          1197.08040	         9.18550e+57
          1197.88670	         9.38351e+57
          1198.69300	         1.07715e+58
          1199.49930	         1.14541e+58
          1200.30560	         9.74577e+57
          1201.11190	         9.37639e+57
          1201.91820	         9.99912e+57
          1202.72450	         7.91518e+57
          1203.53080	         1.23045e+58
          1204.33710	         9.80862e+57
          1205.14340	         6.89846e+57
          1205.94970	         7.01462e+57
          1206.75600	         5.94969e+57
          1207.56230	         6.54710e+57
          1208.36860	         8.98726e+57
          1209.17490	         6.00754e+57
          1209.98120	         6.42832e+57
          1210.78750	         8.88671e+57
          1211.59380	         1.36460e+58
          1212.40010	         1.60660e+58
          1213.20640	         1.69550e+58
          1214.01270	         2.13924e+58
          1214.81900	         2.72943e+58
          1215.62530	         4.44308e+58
          1216.43160	         8.88774e+58
          1217.23790	         1.53173e+59
          1218.04420	         1.12643e+59
          1218.85050	         8.12064e+58
          1219.65680	         5.20832e+58
          1220.46310	         3.16288e+58
          1221.26940	         2.52619e+58
          1222.07570	         1.47614e+58
          1222.88200	         8.91433e+57
          1223.68830	         9.67076e+57
          1224.49460	         8.31888e+57
          1225.30090	         5.45250e+57
          1226.10720	         6.93805e+57
          1226.91350	         7.76851e+57
          1227.71980	         6.87613e+57
          1228.52610	         1.02997e+58
          1229.33240	         7.36965e+57
          1230.13870	         8.71350e+57
          1230.94500	         1.12868e+58
          1231.75130	         6.64617e+57
          1232.55760	         9.15916e+57
          1233.36390	         8.72856e+57
          1234.17020	         8.30496e+57
          1234.97650	         7.07145e+57
          1235.78280	         7.88802e+57
          1236.58910	         7.99486e+57
          1237.39540	         8.54254e+57
          1238.20170	         9.84926e+57
          1239.00800	         1.13623e+58
          1239.81430	         1.03837e+58
          1240.62060	         9.11053e+57
          1241.42690	         1.02914e+58
          1242.23320	         1.03673e+58
          1243.03950	         7.66351e+57
          1243.84580	         7.67027e+57
          1244.65210	         7.96644e+57
          1245.45840	         8.96934e+57
          1246.26470	         9.35700e+57
          1247.07100	         6.55646e+57
          1247.87730	         4.35539e+57
          1248.68360	         6.57314e+57
          1249.48990	         7.32716e+57
          1250.29620	         6.53271e+57
          1251.10250	         6.52601e+57
          1251.90880	         5.20060e+57
          1252.71510	         3.44061e+57
          1253.52140	         6.01485e+57
          1254.32770	         9.44376e+57
          1255.13400	         1.29083e+58
          1255.94030	         1.12264e+58
          1256.74660	         1.09539e+58
          1257.55290	         1.39540e+58
          1258.35920	         8.90645e+57
          1259.16550	         5.07563e+57
          1259.97180	         5.85669e+57
          1260.77810	         7.50303e+57
          1261.58440	         9.33559e+57
          1262.39070	         8.04971e+57
          1263.19700	         8.65631e+57
          1264.00330	         8.58264e+57
          1264.80960	         9.65800e+57
          1265.61590	         1.29454e+58
          1266.42220	         1.32827e+58
          1267.22850	         1.12562e+58
          1268.03480	         1.20343e+58
          1268.84110	         1.49156e+58
          1269.64740	         1.26550e+58
          1270.45370	         1.13339e+58
          1271.26000	         1.09641e+58
          1272.06630	         1.14508e+58
          1272.87260	         1.27570e+58
          1273.67890	         1.15852e+58
          1274.48520	         1.16972e+58
          1275.29150	         1.30569e+58
          1276.09780	         1.16145e+58
          1276.90410	         1.51075e+58
          1277.71040	         1.44324e+58
          1278.51670	         1.12288e+58
          1279.32300	         1.19507e+58
          1280.12930	         1.15113e+58
          1280.93560	         1.20730e+58
          1281.74190	         1.18837e+58
          1282.54820	         1.30532e+58
          1283.35450	         1.31444e+58
          1284.16080	         1.09552e+58
          1284.96710	         1.22165e+58
          1285.77340	         1.25329e+58
          1286.57970	         1.00763e+58
          1287.38600	         1.19520e+58
          1288.19230	         1.70825e+58
          1288.99860	         1.62365e+58
          1289.80490	         1.19545e+58
          1290.61120	         1.38273e+58
          1291.41750	         1.44959e+58
          1292.22380	         1.14669e+58
          1293.03010	         1.00199e+58
          1293.83640	         9.64592e+57
          1294.64270	         9.46057e+57
          1295.44900	         7.47566e+57
          1296.25530	         6.85364e+57
          1297.06160	         1.06358e+58
          1297.86790	         1.15374e+58
          1298.67420	         1.00971e+58
          1299.48050	         1.14628e+58
          1300.28680	         1.14928e+58
          1301.09310	         8.84035e+57
          1301.89940	         4.64213e+57
          1302.70570	         5.88140e+57
          1303.51200	         7.21803e+57
          1304.31830	         9.24116e+57
          1305.12460	         1.05614e+58
          1305.93090	         1.14800e+58
          1306.73720	         1.20001e+58
          1307.54350	         1.28644e+58
          1308.34980	         1.48577e+58
          1309.15610	         1.64857e+58
          1309.96240	         1.53047e+58
          1310.76870	         1.30634e+58
          1311.57500	         1.25063e+58
          1312.38130	         1.14349e+58
          1313.18760	         1.43730e+58
          1313.99390	         1.48105e+58
          1314.80020	         1.66762e+58
          1315.60650	         1.56224e+58
          1316.41280	         1.16104e+58
          1317.21910	         1.04837e+58
          1318.02540	         1.34018e+58
          1318.83170	         1.37425e+58
          1319.63800	         1.17111e+58
          1320.44430	         1.07779e+58
          1321.25060	         1.08134e+58
          1322.05690	         1.22838e+58
          1322.86320	         1.13738e+58
          1323.66950	         1.01408e+58
          1324.47580	         8.87941e+57
          1325.28210	         9.31224e+57
          1326.08840	         1.16198e+58
          1326.89470	         1.24148e+58
          1327.70100	         9.96119e+57
          1328.50730	         8.68443e+57
          1329.31360	         9.94143e+57
          1330.11990	         9.26568e+57
          1330.92620	         8.15302e+57
          1331.73250	         9.57676e+57
          1332.53880	         9.59621e+57
          1333.34510	         8.99013e+57
          1334.15140	         8.93283e+57
          1334.95770	         8.66539e+57
          1335.76400	         1.00802e+58
          1336.57030	         1.10184e+58
          1337.37660	         1.15362e+58
          1338.18290	         1.17604e+58
          1338.98920	         1.18215e+58
          1339.79550	         1.27017e+58
          1340.60180	         1.25663e+58
          1341.40810	         1.33551e+58
          1342.21440	         1.26725e+58
          1343.02070	         1.35402e+58
          1343.82700	         1.30679e+58
          1344.63330	         1.21018e+58
          1345.43960	         1.41127e+58
          1346.24590	         1.09752e+58
          1347.05220	         1.03973e+58
          1347.85850	         1.00296e+58
          1348.66480	         1.09612e+58
          1349.47110	         1.24066e+58
          1350.27740	         1.16937e+58
          1351.08370	         1.14931e+58
          1351.89000	         1.03057e+58
          1352.69630	         1.08923e+58
          1353.50260	         1.15350e+58
          1354.30890	         1.21942e+58
          1355.11520	         1.21371e+58
          1355.92150	         1.17070e+58
          1356.72780	         1.19661e+58
          1357.53410	         1.18666e+58
          1358.34040	         1.06197e+58
          1359.14670	         1.06554e+58
          1359.95300	         1.17720e+58
          1360.75930	         1.13236e+58
          1361.56560	         1.08254e+58
          1362.37190	         1.09908e+58
          1363.17820	         1.06820e+58
          1363.98450	         1.23802e+58
          1364.79080	         1.28015e+58
          1365.59710	         1.21831e+58
          1366.40340	         1.10756e+58
          1367.20970	         8.31578e+57
          1368.01600	         8.08449e+57
          1368.82230	         9.43204e+57
          1369.62860	         1.13399e+58
          1370.43490	         1.04051e+58
          1371.24120	         8.83467e+57
          1372.04750	         7.86954e+57
          1372.85380	         9.67459e+57
          1373.66010	         9.81864e+57
          1374.46640	         1.07636e+58
          1375.27270	         1.13273e+58
          1376.07900	         9.91707e+57
          1376.88530	         8.82967e+57
          1377.69160	         8.50156e+57
          1378.49790	         7.26154e+57
          1379.30420	         6.99227e+57
          1380.11050	         9.28594e+57
          1380.91680	         8.20118e+57
          1381.72310	         7.19062e+57
          1382.52940	         7.82404e+57
          1383.33570	         6.57160e+57
          1384.14200	         6.79385e+57
          1384.94830	         8.75892e+57
          1385.75460	         9.81159e+57
          1386.56090	         1.08722e+58
          1387.36720	         1.09040e+58
          1388.17350	         1.22935e+58
          1388.97980	         1.25292e+58
          1389.78610	         9.66472e+57
          1390.59240	         7.86005e+57
          1391.39870	         7.84347e+57
          1392.20500	         9.38763e+57
          1393.01130	         9.10827e+57
          1393.81760	         7.21350e+57
          1394.62390	         7.81495e+57
          1395.43020	         7.67388e+57
          1396.23650	         7.78022e+57
          1397.04280	         7.58557e+57
          1397.84910	         7.76465e+57
          1398.65540	         7.58744e+57
          1399.46170	         8.32522e+57
          1400.26800	         7.63352e+57
          1401.07430	         7.13813e+57
          1401.88060	         8.14628e+57
          1402.68690	         1.04563e+58
          1403.49320	         9.89525e+57
          1404.29950	         8.58042e+57
          1405.10580	         9.96969e+57
          1405.91210	         1.14066e+58
          1406.71840	         1.22355e+58
          1407.52470	         1.13373e+58
          1408.33100	         1.09568e+58
          1409.13730	         1.19574e+58
          1409.94360	         1.12541e+58
          1410.74990	         1.19250e+58
          1411.55620	         1.00649e+58
          1412.36250	         8.03863e+57
          1413.16880	         9.24254e+57
          1413.97510	         8.40897e+57
          1414.78140	         1.01861e+58
          1415.58770	         1.10294e+58
          1416.39400	         1.06251e+58
          1417.20030	         1.09129e+58
          1418.00660	         9.47100e+57
          1418.81290	         9.22375e+57
          1419.61920	         1.05007e+58
          1420.42550	         1.21959e+58
          1421.23180	         1.33149e+58
          1422.03810	         1.25380e+58
          1422.84440	         1.19818e+58
          1423.65070	         1.33671e+58
          1424.45700	         1.12878e+58
          1425.26330	         9.14883e+57
          1426.06960	         9.18757e+57
          1426.87590	         9.76690e+57
          1427.68220	         1.04020e+58
          1428.48850	         1.14504e+58
          1429.29480	         1.12923e+58
          1430.10110	         1.08466e+58
          1430.90740	         9.22846e+57
          1431.71370	         8.24611e+57
          1432.52000	         8.74479e+57
          1433.32630	         7.87954e+57
          1434.13260	         8.05888e+57
          1434.93890	         8.45990e+57
          1435.74520	         8.32743e+57
          1436.55150	         9.50519e+57
          1437.35780	         8.54861e+57
          1438.16410	         8.76637e+57
          1438.97040	         9.08215e+57
          1439.77670	         8.65668e+57
          1440.58300	         9.78727e+57
          1441.38930	         1.05378e+58
          1442.19560	         1.06034e+58
          1443.00190	         1.10206e+58
          1443.80820	         1.13160e+58
          1444.61450	         9.96131e+57
          1445.42080	         8.20182e+57
          1446.22710	         9.95580e+57
          1447.03340	         9.94498e+57
          1447.83970	         9.48091e+57
          1448.64600	         9.79393e+57
          1449.45230	         1.00223e+58
          1450.25860	         1.13746e+58
          1451.06490	         1.02578e+58
          1451.87120	         8.27229e+57
          1452.67750	         8.21345e+57
          1453.48380	         8.70600e+57
          1454.29010	         8.38057e+57
          1455.09640	         8.29253e+57
          1455.90270	         8.59751e+57
          1456.70900	         9.40199e+57
          1457.51530	         1.03835e+58
          1458.32160	         1.19611e+58
          1459.12790	         1.24156e+58
          1459.93420	         1.08095e+58
          1460.74050	         8.42655e+57
          1461.54680	         8.79682e+57
          1462.35310	         8.80677e+57
          1463.15940	         8.91706e+57
          1463.96570	         9.92647e+57
          1464.77200	         1.11727e+58
          1465.57830	         1.02006e+58
          1466.38460	         8.40933e+57
          1467.19090	         8.72535e+57
          1467.99720	         8.44143e+57
          1468.80350	         9.36349e+57
          1469.60980	         9.66184e+57
          1470.41610	         1.00923e+58
          1471.22240	         9.68145e+57
          1472.02870	         1.03151e+58
          1472.83500	         9.84293e+57
          1473.64130	         9.37336e+57
          1474.44760	         9.34002e+57
          1475.25390	         1.01295e+58
          1476.06020	         9.22925e+57
          1476.86650	         8.88038e+57
          1477.67280	         8.17612e+57
          1478.47910	         7.06290e+57
          1479.28540	         6.67542e+57
          1480.09170	         7.70311e+57
          1480.89800	         7.99486e+57
          1481.70430	         8.18170e+57
          1482.51060	         7.95137e+57
          1483.31690	         7.70051e+57
          1484.12320	         8.63170e+57
          1484.92950	         8.49573e+57
          1485.73580	         7.89715e+57
          1486.54210	         8.04479e+57
          1487.34840	         8.26906e+57
          1488.15470	         8.14931e+57
          1488.96100	         8.57298e+57
          1489.76730	         9.18546e+57
          1490.57360	         8.65613e+57
          1491.37990	         7.44295e+57
          1492.18620	         7.72773e+57
          1492.99250	         8.04832e+57
          1493.79880	         7.88303e+57
          1494.60510	         8.89520e+57
          1495.41140	         8.24473e+57
          1496.21770	         8.07311e+57
          1497.02400	         1.01946e+58
          1497.83030	         9.17119e+57
          1498.63660	         7.74047e+57
          1499.44290	         7.74764e+57
          1500.24920	         7.52884e+57
          1501.05550	         7.88871e+57
          1501.86180	         8.48119e+57
          1502.66810	         9.23938e+57
          1503.47440	         9.57049e+57
          1504.28070	         8.25283e+57
          1505.08700	         8.21532e+57
          1505.89330	         8.15375e+57
          1506.69960	         7.69505e+57
          1507.50590	         7.92543e+57
          1508.31220	         8.89901e+57
          1509.11850	         9.20335e+57
          1509.92480	         9.70506e+57
          1510.73110	         9.09862e+57
          1511.53740	         6.86969e+57
          1512.34370	         6.86234e+57
          1513.15000	         8.50537e+57
          1513.95630	         1.01625e+58
          1514.76260	         9.28389e+57
          1515.56890	         8.10968e+57
          1516.37520	         8.72723e+57
          1517.18150	         8.28758e+57
          1517.98780	         7.10635e+57
          1518.79410	         7.22571e+57
          1519.60040	         8.51379e+57
          1520.40670	         1.05454e+58
          1521.21300	         1.02461e+58
          1522.01930	         8.59832e+57
          1522.82560	         8.08274e+57
          1523.63190	         8.60672e+57
          1524.43820	         7.96594e+57
          1525.24450	         6.46988e+57
          1526.05080	         5.86048e+57
          1526.85710	         5.72642e+57
          1527.66340	         6.87820e+57
          1528.46970	         7.78404e+57
          1529.27600	         6.97795e+57
          1530.08230	         6.73374e+57
          1530.88860	         7.95621e+57
          1531.69490	         8.39979e+57
          1532.50120	         9.51732e+57
          1533.30750	         1.02056e+58
          1534.11380	         1.02543e+58
          1534.92010	         1.00959e+58
          1535.72640	         9.06570e+57
          1536.53270	         8.83872e+57
          1537.33900	         8.48297e+57
          1538.14530	         9.13083e+57
          1538.95160	         9.20311e+57
          1539.75790	         8.43839e+57
          1540.56420	         8.69958e+57
          1541.37050	         7.93364e+57
          1542.17680	         6.93910e+57
          1542.98310	         7.40248e+57
          1543.78940	         8.23943e+57
          1544.59570	         8.82611e+57
          1545.40200	         8.94506e+57
          1546.20830	         8.84060e+57
          1547.01460	         1.00018e+58
          1547.82090	         1.15199e+58
          1548.62720	         1.17775e+58
          1549.43350	         1.16203e+58
          1550.23980	         9.95795e+57
          1551.04610	         1.13221e+58
          1551.85240	         1.28147e+58
          1552.65870	         1.16401e+58
          1553.46500	         1.01854e+58
          1554.27130	         1.01029e+58
          1555.07760	         1.01415e+58
          1555.88390	         9.21842e+57
          1556.69020	         8.42615e+57
          1557.49650	         8.88848e+57
          1558.30280	         8.78074e+57
          1559.10910	         8.90126e+57
          1559.91540	         8.97205e+57
          1560.72170	         8.26940e+57
          1561.52800	         7.97807e+57
          1562.33430	         7.87066e+57
          1563.14060	         8.29910e+57
          1563.94690	         8.86906e+57
          1564.75320	         8.44207e+57
          1565.55950	         7.07856e+57
          1566.36580	         7.58298e+57
          1567.17210	         9.09241e+57
          1567.97840	         1.04129e+58
          1568.78470	         9.28205e+57
          1569.59100	         8.95491e+57
          1570.39730	         9.03918e+57
          1571.20360	         8.09224e+57
          1572.00990	         7.96488e+57
          1572.81620	         9.38429e+57
          1573.62250	         1.04915e+58
          1574.42880	         9.34981e+57
          1575.23510	         7.98554e+57
          1576.04140	         8.15820e+57
          1576.84770	         9.02817e+57
          1577.65400	         1.01927e+58
          1578.46030	         1.02709e+58
          1579.26660	         1.05366e+58
          1580.07290	         9.44116e+57
          1580.87920	         7.16835e+57
          1581.68550	         7.79454e+57
          1582.49180	         8.02530e+57
          1583.29810	         8.25833e+57
          1584.10440	         8.88460e+57
          1584.91070	         8.05027e+57
          1585.71700	         8.90003e+57
          1586.52330	         9.72191e+57
          1587.32960	         9.08526e+57
          1588.13590	         8.95077e+57
          1588.94220	         8.59492e+57
          1589.74850	         8.56468e+57
          1590.55480	         9.31426e+57
          1591.36110	         8.78719e+57
          1592.16740	         8.26459e+57
          1592.97370	         8.18741e+57
          1593.78000	         8.89948e+57
          1594.58630	         9.23679e+57
          1595.39260	         8.54625e+57
          1596.19890	         8.97463e+57
          1597.00520	         8.55602e+57
          1597.81150	         7.64517e+57
          1598.61780	         6.62995e+57
          1599.42410	         6.44326e+57
          1600.23040	         6.82882e+57
          1601.03670	         7.74872e+57
          1601.84300	         7.84013e+57
          1602.64930	         8.00137e+57
          1603.45560	         8.57898e+57
          1604.26190	         8.75300e+57
          1605.06820	         8.06649e+57
          1605.87450	         6.78185e+57
          1606.68080	         7.06821e+57
          1607.48710	         6.13827e+57
          1608.29340	         5.15446e+57
          1609.09970	         6.90217e+57
          1609.90600	         8.40776e+57
          1610.71230	         6.66430e+57
          1611.51860	         6.52602e+57
          1612.32490	         7.05605e+57
          1613.13120	         8.53970e+57
          1613.93750	         8.08085e+57
          1614.74380	         8.01620e+57
          1615.55010	         8.00369e+57
          1616.35640	         8.77486e+57
          1617.16270	         9.94848e+57
          1617.96900	         1.00873e+58
          1618.77530	         8.48668e+57
          1619.58160	         7.88022e+57
          1620.38790	         8.62184e+57
          1621.19420	         9.06990e+57
          1622.00050	         7.31678e+57
          1622.80680	         7.81411e+57
          1623.61310	         8.60223e+57
          1624.41940	         9.25901e+57
          1625.22570	         9.87214e+57
          1626.03200	         8.57574e+57
          1626.83830	         7.66485e+57
          1627.64460	         6.96652e+57
          1628.45090	         6.63190e+57
          1629.25720	         8.40254e+57
          1630.06350	         9.84906e+57
          1630.86980	         7.71111e+57
          1631.67610	         8.57506e+57
          1632.48240	         8.54171e+57
          1633.28870	         7.94057e+57
          1634.09500	         8.69760e+57
          1634.90130	         9.43809e+57
          1635.70760	         8.52829e+57
          1636.51390	         6.27092e+57
          1637.32020	         7.41152e+57
          1638.12650	         9.02147e+57
          1638.93280	         9.52428e+57
          1639.73910	         1.03145e+58
          1640.54540	         1.02595e+58
          1641.35170	         8.17298e+57
          1642.15800	         9.16582e+57
          1642.96430	         9.47451e+57
          1643.77060	         8.71130e+57
          1644.57690	         9.06480e+57
          1645.38320	         8.00830e+57
          1646.18950	         7.02120e+57
          1646.99580	         8.27102e+57
          1647.80210	         8.26945e+57
          1648.60840	         7.70660e+57
          1649.41470	         8.19359e+57
          1650.22100	         6.84867e+57
          1651.02730	         6.73148e+57
          1651.83360	         7.20334e+57
          1652.63990	         7.93543e+57
          1653.44620	         9.00792e+57
          1654.25250	         8.71978e+57
          1655.05880	         7.04907e+57
          1655.86510	         7.61675e+57
          1656.67140	         8.70318e+57
          1657.47770	         8.20992e+57
          1658.28400	         7.84683e+57
          1659.09030	         8.46230e+57
          1659.89660	         9.05889e+57
          1660.70290	         9.02233e+57
          1661.50920	         8.74819e+57
          1662.31550	         8.17177e+57
          1663.12180	         7.42074e+57
          1663.92810	         9.30543e+57
          1664.73440	         1.07642e+58
          1665.54070	         1.16281e+58
          1666.34700	         1.23032e+58
          1667.15330	         1.11102e+58
          1667.95960	         9.53959e+57
          1668.76590	         8.40784e+57
          1669.57220	         8.03991e+57
          1670.37850	         8.09016e+57
          1671.18480	         7.68387e+57
          1671.99110	         7.17047e+57
          1672.79740	         7.49937e+57
          1673.60370	         7.13968e+57
          1674.41000	         7.45536e+57
          1675.21630	         6.72112e+57
          1676.02260	         6.17072e+57
          1676.82890	         6.46960e+57
          1677.63520	         7.11532e+57
          1678.44150	         7.92872e+57
          1679.24780	         9.13583e+57
          1680.05410	         7.00918e+57
          1680.86040	         5.56790e+57
          1681.66670	         7.57028e+57
          1682.47300	         8.29319e+57
          1683.27930	         7.75144e+57
          1684.08560	         8.56930e+57
          1684.89190	         7.94736e+57
          1685.69820	         6.19115e+57
          1686.50450	         5.30377e+57
          1687.31080	         6.88037e+57
          1688.11710	         7.72564e+57
          1688.92340	         6.41330e+57
          1689.72970	         6.65546e+57
          1690.53600	         7.22104e+57
          1691.34230	         6.96241e+57
          1692.14860	         7.93986e+57
          1692.95490	         7.39685e+57
          1693.76120	         6.55892e+57
          1694.56750	         6.78070e+57
          1695.37380	         8.26358e+57
          1696.18010	         7.93327e+57
          1696.98640	         7.06789e+57
          1697.79270	         6.97050e+57
          1698.59900	         7.37118e+57
          1699.40530	         7.78746e+57
          1700.21160	         8.31020e+57
          1701.01790	         8.74234e+57
          1701.82420	         6.63798e+57
          1702.63050	         7.40587e+57
          1703.43680	         1.02319e+58
          1704.24310	         9.74045e+57
          1705.04940	         7.49397e+57
          1705.85570	         7.19040e+57
          1706.66200	         8.09451e+57
          1707.46830	         8.41957e+57
          1708.27460	         8.39687e+57
          1709.08090	         7.74147e+57
          1709.88720	         6.10099e+57
          1710.69350	         6.14212e+57
          1711.49980	         6.76770e+57
          1712.30610	         7.15462e+57
          1713.11240	         9.02271e+57
          1713.91870	         8.86852e+57
          1714.72500	         8.51306e+57
          1715.53130	         9.11373e+57
          1716.33760	         7.60477e+57
          1717.14390	         7.30360e+57
          1717.95020	         8.75810e+57
          1718.75650	         8.71829e+57
          1719.56280	         8.49422e+57
          1720.36910	         7.44123e+57
          1721.17540	         6.84033e+57
          1721.98170	         6.65131e+57
          1722.78800	         7.12155e+57
          1723.59430	         7.45148e+57
          1724.40060	         8.49107e+57
          1725.20690	         8.61593e+57
          1726.01320	         7.48024e+57
          1726.81950	         6.48271e+57
          1727.62580	         6.86258e+57
          1728.43210	         7.14224e+57
          1729.23840	         7.73683e+57
          1730.04470	         8.05465e+57
          1730.85100	         7.94879e+57
          1731.65730	         7.91365e+57
          1732.46360	         8.47441e+57
          1733.26990	         7.01263e+57
          1734.07620	         6.28540e+57
          1734.88250	         7.48730e+57
          1735.68880	         7.61856e+57
          1736.49510	         7.36794e+57
          1737.30140	         7.89339e+57
          1738.10770	         7.87521e+57
          1738.91400	         8.08858e+57
          1739.72030	         7.81255e+57
          1740.52660	         6.37885e+57
          1741.33290	         5.26591e+57
          1742.13920	         5.60344e+57
          1742.94550	         7.61473e+57
          1743.75180	         7.75835e+57
          1744.55810	         7.34792e+57
          1745.36440	         7.70364e+57
          1746.17070	         6.02182e+57
          1746.97700	         5.03998e+57
          1747.78330	         6.20600e+57
          1748.58960	         6.50815e+57
          1749.39590	         6.02884e+57
          1750.20220	         6.20070e+57
          1751.00850	         5.19973e+57
          1751.81480	         5.56584e+57
          1752.62110	         7.00424e+57
          1753.42740	         8.06957e+57
          1754.23370	         7.53817e+57
          1755.04000	         6.78792e+57
          1755.84630	         7.26701e+57
          1756.65260	         7.86170e+57
          1757.45890	         7.87546e+57
          1758.26520	         7.80134e+57
          1759.07150	         9.80641e+57
          1759.87780	         9.98176e+57
          1760.68410	         9.35009e+57
          1761.49040	         8.18572e+57
          1762.29670	         6.49318e+57
          1763.10300	         7.48170e+57
          1763.90930	         7.97041e+57
          1764.71560	         8.62525e+57
          1765.52190	         7.99989e+57
          1766.32820	         8.47709e+57
          1767.13450	         8.57559e+57
          1767.94080	         6.76480e+57
          1768.74710	         7.18581e+57
          1769.55340	         7.72357e+57
          1770.35970	         6.30327e+57
          1771.16600	         7.31576e+57
          1771.97230	         8.27133e+57
          1772.77860	         8.91459e+57
          1773.58490	         7.62897e+57
          1774.39120	         6.14232e+57
          1775.19750	         5.69629e+57
          1776.00380	         6.14047e+57
          1776.81010	         6.46573e+57
          1777.61640	         6.60851e+57
          1778.42270	         6.63633e+57
          1779.22900	         6.23588e+57
          1780.03530	         6.10683e+57
          1780.84160	         7.07947e+57
          1781.64790	         8.69313e+57
          1782.45420	         8.17537e+57
          1783.26050	         6.16177e+57
          1784.06680	         6.89030e+57
          1784.87310	         8.05953e+57
          1785.67940	         8.07405e+57
          1786.48570	         6.53319e+57
          1787.29200	         6.27517e+57
          1788.09830	         6.02798e+57
          1788.90460	         5.53068e+57
          1789.71090	         5.18943e+57
          1790.51720	         4.74855e+57
          1791.32350	         7.22414e+57
          1792.12980	         9.20074e+57
          1792.93610	         7.97224e+57
          1793.74240	         7.27058e+57
          1794.54870	         7.17625e+57
          1795.35500	         8.46056e+57
          1796.16130	         8.70258e+57
          1796.96760	         6.92234e+57
          1797.77390	         6.44913e+57
          1798.58020	         7.49722e+57
          1799.38650	         8.28558e+57
          1800.19280	         7.77179e+57
          1800.99910	         7.35062e+57
          1801.80540	         6.10475e+57
          1802.61170	         7.16122e+57
          1803.41800	         8.22580e+57
          1804.22430	         7.51220e+57
          1805.03060	         6.07249e+57
          1805.83690	         6.16713e+57
          1806.64320	         7.60099e+57
          1807.44950	         9.07201e+57
          1808.25580	         7.52049e+57
          1809.06210	         7.58207e+57
          1809.86840	         7.80701e+57
          1810.67470	         8.10381e+57
          1811.48100	         8.85885e+57
          1812.28730	         7.50006e+57
          1813.09360	         7.25503e+57
          1813.89990	         7.96751e+57
          1814.70620	         8.07465e+57
          1815.51250	         8.23969e+57
          1816.31880	         8.26363e+57
          1817.12510	         7.50563e+57
          1817.93140	         6.91264e+57
          1818.73770	         7.15646e+57
          1819.54400	         8.20463e+57
          1820.35030	         8.34948e+57
          1821.15660	         6.61164e+57
          1821.96290	         6.37523e+57
          1822.76920	         7.65767e+57
          1823.57550	         7.90866e+57
          1824.38180	         8.09517e+57
          1825.18810	         7.64738e+57
          1825.99440	         7.71520e+57
          1826.80070	         7.66746e+57
          1827.60700	         6.75029e+57
          1828.41330	         4.98671e+57
          1829.21960	         6.00448e+57
          1830.02590	         7.05023e+57
          1830.83220	         7.97365e+57
          1831.63850	         8.12740e+57
          1832.44480	         7.47480e+57
          1833.25110	         8.17041e+57
          1834.05740	         7.74624e+57
          1834.86370	         6.77333e+57
          1835.67000	         6.19178e+57
          1836.47630	         6.51522e+57
          1837.28260	         8.88841e+57
          1838.08890	         8.06942e+57
          1838.89520	         7.37739e+57
          1839.70150	         7.73612e+57
          1840.50780	         8.06419e+57
          1841.31410	         7.38539e+57
          1842.12040	         6.90159e+57
          1842.92670	         6.82171e+57
          1843.73300	         7.28776e+57
          1844.53930	         6.26212e+57
          1845.34560	         6.18713e+57
          1846.15190	         7.26029e+57
          1846.95820	         7.99355e+57
          1847.76450	         7.75196e+57
          1848.57080	         6.70502e+57
          1849.37710	         6.93804e+57
          1850.18340	         7.54371e+57
          1850.98970	         8.36933e+57
          1851.79600	         8.80361e+57
          1852.60230	         6.92224e+57
          1853.40860	         6.58105e+57
          1854.21490	         6.27556e+57
          1855.02120	         6.00485e+57
          1855.82750	         4.78471e+57
          1856.63380	         5.74103e+57
          1857.44010	         7.38477e+57
          1858.24640	         6.24925e+57
          1859.05270	         7.87018e+57
          1859.85900	         5.98762e+57
          1860.66530	         5.45362e+57
          1861.47160	         6.83170e+57
          1862.27790	         6.71004e+57
          1863.08420	         6.30533e+57
          1863.89050	         8.04654e+57
          1864.69680	         8.02261e+57
          1865.50310	         6.98998e+57
          1866.30940	         5.81239e+57
          1867.11570	         6.63319e+57
          1867.92200	         7.81295e+57
          1868.72830	         7.45073e+57
          1869.53460	         7.48483e+57
          1870.34090	         7.89408e+57
          1871.14720	         8.60240e+57
          1871.95350	         7.68164e+57
          1872.75980	         7.38064e+57
          1873.56610	         6.94399e+57
          1874.37240	         5.82336e+57
          1875.17870	         5.22014e+57
          1875.98500	         6.40701e+57
          1876.79130	         7.78650e+57
          1877.59760	         7.07368e+57
          1878.40390	         6.23387e+57
          1879.21020	         6.72885e+57
          1880.01650	         7.57209e+57
          1880.82280	         8.75576e+57
          1881.62910	         8.67192e+57
          1882.43540	         9.87379e+57
          1883.24170	         8.10070e+57
          1884.04800	         6.91921e+57
          1884.85430	         7.56465e+57
          1885.66060	         7.80411e+57
          1886.46690	         8.17910e+57
          1887.27320	         7.02516e+57
          1888.07950	         5.58985e+57
          1888.88580	         6.56198e+57
          1889.69210	         7.07920e+57
          1890.49840	         7.20692e+57
          1891.30470	         7.46031e+57
          1892.11100	         7.46199e+57
          1892.91730	         7.95036e+57
          1893.72360	         7.33205e+57
          1894.52990	         7.23140e+57
          1895.33620	         8.44883e+57
          1896.14250	         6.68592e+57
          1896.94880	         5.45614e+57
          1897.75510	         3.84828e+57
          1898.56140	         5.82778e+57
          1899.36770	         8.36633e+57
          1900.17400	         6.74481e+57
          1900.98030	         5.70242e+57
          1901.78660	         6.90438e+57
          1902.59290	         6.90979e+57
          1903.39920	         7.20355e+57
          1904.20550	         8.31915e+57
          1905.01180	         8.77442e+57
          1905.81810	         9.21211e+57
          1906.62440	         1.21673e+58
          1907.43070	         1.43199e+58
          1908.23700	         1.51453e+58
          1909.04330	         1.28250e+58
          1909.84960	         1.10414e+58
          1910.65590	         9.92804e+57
          1911.46220	         9.35276e+57
          1912.26850	         7.32793e+57
          1913.07480	         6.00393e+57
          1913.88110	         6.12698e+57
          1914.68740	         6.63785e+57
          1915.49370	         5.64814e+57
          1916.30000	         5.82439e+57
          1917.10630	         6.82217e+57
          1917.91260	         7.40672e+57
          1918.71890	         6.06610e+57
          1919.52520	         4.61419e+57
          1920.33150	         5.53170e+57
          1921.13780	         6.94341e+57
          1921.94410	         7.33145e+57
          1922.75040	         7.38543e+57
          1923.55670	         7.11647e+57
          1924.36300	         7.12816e+57
          1925.16930	         6.03024e+57
          1925.97560	         5.47330e+57
          1926.78190	         5.04350e+57
          1927.58820	         6.09209e+57
          1928.39450	         6.23687e+57
          1929.20080	         5.50501e+57
          1930.00710	         7.54236e+57
          1930.81340	         7.71087e+57
          1931.61970	         6.77569e+57
          1932.42600	         7.79227e+57
          1933.23230	         8.86161e+57
          1934.03860	         7.76069e+57
          1934.84490	         5.92515e+57
          1935.65120	         7.48771e+57
          1936.45750	         7.81495e+57
          1937.26380	         6.56577e+57
          1938.07010	         6.07505e+57
          1938.87640	         6.92077e+57
          1939.68270	         7.65963e+57
          1940.48900	         7.82451e+57
          1941.29530	         8.08846e+57
          1942.10160	         8.09870e+57
          1942.90790	         8.11854e+57
          1943.71420	         7.50591e+57
          1944.52050	         5.69187e+57
          1945.32680	         5.48406e+57
          1946.13310	         7.01372e+57
          1946.93940	         8.49283e+57
          1947.74570	         7.76348e+57
          1948.55200	         6.97552e+57
          1949.35830	         6.91422e+57
          1950.16460	         5.78843e+57
          1950.97090	         5.40116e+57
          1951.77720	         7.13743e+57
          1952.58350	         8.01039e+57
          1953.38980	         6.60037e+57
          1954.19610	         4.30646e+57
          1955.00240	         5.17642e+57
          1955.80870	         6.84169e+57
          1956.61500	         5.47574e+57
          1957.42130	         6.58312e+57
          1958.22760	         7.35805e+57
          1959.03390	         6.74773e+57
          1959.84020	         7.76338e+57
          1960.64650	         7.85236e+57
          1961.45280	         6.50758e+57
          1962.25910	         5.51905e+57
          1963.06540	         5.32609e+57
          1963.87170	         5.63330e+57
          1964.67800	         6.90237e+57
          1965.48430	         7.12024e+57
          1966.29060	         7.39024e+57
          1967.09690	         7.89746e+57
          1967.90320	         7.65361e+57
          1968.70950	         8.18078e+57
          1969.51580	         7.86880e+57
          1970.32210	         7.24702e+57
          1971.12840	         7.27896e+57
          1971.93470	         5.18816e+57
          1972.74100	         5.00506e+57
          1973.54730	         6.95877e+57
          1974.35360	         7.44465e+57
          1975.15990	         6.78135e+57
          1975.96620	         6.69458e+57
          1976.77250	         8.15568e+57
          1977.57880	         6.88292e+57
          1978.38510	         6.25121e+57
          1979.19140	         6.98283e+57
          1979.99770	         7.86215e+57
          1980.80400	         7.96795e+57
          1981.61030	         6.95464e+57
          1982.41660	         5.84689e+57
          1983.22290	         6.46310e+57
          1984.02920	         6.23460e+57
          1984.83550	         4.76981e+57
          1985.64180	         5.90415e+57
          1986.44810	         7.27678e+57
          1987.25440	         6.45061e+57
          1988.06070	         5.25899e+57
          1988.86700	         6.61303e+57
          1989.67330	         7.19348e+57
          1990.47960	         6.62619e+57
          1991.28590	         5.93168e+57
          1992.09220	         6.25085e+57
          1992.89850	         6.78700e+57
          1993.70480	         5.73524e+57
          1994.51110	         4.59773e+57
          1995.31740	         4.41934e+57
          1996.12370	         4.56312e+57
          1996.93000	         6.29107e+57
          1997.73630	         6.94769e+57
          1998.54260	         6.76822e+57
          1999.34890	         6.69930e+57
          2000.15520	         6.30520e+57
          2000.96150	         6.13827e+57
          2001.76780	         5.88094e+57
          2002.57410	         5.63244e+57
          2003.38040	         5.65916e+57
          2004.18670	         5.61888e+57
          2004.99300	         5.31723e+57
          2005.79930	         6.11755e+57
          2006.60560	         5.86247e+57
          2007.41190	         6.19889e+57
          2008.21820	         6.67211e+57
          2009.02450	         6.49315e+57
          2009.83080	         6.15909e+57
          2010.63710	         6.08008e+57
          2011.44340	         7.15109e+57
          2012.24970	         7.99821e+57
          2013.05600	         6.98528e+57
          2013.86230	         6.29375e+57
          2014.66860	         6.94289e+57
          2015.47490	         6.87041e+57
          2016.28120	         4.99534e+57
          2017.08750	         5.47869e+57
          2017.89380	         6.20573e+57
          2018.70010	         6.16565e+57
          2019.50640	         6.52488e+57
          2020.31270	         7.47110e+57
          2021.11900	         6.13274e+57
          2021.92530	         6.10046e+57
          2022.73160	         6.85729e+57
          2023.53790	         6.70426e+57
          2024.34420	         5.27193e+57
          2025.15050	         5.56280e+57
          2025.95680	         6.13869e+57
          2026.76310	         6.62889e+57
          2027.56940	         7.07063e+57
          2028.37570	         6.65856e+57
          2029.18200	         5.62884e+57
          2029.98830	         6.37423e+57
          2030.79460	         6.06895e+57
          2031.60090	         5.62653e+57
          2032.40720	         6.73011e+57
          2033.21350	         6.19300e+57
          2034.01980	         5.69037e+57
          2034.82610	         5.44792e+57
          2035.63240	         5.71092e+57
          2036.43870	         5.09748e+57
          2037.24500	         5.70470e+57
          2038.05130	         6.45581e+57
          2038.85760	         7.59492e+57
          2039.66390	         6.28163e+57
          2040.47020	         5.52938e+57
          2041.27650	         5.58222e+57
          2042.08280	         5.42371e+57
          2042.88910	         6.38433e+57
          2043.69540	         6.56255e+57
          2044.50170	         6.54469e+57
          2045.30800	         5.80888e+57
          2046.11430	         4.84447e+57
          2046.92060	         5.28510e+57
          2047.72690	         5.66553e+57
          2048.53320	         6.53327e+57
          2049.33950	         5.74285e+57
          2050.14580	         4.70856e+57
          2050.95210	         5.14700e+57
          2051.75840	         5.75550e+57
          2052.56470	         5.08127e+57
          2053.37100	         4.73475e+57
          2054.17730	         4.36616e+57
          2054.98360	         4.37754e+57
          2055.78990	         3.58761e+57
          2056.59620	         4.23852e+57
          2057.40250	         4.63277e+57
          2058.20880	         6.71563e+57
          2059.01510	         6.89919e+57
          2059.82140	         6.48523e+57
          2060.62770	         1.06914e+58
          2061.43400	         1.44041e+58
          2062.24030	         1.04228e+58
          2063.04660	         2.76349e+57
          2063.85290	         3.94812e+57
          2064.65920	        -5.32831e+56
          2065.46550	        -7.18600e+57
          2066.27180	        -7.23987e+57
          2067.07810	         3.60871e+57
          2067.88440	         4.88136e+57
          2068.69070	         6.45115e+57
          2069.49700	         6.33458e+57
          2070.30330	         4.54464e+57
          2071.10960	         6.48465e+57
          2071.91590	         7.05469e+57
          2072.72220	         4.92215e+57
          2073.52850	         4.47242e+57
          2074.33480	         3.89602e+57
          2075.14110	         5.18980e+57
          2075.94740	         5.00213e+57
          2076.75370	         4.39001e+57
          2077.56000	         5.46051e+57
          2078.36630	         5.52785e+57
          2079.17260	         4.29658e+57
          2079.97890	         4.86064e+57
          2080.78520	         5.37503e+57
          2081.59150	         5.70531e+57
          2082.39780	         4.67839e+57
          2083.20410	         2.51777e+57
          2084.01040	         2.25257e+57
          2084.81670	         3.84961e+57
          2085.62300	         2.82386e+57
          2086.42930	         3.05351e+57
          2087.23560	         4.39977e+57
          2088.04190	         4.38010e+57
          2088.84820	         3.38933e+57
          2089.65450	         1.98752e+57
          2090.46080	         1.32604e+57
          2091.26710	         2.44117e+57
          2092.07340	         3.48824e+57
          2092.87970	         4.00451e+57
          2093.68600	        -5.88232e+56
          2094.49230	         1.37638e+57
          2095.29860	         4.08336e+57
          2096.10490	         4.39812e+57
          2096.91120	         9.01720e+56
          2097.71750	        -5.90647e+56
          2098.52380	         8.42730e+56
          2099.33010	         7.32602e+56
          2100.13640	         1.72400e+57
          2100.94270	         3.64333e+57
          2101.74900	         4.59221e+57
          2102.55530	         4.46656e+57
          2103.36160	         9.03504e+56
          2104.16790	         1.52666e+57
          2104.97420	         2.26441e+57
          2105.78050	        -6.68905e+56
          2106.58680	        -2.02137e+56
          2107.39310	        -2.61215e+57
          2108.19940	        -9.16024e+56
          2109.00570	         2.34510e+56
          2109.81200	        -7.94226e+56
          2110.61830	         3.47712e+56
          2111.42460	        -1.21521e+57
          2112.23090	         2.12596e+57
          2113.03720	        -2.14697e+57
          2113.84350	        -2.28127e+57
          2114.64980	         8.26030e+56
          2115.45610	         1.75296e+57
          2116.26240	        -7.75796e+57
          2117.06870	        -2.70347e+57
          2117.87500	        -2.54351e+57
          2118.68130	        -2.49970e+57
          2119.48760	         4.58622e+56
          2120.29390	        -2.43039e+57
          2121.10020	        -6.20422e+57
          2121.90650	        -3.14017e+57
          2122.71280	         7.48480e+56
          2123.51910	         2.60602e+57
          2124.32540	         3.64377e+57
          2125.13170	        -1.46372e+57
          2125.93800	        -3.76644e+57
          2126.74430	        -9.64819e+57
          2127.55060	        -7.07486e+57
          2128.35690	        -2.90854e+57
          2129.16320	         3.91689e+57
          2129.96950	        -2.79718e+57
          2130.77580	        -1.81081e+57
          2131.58210	        -1.18468e+57
          2132.38840	         1.49966e+56
          2133.19470	        -7.56230e+56
          2134.00100	         8.22133e+56
          2134.80730	        -9.88440e+57
          2135.61360	        -1.52477e+57
          2136.41990	        -3.70898e+56
          2137.22620	         1.82053e+57
          2138.03250	        -1.55915e+57
          2138.83880	         1.00875e+57
          2139.64510	         5.52051e+57
          2140.45140	        -7.80535e+56
          2141.25770	        -1.19616e+58
          2142.06400	        -3.02121e+57
          2142.87030	        -1.58433e+57
          2143.67660	         6.32082e+56
          2144.48290	         6.92665e+57
          2145.28920	         1.47529e+58
          2146.09550	         7.24437e+57
          2146.90180	        -4.32098e+57
          2147.70810	        -3.88964e+57
          2148.51440	        -7.58172e+57
          2149.32070	        -1.05057e+58
          2150.12700	        -1.21131e+58
          2150.93330	        -4.25243e+57
          2151.73960	         4.62994e+57
          2152.54590	        -1.96176e+57
          2153.35220	        -1.29221e+57
          2154.15850	        -1.07219e+58
          2154.96480	         2.13605e+57
          2155.77110	        -7.80709e+57
          2156.57740	        -1.39494e+58
          2157.38370	        -1.04821e+58
          2158.19000	        -6.20696e+57
          2158.99630	         3.90322e+57
          2159.80260	        -8.41356e+57
          2160.60890	        -6.15700e+57
          2161.41520	        -5.56882e+57
          2162.22150	        -6.05446e+57
          2163.02780	        -2.12524e+57
          2163.83410	        -7.63151e+57
          2164.64040	        -2.72205e+57
          2165.44670	        -4.33570e+57
          2166.25300	        -1.18690e+58
          2167.05930	        -1.38004e+57
          2167.86560	        -7.96882e+57
          2168.67190	        -1.43574e+58
          2169.47820	        -1.34626e+58
          2170.28450	        -6.05940e+57
          2171.09080	        -2.96217e+57
          2171.89710	         1.01452e+57
          2172.70340	         8.72617e+57
          2173.50970	        -5.78122e+57
          2174.31600	        -5.33457e+57
          2175.12230	        -2.56873e+57
          2175.92860	        -4.36900e+57
          2176.73490	        -2.66150e+57
          2177.54120	        -1.07447e+58
          2178.34750	        -5.18000e+57
          2179.15380	                 nan
          2179.96010	                 nan
          2180.76640	                 nan
          2181.57270	                 nan
          2182.37900	                 nan
          2183.18530	                 nan
          2183.99160	                 nan
          2184.79790	                 nan
          2185.60420	                 nan
          2186.41050	                 nan
          2187.21680	                 nan
          2188.02310	                 nan
          2188.82940	                 nan
          2189.63570	                 nan
          2190.44200	                 nan
          2191.24830	                 nan
          2192.05460	                 nan
          2192.86090	                 nan
          2193.66720	                 nan
          2194.47350	                 nan
          2195.27980	                 nan
          2196.08610	                 nan
          2196.89240	                 nan
          2197.69870	                 nan
          2198.50500	                 nan
          2199.31130	                 nan
          2200.11760	                 nan
          2200.92390	                 nan
          2201.73020	                 nan
          2202.53650	                 nan
          2203.34280	                 nan
          2204.14910	                 nan
          2204.95540	                 nan
          2205.76170	                 nan
          2206.56800	                 nan
          2207.37430	                 nan
          2208.18060	                 nan
          2208.98690	                 nan
          2209.79320	                 nan
          2210.59950	                 nan
          2211.40580	                 nan
          2212.21210	                 nan
          2213.01840	                 nan
          2213.82470	                 nan
          2214.63100	                 nan
          2215.43730	         0.00000e+00
