#sample_266_stacked_spectrum_rest_UV-bands_median_H-alpha_noDC.txt
#median Lum: 1.72280e+42
#Rest-frame wavelength (A) | Luminosity (erg/s/A)
#
          1110.00000	         0.00000e+00
          1110.80630	         1.56366e+59
          1111.61260	         1.46724e+58
          1112.41890	        -2.82923e+59
          1113.22520	        -9.54806e+57
          1114.03150	        -8.17822e+58
          1114.83780	         1.52531e+59
          1115.64410	         2.37308e+59
          1116.45040	         2.42142e+59
          1117.25670	        -2.10417e+58
          1118.06300	         4.14349e+58
          1118.86930	         3.90261e+58
          1119.67560	         8.56553e+58
          1120.48190	         8.21418e+58
          1121.28820	        -3.65290e+58
          1122.09450	         6.96517e+58
          1122.90080	         3.77600e+58
          1123.70710	         8.75253e+58
          1124.51340	         2.05090e+58
          1125.31970	        -3.35133e+58
          1126.12600	        -3.55341e+58
          1126.93230	        -2.57724e+58
          1127.73860	        -4.04422e+58
          1128.54490	         7.77788e+57
          1129.35120	         1.62425e+58
          1130.15750	        -3.39022e+58
          1130.96380	         3.93038e+57
          1131.77010	         7.65423e+58
          1132.57640	         3.18814e+58
          1133.38270	         1.89685e+58
          1134.18900	         2.79307e+58
          1134.99530	         2.18325e+58
          1135.80160	         3.98021e+58
          1136.60790	         2.78598e+58
          1137.41420	         8.22841e+57
          1138.22050	         3.33300e+58
          1139.02680	         2.30938e+58
          1139.83310	         1.58821e+57
          1140.63940	         1.37968e+58
          1141.44570	        -1.03181e+58
          1142.25200	         2.01447e+58
          1143.05830	         2.07514e+58
          1143.86460	         2.31152e+58
          1144.67090	         2.13105e+58
          1145.47720	         5.24804e+57
          1146.28350	         1.84101e+58
          1147.08980	         1.96747e+58
          1147.89610	         1.89619e+58
          1148.70240	         3.17721e+58
          1149.50870	         2.54488e+58
          1150.31500	         1.42441e+58
          1151.12130	         1.40588e+58
          1151.92760	         6.08033e+57
          1152.73390	         9.96574e+56
          1153.54020	        -2.17034e+57
          1154.34650	         1.85812e+58
          1155.15280	         3.26975e+58
          1155.95910	         5.11913e+57
          1156.76540	         4.10575e+57
          1157.57170	        -8.02532e+56
          1158.37800	         1.02994e+57
          1159.18430	        -4.20917e+57
          1159.99060	         5.38382e+57
          1160.79690	         3.85354e+57
          1161.60320	         9.72576e+57
          1162.40950	         8.94713e+57
          1163.21580	         8.08462e+57
          1164.02210	         1.89562e+58
          1164.82840	         1.33719e+58
          1165.63470	         2.66475e+58
          1166.44100	         2.20203e+58
          1167.24730	         1.98493e+58
          1168.05360	         6.51503e+57
          1168.85990	         4.67740e+57
          1169.66620	         8.40438e+57
          1170.47250	         1.48327e+58
          1171.27880	         1.38233e+58
          1172.08510	         1.16149e+58
          1172.89140	         5.85393e+57
          1173.69770	         1.33917e+56
          1174.50400	         6.06291e+57
          1175.31030	         1.50974e+58
          1176.11660	         1.95275e+58
          1176.92290	         1.25215e+58
          1177.72920	         1.15231e+58
          1178.53550	         6.52674e+57
          1179.34180	         2.44840e+57
          1180.14810	         7.60140e+57
          1180.95440	         1.21290e+58
          1181.76070	         8.93742e+57
          1182.56700	         3.78539e+57
          1183.37330	         1.84572e+57
          1184.17960	         1.07464e+58
          1184.98590	         1.23574e+58
          1185.79220	         1.22872e+58
          1186.59850	         1.45939e+58
          1187.40480	         1.14027e+58
          1188.21110	         1.25541e+58
          1189.01740	         1.03309e+58
          1189.82370	         1.03928e+58
          1190.63000	         1.26313e+58
          1191.43630	         1.54927e+58
          1192.24260	         1.59509e+58
          1193.04890	         1.64451e+58
          1193.85520	         1.56768e+58
          1194.66150	         7.21734e+57
          1195.46780	         9.87539e+57
          1196.27410	         1.14176e+58
          1197.08040	         7.82684e+57
          1197.88670	         1.48169e+58
          1198.69300	         1.37666e+58
          1199.49930	         1.41484e+58
          1200.30560	         8.26704e+57
          1201.11190	         8.35363e+57
          1201.91820	         1.01437e+58
          1202.72450	         1.13605e+58
          1203.53080	         1.44103e+58
          1204.33710	         5.85628e+57
          1205.14340	         5.70927e+57
          1205.94970	         4.04434e+57
          1206.75600	         6.66400e+57
          1207.56230	         4.54301e+57
          1208.36860	         4.88969e+57
          1209.17490	         4.58894e+57
          1209.98120	         9.85737e+57
          1210.78750	         7.12383e+57
          1211.59380	         1.38440e+58
          1212.40010	         2.10426e+58
          1213.20640	         2.08612e+58
          1214.01270	         1.99490e+58
          1214.81900	         2.89243e+58
          1215.62530	         5.04277e+58
          1216.43160	         9.34166e+58
          1217.23790	         1.50524e+59
          1218.04420	         1.18175e+59
          1218.85050	         8.59976e+58
          1219.65680	         5.78580e+58
          1220.46310	         3.26881e+58
          1221.26940	         2.32016e+58
          1222.07570	         1.71392e+58
          1222.88200	         1.51246e+58
          1223.68830	         8.36255e+57
          1224.49460	         7.98980e+57
          1225.30090	         7.95163e+57
          1226.10720	         6.15223e+57
          1226.91350	         6.15985e+57
          1227.71980	         8.94354e+57
          1228.52610	         1.27412e+58
          1229.33240	         1.20945e+58
          1230.13870	         9.12689e+57
          1230.94500	         9.05260e+57
          1231.75130	         7.56647e+57
          1232.55760	         7.41196e+57
          1233.36390	         7.55034e+57
          1234.17020	         9.21059e+57
          1234.97650	         6.71229e+57
          1235.78280	         6.45412e+57
          1236.58910	         8.57985e+57
          1237.39540	         1.14192e+58
          1238.20170	         1.15549e+58
          1239.00800	         1.38251e+58
          1239.81430	         1.46604e+58
          1240.62060	         1.09407e+58
          1241.42690	         1.14226e+58
          1242.23320	         1.09657e+58
          1243.03950	         7.66370e+57
          1243.84580	         8.17303e+57
          1244.65210	         9.07420e+57
          1245.45840	         8.79200e+57
          1246.26470	         7.71743e+57
          1247.07100	         7.85514e+57
          1247.87730	         9.72917e+57
          1248.68360	         6.25310e+57
          1249.48990	         5.00687e+57
          1250.29620	         8.52665e+57
          1251.10250	         7.43787e+57
          1251.90880	         6.68328e+57
          1252.71510	         7.67574e+57
          1253.52140	         8.33828e+57
          1254.32770	         9.29844e+57
          1255.13400	         1.46860e+58
          1255.94030	         1.35184e+58
          1256.74660	         8.57538e+57
          1257.55290	         1.06492e+58
          1258.35920	         8.06279e+57
          1259.16550	         5.49273e+57
          1259.97180	         5.53094e+57
          1260.77810	         8.03911e+57
          1261.58440	         1.03532e+58
          1262.39070	         7.49893e+57
          1263.19700	         7.12963e+57
          1264.00330	         8.44533e+57
          1264.80960	         9.59698e+57
          1265.61590	         1.25372e+58
          1266.42220	         1.29269e+58
          1267.22850	         1.11272e+58
          1268.03480	         1.40126e+58
          1268.84110	         1.61469e+58
          1269.64740	         1.33235e+58
          1270.45370	         1.37289e+58
          1271.26000	         1.22443e+58
          1272.06630	         1.06182e+58
          1272.87260	         1.20088e+58
          1273.67890	         1.26508e+58
          1274.48520	         1.26753e+58
          1275.29150	         1.26885e+58
          1276.09780	         1.28865e+58
          1276.90410	         1.58966e+58
          1277.71040	         1.36467e+58
          1278.51670	         1.21166e+58
          1279.32300	         1.53216e+58
          1280.12930	         1.35181e+58
          1280.93560	         1.20496e+58
          1281.74190	         1.36823e+58
          1282.54820	         1.56133e+58
          1283.35450	         1.22088e+58
          1284.16080	         9.97071e+57
          1284.96710	         1.34241e+58
          1285.77340	         1.22497e+58
          1286.57970	         1.16150e+58
          1287.38600	         1.76003e+58
          1288.19230	         2.25717e+58
          1288.99860	         1.69437e+58
          1289.80490	         1.15958e+58
          1290.61120	         1.42426e+58
          1291.41750	         1.55371e+58
          1292.22380	         1.56890e+58
          1293.03010	         1.27900e+58
          1293.83640	         1.21782e+58
          1294.64270	         9.76064e+57
          1295.44900	         7.57675e+57
          1296.25530	         7.42876e+57
          1297.06160	         1.04985e+58
          1297.86790	         1.31161e+58
          1298.67420	         1.11717e+58
          1299.48050	         1.08289e+58
          1300.28680	         9.80830e+57
          1301.09310	         7.71756e+57
          1301.89940	         4.39307e+57
          1302.70570	         7.17462e+57
          1303.51200	         1.00324e+58
          1304.31830	         1.14975e+58
          1305.12460	         1.10237e+58
          1305.93090	         1.07531e+58
          1306.73720	         1.47583e+58
          1307.54350	         1.64522e+58
          1308.34980	         1.56511e+58
          1309.15610	         1.65238e+58
          1309.96240	         1.77015e+58
          1310.76870	         1.40370e+58
          1311.57500	         1.05118e+58
          1312.38130	         1.15497e+58
          1313.18760	         1.64203e+58
          1313.99390	         1.84063e+58
          1314.80020	         1.64215e+58
          1315.60650	         1.51767e+58
          1316.41280	         1.22788e+58
          1317.21910	         1.26832e+58
          1318.02540	         1.14727e+58
          1318.83170	         1.06603e+58
          1319.63800	         1.09038e+58
          1320.44430	         1.13009e+58
          1321.25060	         1.20640e+58
          1322.05690	         1.31600e+58
          1322.86320	         1.28066e+58
          1323.66950	         1.12491e+58
          1324.47580	         9.01254e+57
          1325.28210	         1.01913e+58
          1326.08840	         1.27907e+58
          1326.89470	         1.17369e+58
          1327.70100	         9.75992e+57
          1328.50730	         7.27338e+57
          1329.31360	         9.47847e+57
          1330.11990	         1.14495e+58
          1330.92620	         1.07250e+58
          1331.73250	         1.14709e+58
          1332.53880	         8.87654e+57
          1333.34510	         7.99137e+57
          1334.15140	         8.95591e+57
          1334.95770	         1.01636e+58
          1335.76400	         1.08481e+58
          1336.57030	         1.20476e+58
          1337.37660	         1.16360e+58
          1338.18290	         1.07901e+58
          1338.98920	         1.22840e+58
          1339.79550	         1.29926e+58
          1340.60180	         1.20084e+58
          1341.40810	         1.11743e+58
          1342.21440	         1.19040e+58
          1343.02070	         1.34228e+58
          1343.82700	         1.44335e+58
          1344.63330	         1.44685e+58
          1345.43960	         1.30908e+58
          1346.24590	         1.04308e+58
          1347.05220	         1.20626e+58
          1347.85850	         1.09746e+58
          1348.66480	         1.33564e+58
          1349.47110	         1.41120e+58
          1350.27740	         1.23985e+58
          1351.08370	         1.12814e+58
          1351.89000	         1.02814e+58
          1352.69630	         9.95044e+57
          1353.50260	         9.96481e+57
          1354.30890	         1.08841e+58
          1355.11520	         1.26477e+58
          1355.92150	         1.11551e+58
          1356.72780	         1.05726e+58
          1357.53410	         1.03503e+58
          1358.34040	         1.05349e+58
          1359.14670	         1.05287e+58
          1359.95300	         1.18291e+58
          1360.75930	         1.20040e+58
          1361.56560	         1.12351e+58
          1362.37190	         1.17589e+58
          1363.17820	         1.13329e+58
          1363.98450	         1.14422e+58
          1364.79080	         1.35691e+58
          1365.59710	         1.28034e+58
          1366.40340	         1.17753e+58
          1367.20970	         1.13466e+58
          1368.01600	         1.03665e+58
          1368.82230	         9.41440e+57
          1369.62860	         1.04754e+58
          1370.43490	         1.13321e+58
          1371.24120	         1.05322e+58
          1372.04750	         9.33482e+57
          1372.85380	         1.10103e+58
          1373.66010	         1.19560e+58
          1374.46640	         1.15004e+58
          1375.27270	         1.13891e+58
          1376.07900	         1.03627e+58
          1376.88530	         9.35537e+57
          1377.69160	         8.64203e+57
          1378.49790	         6.63236e+57
          1379.30420	         7.47615e+57
          1380.11050	         1.02742e+58
          1380.91680	         9.16412e+57
          1381.72310	         8.03205e+57
          1382.52940	         8.54087e+57
          1383.33570	         7.28957e+57
          1384.14200	         8.11939e+57
          1384.94830	         1.04539e+58
          1385.75460	         1.25241e+58
          1386.56090	         1.13078e+58
          1387.36720	         1.09425e+58
          1388.17350	         1.27999e+58
          1388.97980	         1.20898e+58
          1389.78610	         9.64787e+57
          1390.59240	         7.12389e+57
          1391.39870	         7.21367e+57
          1392.20500	         8.09654e+57
          1393.01130	         7.85061e+57
          1393.81760	         7.49151e+57
          1394.62390	         7.27446e+57
          1395.43020	         6.92279e+57
          1396.23650	         8.46223e+57
          1397.04280	         7.74937e+57
          1397.84910	         8.76628e+57
          1398.65540	         9.59281e+57
          1399.46170	         1.05228e+58
          1400.26800	         9.08906e+57
          1401.07430	         6.79952e+57
          1401.88060	         7.47814e+57
          1402.68690	         9.39621e+57
          1403.49320	         9.80212e+57
          1404.29950	         9.78932e+57
          1405.10580	         1.15489e+58
          1405.91210	         1.12771e+58
          1406.71840	         1.02334e+58
          1407.52470	         9.85754e+57
          1408.33100	         1.03283e+58
          1409.13730	         1.19604e+58
          1409.94360	         1.27106e+58
          1410.74990	         1.24505e+58
          1411.55620	         1.09655e+58
          1412.36250	         9.68982e+57
          1413.16880	         9.32648e+57
          1413.97510	         9.41201e+57
          1414.78140	         9.73972e+57
          1415.58770	         1.09936e+58
          1416.39400	         1.11998e+58
          1417.20030	         1.10403e+58
          1418.00660	         9.89732e+57
          1418.81290	         1.05959e+58
          1419.61920	         1.19198e+58
          1420.42550	         1.36878e+58
          1421.23180	         1.23815e+58
          1422.03810	         1.16791e+58
          1422.84440	         1.13234e+58
          1423.65070	         1.20367e+58
          1424.45700	         1.12562e+58
          1425.26330	         9.85255e+57
          1426.06960	         9.65824e+57
          1426.87590	         1.07492e+58
          1427.68220	         1.02947e+58
          1428.48850	         1.22767e+58
          1429.29480	         1.34590e+58
          1430.10110	         1.15047e+58
          1430.90740	         9.03986e+57
          1431.71370	         9.10847e+57
          1432.52000	         8.56773e+57
          1433.32630	         6.70566e+57
          1434.13260	         6.73378e+57
          1434.93890	         7.76112e+57
          1435.74520	         9.35476e+57
          1436.55150	         1.09191e+58
          1437.35780	         1.03799e+58
          1438.16410	         9.50809e+57
          1438.97040	         9.14154e+57
          1439.77670	         9.09722e+57
          1440.58300	         9.19427e+57
          1441.38930	         9.23840e+57
          1442.19560	         9.07668e+57
          1443.00190	         1.01360e+58
          1443.80820	         1.09690e+58
          1444.61450	         9.45611e+57
          1445.42080	         8.57263e+57
          1446.22710	         1.00419e+58
          1447.03340	         9.64421e+57
          1447.83970	         1.12403e+58
          1448.64600	         1.16999e+58
          1449.45230	         1.03087e+58
          1450.25860	         1.02172e+58
          1451.06490	         9.18934e+57
          1451.87120	         7.79485e+57
          1452.67750	         7.50634e+57
          1453.48380	         7.61330e+57
          1454.29010	         7.81962e+57
          1455.09640	         8.20956e+57
          1455.90270	         8.84060e+57
          1456.70900	         8.73217e+57
          1457.51530	         9.31280e+57
          1458.32160	         1.19216e+58
          1459.12790	         1.20404e+58
          1459.93420	         9.82110e+57
          1460.74050	         7.48216e+57
          1461.54680	         7.67650e+57
          1462.35310	         9.12124e+57
          1463.15940	         1.14387e+58
          1463.96570	         1.21157e+58
          1464.77200	         1.17397e+58
          1465.57830	         1.10435e+58
          1466.38460	         9.38595e+57
          1467.19090	         8.46318e+57
          1467.99720	         9.39790e+57
          1468.80350	         1.03213e+58
          1469.60980	         1.03846e+58
          1470.41610	         9.71093e+57
          1471.22240	         8.98393e+57
          1472.02870	         1.01617e+58
          1472.83500	         9.20594e+57
          1473.64130	         9.50458e+57
          1474.44760	         1.00282e+58
          1475.25390	         8.86333e+57
          1476.06020	         8.48180e+57
          1476.86650	         8.46085e+57
          1477.67280	         8.05841e+57
          1478.47910	         6.69444e+57
          1479.28540	         6.80031e+57
          1480.09170	         8.53447e+57
          1480.89800	         9.48561e+57
          1481.70430	         1.09988e+58
          1482.51060	         1.03072e+58
          1483.31690	         8.51258e+57
          1484.12320	         9.16769e+57
          1484.92950	         8.44732e+57
          1485.73580	         7.83680e+57
          1486.54210	         9.39954e+57
          1487.34840	         8.74842e+57
          1488.15470	         8.59072e+57
          1488.96100	         9.14060e+57
          1489.76730	         9.72977e+57
          1490.57360	         9.47789e+57
          1491.37990	         7.56960e+57
          1492.18620	         7.57273e+57
          1492.99250	         8.86089e+57
          1493.79880	         9.40475e+57
          1494.60510	         8.72970e+57
          1495.41140	         7.31037e+57
          1496.21770	         7.56045e+57
          1497.02400	         9.97798e+57
          1497.83030	         9.13064e+57
          1498.63660	         7.27665e+57
          1499.44290	         7.56991e+57
          1500.24920	         7.37570e+57
          1501.05550	         7.15207e+57
          1501.86180	         8.42936e+57
          1502.66810	         9.21822e+57
          1503.47440	         9.00146e+57
          1504.28070	         9.73324e+57
          1505.08700	         1.08689e+58
          1505.89330	         1.06188e+58
          1506.69960	         9.49831e+57
          1507.50590	         8.66927e+57
          1508.31220	         9.02590e+57
          1509.11850	         8.93969e+57
          1509.92480	         9.03887e+57
          1510.73110	         8.63205e+57
          1511.53740	         6.97864e+57
          1512.34370	         7.11242e+57
          1513.15000	         8.84385e+57
          1513.95630	         1.06915e+58
          1514.76260	         9.55605e+57
          1515.56890	         9.06626e+57
          1516.37520	         8.06867e+57
          1517.18150	         8.57897e+57
          1517.98780	         8.19537e+57
          1518.79410	         7.77210e+57
          1519.60040	         8.84688e+57
          1520.40670	         9.45141e+57
          1521.21300	         9.47825e+57
          1522.01930	         8.29186e+57
          1522.82560	         8.60236e+57
          1523.63190	         1.00410e+58
          1524.43820	         8.24094e+57
          1525.24450	         7.17572e+57
          1526.05080	         7.36590e+57
          1526.85710	         6.61233e+57
          1527.66340	         6.61073e+57
          1528.46970	         7.48672e+57
          1529.27600	         7.96697e+57
          1530.08230	         7.97189e+57
          1530.88860	         7.79055e+57
          1531.69490	         8.73725e+57
          1532.50120	         9.44184e+57
          1533.30750	         9.99666e+57
          1534.11380	         1.04328e+58
          1534.92010	         9.70568e+57
          1535.72640	         9.92261e+57
          1536.53270	         9.59877e+57
          1537.33900	         8.55185e+57
          1538.14530	         8.44611e+57
          1538.95160	         8.69009e+57
          1539.75790	         9.06332e+57
          1540.56420	         9.03235e+57
          1541.37050	         9.29150e+57
          1542.17680	         9.19955e+57
          1542.98310	         8.02208e+57
          1543.78940	         7.56015e+57
          1544.59570	         6.58331e+57
          1545.40200	         7.32355e+57
          1546.20830	         9.32889e+57
          1547.01460	         1.11798e+58
          1547.82090	         1.04042e+58
          1548.62720	         1.14039e+58
          1549.43350	         1.10499e+58
          1550.23980	         1.11117e+58
          1551.04610	         1.20183e+58
          1551.85240	         1.28489e+58
          1552.65870	         1.24392e+58
          1553.46500	         9.95345e+57
          1554.27130	         9.45112e+57
          1555.07760	         9.72706e+57
          1555.88390	         8.11338e+57
          1556.69020	         8.33996e+57
          1557.49650	         8.23422e+57
          1558.30280	         8.36156e+57
          1559.10910	         8.95374e+57
          1559.91540	         8.90182e+57
          1560.72170	         8.50425e+57
          1561.52800	         8.74254e+57
          1562.33430	         8.87881e+57
          1563.14060	         8.03669e+57
          1563.94690	         8.82597e+57
          1564.75320	         8.99379e+57
          1565.55950	         8.17205e+57
          1566.36580	         8.40535e+57
          1567.17210	         1.01989e+58
          1567.97840	         9.74735e+57
          1568.78470	         9.06018e+57
          1569.59100	         1.00017e+58
          1570.39730	         9.26108e+57
          1571.20360	         6.97822e+57
          1572.00990	         7.25121e+57
          1572.81620	         8.62170e+57
          1573.62250	         9.68531e+57
          1574.42880	         9.40789e+57
          1575.23510	         7.16455e+57
          1576.04140	         8.79341e+57
          1576.84770	         9.39503e+57
          1577.65400	         8.80137e+57
          1578.46030	         9.42341e+57
          1579.26660	         1.00646e+58
          1580.07290	         9.28286e+57
          1580.87920	         7.17110e+57
          1581.68550	         7.52174e+57
          1582.49180	         8.98892e+57
          1583.29810	         7.67796e+57
          1584.10440	         8.14094e+57
          1584.91070	         9.23415e+57
          1585.71700	         8.49921e+57
          1586.52330	         8.77647e+57
          1587.32960	         9.95139e+57
          1588.13590	         9.65285e+57
          1588.94220	         9.03377e+57
          1589.74850	         9.38842e+57
          1590.55480	         9.98633e+57
          1591.36110	         9.70730e+57
          1592.16740	         9.66663e+57
          1592.97370	         9.62003e+57
          1593.78000	         9.25493e+57
          1594.58630	         9.17098e+57
          1595.39260	         8.67172e+57
          1596.19890	         9.36248e+57
          1597.00520	         9.69630e+57
          1597.81150	         9.21713e+57
          1598.61780	         7.83490e+57
          1599.42410	         6.76970e+57
          1600.23040	         6.66992e+57
          1601.03670	         8.11979e+57
          1601.84300	         8.04566e+57
          1602.64930	         8.45115e+57
          1603.45560	         9.27863e+57
          1604.26190	         8.60456e+57
          1605.06820	         8.16859e+57
          1605.87450	         7.36614e+57
          1606.68080	         7.47265e+57
          1607.48710	         6.92318e+57
          1608.29340	         6.22890e+57
          1609.09970	         7.58226e+57
          1609.90600	         7.76668e+57
          1610.71230	         7.44202e+57
          1611.51860	         8.04462e+57
          1612.32490	         7.61264e+57
          1613.13120	         7.93513e+57
          1613.93750	         8.56812e+57
          1614.74380	         8.41606e+57
          1615.55010	         8.98566e+57
          1616.35640	         7.66321e+57
          1617.16270	         8.78951e+57
          1617.96900	         9.79469e+57
          1618.77530	         8.73539e+57
          1619.58160	         8.66834e+57
          1620.38790	         8.48725e+57
          1621.19420	         9.13920e+57
          1622.00050	         8.53106e+57
          1622.80680	         9.18270e+57
          1623.61310	         8.87783e+57
          1624.41940	         8.46513e+57
          1625.22570	         8.95354e+57
          1626.03200	         8.68137e+57
          1626.83830	         7.68271e+57
          1627.64460	         7.98231e+57
          1628.45090	         7.71490e+57
          1629.25720	         1.00816e+58
          1630.06350	         1.03946e+58
          1630.86980	         6.83000e+57
          1631.67610	         7.06040e+57
          1632.48240	         7.75607e+57
          1633.28870	         7.84942e+57
          1634.09500	         1.02072e+58
          1634.90130	         1.19331e+58
          1635.70760	         9.71155e+57
          1636.51390	         8.07384e+57
          1637.32020	         6.85144e+57
          1638.12650	         9.19127e+57
          1638.93280	         1.14325e+58
          1639.73910	         1.16281e+58
          1640.54540	         1.09765e+58
          1641.35170	         9.11544e+57
          1642.15800	         8.06091e+57
          1642.96430	         8.32274e+57
          1643.77060	         8.52344e+57
          1644.57690	         8.16703e+57
          1645.38320	         8.81355e+57
          1646.18950	         8.02226e+57
          1646.99580	         8.67844e+57
          1647.80210	         7.86956e+57
          1648.60840	         8.18165e+57
          1649.41470	         8.40520e+57
          1650.22100	         6.96775e+57
          1651.02730	         7.05811e+57
          1651.83360	         7.29267e+57
          1652.63990	         7.62773e+57
          1653.44620	         8.64127e+57
          1654.25250	         9.29334e+57
          1655.05880	         8.48108e+57
          1655.86510	         8.14533e+57
          1656.67140	         8.71990e+57
          1657.47770	         9.14516e+57
          1658.28400	         9.07963e+57
          1659.09030	         8.35550e+57
          1659.89660	         8.72882e+57
          1660.70290	         1.01634e+58
          1661.50920	         9.78445e+57
          1662.31550	         8.96586e+57
          1663.12180	         8.32935e+57
          1663.92810	         9.47598e+57
          1664.73440	         1.17081e+58
          1665.54070	         1.26634e+58
          1666.34700	         1.31469e+58
          1667.15330	         1.21380e+58
          1667.95960	         9.36323e+57
          1668.76590	         7.79450e+57
          1669.57220	         7.15801e+57
          1670.37850	         7.28563e+57
          1671.18480	         8.03865e+57
          1671.99110	         8.79447e+57
          1672.79740	         8.38562e+57
          1673.60370	         7.39540e+57
          1674.41000	         7.02807e+57
          1675.21630	         7.32970e+57
          1676.02260	         6.94922e+57
          1676.82890	         7.12127e+57
          1677.63520	         6.49734e+57
          1678.44150	         6.74845e+57
          1679.24780	         8.98914e+57
          1680.05410	         8.04804e+57
          1680.86040	         5.38088e+57
          1681.66670	         6.87936e+57
          1682.47300	         8.73071e+57
          1683.27930	         7.90908e+57
          1684.08560	         7.27891e+57
          1684.89190	         7.78423e+57
          1685.69820	         6.31444e+57
          1686.50450	         5.82558e+57
          1687.31080	         6.37148e+57
          1688.11710	         7.95774e+57
          1688.92340	         8.20773e+57
          1689.72970	         7.15550e+57
          1690.53600	         7.64505e+57
          1691.34230	         8.83768e+57
          1692.14860	         9.49352e+57
          1692.95490	         8.95511e+57
          1693.76120	         7.44910e+57
          1694.56750	         7.04038e+57
          1695.37380	         8.91087e+57
          1696.18010	         8.69572e+57
          1696.98640	         8.17794e+57
          1697.79270	         8.34702e+57
          1698.59900	         8.29711e+57
          1699.40530	         7.54499e+57
          1700.21160	         7.86339e+57
          1701.01790	         8.48296e+57
          1701.82420	         8.31514e+57
          1702.63050	         8.13181e+57
          1703.43680	         8.44767e+57
          1704.24310	         9.77336e+57
          1705.04940	         9.20605e+57
          1705.85570	         9.07656e+57
          1706.66200	         1.00688e+58
          1707.46830	         8.88412e+57
          1708.27460	         8.32959e+57
          1709.08090	         6.90197e+57
          1709.88720	         6.56809e+57
          1710.69350	         6.45416e+57
          1711.49980	         6.72728e+57
          1712.30610	         7.88044e+57
          1713.11240	         8.70309e+57
          1713.91870	         7.52846e+57
          1714.72500	         7.88905e+57
          1715.53130	         9.54601e+57
          1716.33760	         9.32280e+57
          1717.14390	         7.89646e+57
          1717.95020	         7.74144e+57
          1718.75650	         8.51998e+57
          1719.56280	         9.89007e+57
          1720.36910	         8.42613e+57
          1721.17540	         6.83311e+57
          1721.98170	         6.28782e+57
          1722.78800	         6.57722e+57
          1723.59430	         7.74153e+57
          1724.40060	         8.63990e+57
          1725.20690	         8.23837e+57
          1726.01320	         7.27097e+57
          1726.81950	         7.38080e+57
          1727.62580	         7.62839e+57
          1728.43210	         6.67478e+57
          1729.23840	         7.37309e+57
          1730.04470	         7.93770e+57
          1730.85100	         8.57877e+57
          1731.65730	         7.81888e+57
          1732.46360	         6.39594e+57
          1733.26990	         6.39184e+57
          1734.07620	         7.69088e+57
          1734.88250	         8.15748e+57
          1735.68880	         8.41898e+57
          1736.49510	         9.11465e+57
          1737.30140	         8.27997e+57
          1738.10770	         7.21378e+57
          1738.91400	         7.93647e+57
          1739.72030	         7.11866e+57
          1740.52660	         5.42487e+57
          1741.33290	         6.19364e+57
          1742.13920	         6.85479e+57
          1742.94550	         7.55388e+57
          1743.75180	         8.75026e+57
          1744.55810	         8.65993e+57
          1745.36440	         8.23860e+57
          1746.17070	         6.00202e+57
          1746.97700	         6.11076e+57
          1747.78330	         6.63029e+57
          1748.58960	         6.85525e+57
          1749.39590	         7.42984e+57
          1750.20220	         7.59257e+57
          1751.00850	         6.54848e+57
          1751.81480	         6.23847e+57
          1752.62110	         7.76804e+57
          1753.42740	         8.16334e+57
          1754.23370	         7.49166e+57
          1755.04000	         6.54233e+57
          1755.84630	         6.88910e+57
          1756.65260	         8.19346e+57
          1757.45890	         8.36823e+57
          1758.26520	         6.71030e+57
          1759.07150	         9.02187e+57
          1759.87780	         8.32919e+57
          1760.68410	         7.78283e+57
          1761.49040	         7.59370e+57
          1762.29670	         5.96292e+57
          1763.10300	         7.66716e+57
          1763.90930	         7.80180e+57
          1764.71560	         7.82292e+57
          1765.52190	         8.36487e+57
          1766.32820	         8.76880e+57
          1767.13450	         9.25207e+57
          1767.94080	         8.13201e+57
          1768.74710	         7.37790e+57
          1769.55340	         7.30783e+57
          1770.35970	         6.55853e+57
          1771.16600	         7.15544e+57
          1771.97230	         8.26218e+57
          1772.77860	         8.62639e+57
          1773.58490	         7.36931e+57
          1774.39120	         5.41513e+57
          1775.19750	         6.20441e+57
          1776.00380	         7.71673e+57
          1776.81010	         6.92227e+57
          1777.61640	         6.77931e+57
          1778.42270	         7.62660e+57
          1779.22900	         6.22870e+57
          1780.03530	         5.89960e+57
          1780.84160	         7.33948e+57
          1781.64790	         9.09724e+57
          1782.45420	         8.04601e+57
          1783.26050	         7.47422e+57
          1784.06680	         7.71049e+57
          1784.87310	         7.87097e+57
          1785.67940	         8.08177e+57
          1786.48570	         7.37286e+57
          1787.29200	         6.92815e+57
          1788.09830	         5.55344e+57
          1788.90460	         5.32814e+57
          1789.71090	         5.35406e+57
          1790.51720	         4.85509e+57
          1791.32350	         6.61122e+57
          1792.12980	         8.62010e+57
          1792.93610	         8.14937e+57
          1793.74240	         8.34875e+57
          1794.54870	         8.72670e+57
          1795.35500	         9.01935e+57
          1796.16130	         8.26160e+57
          1796.96760	         7.37654e+57
          1797.77390	         7.71298e+57
          1798.58020	         8.66985e+57
          1799.38650	         7.84471e+57
          1800.19280	         7.04925e+57
          1800.99910	         8.01425e+57
          1801.80540	         8.71632e+57
          1802.61170	         9.67872e+57
          1803.41800	         8.60440e+57
          1804.22430	         7.02068e+57
          1805.03060	         6.49565e+57
          1805.83690	         7.82053e+57
          1806.64320	         8.71432e+57
          1807.44950	         8.54267e+57
          1808.25580	         7.74664e+57
          1809.06210	         1.01766e+58
          1809.86840	         8.55423e+57
          1810.67470	         7.99581e+57
          1811.48100	         9.16969e+57
          1812.28730	         9.09455e+57
          1813.09360	         8.32613e+57
          1813.89990	         8.66591e+57
          1814.70620	         7.43675e+57
          1815.51250	         7.85612e+57
          1816.31880	         8.42577e+57
          1817.12510	         8.09592e+57
          1817.93140	         7.64087e+57
          1818.73770	         8.20243e+57
          1819.54400	         9.31824e+57
          1820.35030	         8.89804e+57
          1821.15660	         6.88310e+57
          1821.96290	         6.25965e+57
          1822.76920	         7.47346e+57
          1823.57550	         8.62213e+57
          1824.38180	         9.07309e+57
          1825.18810	         8.64723e+57
          1825.99440	         8.30459e+57
          1826.80070	         8.04356e+57
          1827.60700	         6.93888e+57
          1828.41330	         6.27887e+57
          1829.21960	         7.30021e+57
          1830.02590	         7.24564e+57
          1830.83220	         7.30939e+57
          1831.63850	         6.95420e+57
          1832.44480	         7.28570e+57
          1833.25110	         7.91647e+57
          1834.05740	         8.65142e+57
          1834.86370	         7.57879e+57
          1835.67000	         6.47694e+57
          1836.47630	         6.63971e+57
          1837.28260	         8.94737e+57
          1838.08890	         9.58623e+57
          1838.89520	         9.28622e+57
          1839.70150	         8.16300e+57
          1840.50780	         7.31050e+57
          1841.31410	         6.70974e+57
          1842.12040	         7.40267e+57
          1842.92670	         7.73295e+57
          1843.73300	         7.00965e+57
          1844.53930	         6.50716e+57
          1845.34560	         6.59862e+57
          1846.15190	         7.92734e+57
          1846.95820	         8.28516e+57
          1847.76450	         7.01450e+57
          1848.57080	         5.61312e+57
          1849.37710	         6.30546e+57
          1850.18340	         8.16062e+57
          1850.98970	         8.48110e+57
          1851.79600	         7.73669e+57
          1852.60230	         6.75389e+57
          1853.40860	         6.81513e+57
          1854.21490	         7.81213e+57
          1855.02120	         6.73088e+57
          1855.82750	         5.02802e+57
          1856.63380	         6.64349e+57
          1857.44010	         8.13449e+57
          1858.24640	         7.25727e+57
          1859.05270	         7.06476e+57
          1859.85900	         5.75018e+57
          1860.66530	         4.94759e+57
          1861.47160	         6.69672e+57
          1862.27790	         6.78482e+57
          1863.08420	         7.65354e+57
          1863.89050	         8.92469e+57
          1864.69680	         7.74156e+57
          1865.50310	         6.59951e+57
          1866.30940	         5.33577e+57
          1867.11570	         6.03025e+57
          1867.92200	         7.68565e+57
          1868.72830	         7.14420e+57
          1869.53460	         7.36462e+57
          1870.34090	         8.58276e+57
          1871.14720	         8.07379e+57
          1871.95350	         7.23532e+57
          1872.75980	         8.18314e+57
          1873.56610	         6.83108e+57
          1874.37240	         6.30925e+57
          1875.17870	         6.28448e+57
          1875.98500	         7.23454e+57
          1876.79130	         8.77033e+57
          1877.59760	         7.96661e+57
          1878.40390	         5.67340e+57
          1879.21020	         5.72042e+57
          1880.01650	         7.12897e+57
          1880.82280	         9.29368e+57
          1881.62910	         8.54848e+57
          1882.43540	         9.98258e+57
          1883.24170	         8.21578e+57
          1884.04800	         6.63040e+57
          1884.85430	         7.53108e+57
          1885.66060	         8.47870e+57
          1886.46690	         8.20102e+57
          1887.27320	         7.21411e+57
          1888.07950	         5.75568e+57
          1888.88580	         5.88447e+57
          1889.69210	         8.02227e+57
          1890.49840	         7.73231e+57
          1891.30470	         8.35669e+57
          1892.11100	         8.29452e+57
          1892.91730	         7.55560e+57
          1893.72360	         8.00814e+57
          1894.52990	         8.42797e+57
          1895.33620	         7.51774e+57
          1896.14250	         6.73195e+57
          1896.94880	         5.08541e+57
          1897.75510	         3.18085e+57
          1898.56140	         5.55271e+57
          1899.36770	         7.29230e+57
          1900.17400	         6.34132e+57
          1900.98030	         6.41622e+57
          1901.78660	         6.68196e+57
          1902.59290	         7.16972e+57
          1903.39920	         8.77837e+57
          1904.20550	         9.13557e+57
          1905.01180	         8.27667e+57
          1905.81810	         9.19235e+57
          1906.62440	         1.22398e+58
          1907.43070	         1.42149e+58
          1908.23700	         1.62040e+58
          1909.04330	         1.26725e+58
          1909.84960	         1.12476e+58
          1910.65590	         1.05279e+58
          1911.46220	         9.00479e+57
          1912.26850	         7.44429e+57
          1913.07480	         5.47353e+57
          1913.88110	         5.59313e+57
          1914.68740	         6.28359e+57
          1915.49370	         6.39667e+57
          1916.30000	         7.08122e+57
          1917.10630	         7.60236e+57
          1917.91260	         6.56354e+57
          1918.71890	         6.94502e+57
          1919.52520	         6.84474e+57
          1920.33150	         6.09757e+57
          1921.13780	         7.22108e+57
          1921.94410	         7.81836e+57
          1922.75040	         7.40307e+57
          1923.55670	         7.97434e+57
          1924.36300	         7.72829e+57
          1925.16930	         6.36733e+57
          1925.97560	         6.13306e+57
          1926.78190	         4.74168e+57
          1927.58820	         5.86541e+57
          1928.39450	         5.85720e+57
          1929.20080	         5.18404e+57
          1930.00710	         6.78688e+57
          1930.81340	         7.93703e+57
          1931.61970	         7.06054e+57
          1932.42600	         7.79453e+57
          1933.23230	         8.80717e+57
          1934.03860	         8.16098e+57
          1934.84490	         6.43359e+57
          1935.65120	         7.57023e+57
          1936.45750	         8.45032e+57
          1937.26380	         5.90327e+57
          1938.07010	         6.82930e+57
          1938.87640	         7.37243e+57
          1939.68270	         6.63358e+57
          1940.48900	         7.82016e+57
          1941.29530	         8.41643e+57
          1942.10160	         8.70348e+57
          1942.90790	         7.21499e+57
          1943.71420	         6.67386e+57
          1944.52050	         6.72954e+57
          1945.32680	         6.68327e+57
          1946.13310	         7.65319e+57
          1946.93940	         8.68561e+57
          1947.74570	         7.18940e+57
          1948.55200	         5.44296e+57
          1949.35830	         6.82579e+57
          1950.16460	         6.84645e+57
          1950.97090	         6.84857e+57
          1951.77720	         7.27831e+57
          1952.58350	         7.93273e+57
          1953.38980	         6.79356e+57
          1954.19610	         5.51836e+57
          1955.00240	         4.71226e+57
          1955.80870	         5.36630e+57
          1956.61500	         5.07274e+57
          1957.42130	         5.70246e+57
          1958.22760	         6.42199e+57
          1959.03390	         6.98446e+57
          1959.84020	         7.17917e+57
          1960.64650	         7.07803e+57
          1961.45280	         7.04632e+57
          1962.25910	         6.19904e+57
          1963.06540	         5.52258e+57
          1963.87170	         5.92577e+57
          1964.67800	         7.43550e+57
          1965.48430	         6.72227e+57
          1966.29060	         5.96357e+57
          1967.09690	         7.84145e+57
          1967.90320	         7.38823e+57
          1968.70950	         6.98876e+57
          1969.51580	         5.40409e+57
          1970.32210	         6.88021e+57
          1971.12840	         7.04005e+57
          1971.93470	         4.50312e+57
          1972.74100	         4.93063e+57
          1973.54730	         6.41801e+57
          1974.35360	         6.10641e+57
          1975.15990	         6.38554e+57
          1975.96620	         6.87072e+57
          1976.77250	         8.13688e+57
          1977.57880	         8.56592e+57
          1978.38510	         6.77938e+57
          1979.19140	         7.42207e+57
          1979.99770	         8.44488e+57
          1980.80400	         8.44161e+57
          1981.61030	         6.68763e+57
          1982.41660	         6.98073e+57
          1983.22290	         6.33361e+57
          1984.02920	         5.08084e+57
          1984.83550	         5.96758e+57
          1985.64180	         6.68427e+57
          1986.44810	         6.60063e+57
          1987.25440	         5.29002e+57
          1988.06070	         5.65530e+57
          1988.86700	         7.20178e+57
          1989.67330	         7.56917e+57
          1990.47960	         6.54165e+57
          1991.28590	         5.96853e+57
          1992.09220	         6.15524e+57
          1992.89850	         5.05105e+57
          1993.70480	         5.42563e+57
          1994.51110	         5.17529e+57
          1995.31740	         4.97965e+57
          1996.12370	         4.16360e+57
          1996.93000	         4.77319e+57
          1997.73630	         8.41237e+57
          1998.54260	         8.86783e+57
          1999.34890	         7.67548e+57
          2000.15520	         7.26400e+57
          2000.96150	         7.21082e+57
          2001.76780	         6.55728e+57
          2002.57410	         4.83568e+57
          2003.38040	         6.19587e+57
          2004.18670	         5.96718e+57
          2004.99300	         5.44893e+57
          2005.79930	         6.51957e+57
          2006.60560	         6.43276e+57
          2007.41190	         6.20454e+57
          2008.21820	         6.10993e+57
          2009.02450	         6.53471e+57
          2009.83080	         6.53267e+57
          2010.63710	         6.24387e+57
          2011.44340	         6.48716e+57
          2012.24970	         6.76000e+57
          2013.05600	         6.59793e+57
          2013.86230	         6.19826e+57
          2014.66860	         5.52520e+57
          2015.47490	         7.12372e+57
          2016.28120	         5.78810e+57
          2017.08750	         5.69250e+57
          2017.89380	         6.66585e+57
          2018.70010	         7.65811e+57
          2019.50640	         5.98794e+57
          2020.31270	         5.33191e+57
          2021.11900	         7.58700e+57
          2021.92530	         8.38279e+57
          2022.73160	         8.11152e+57
          2023.53790	         7.28420e+57
          2024.34420	         5.78256e+57
          2025.15050	         5.79084e+57
          2025.95680	         6.17953e+57
          2026.76310	         6.96064e+57
          2027.56940	         5.46233e+57
          2028.37570	         5.95505e+57
          2029.18200	         6.21051e+57
          2029.98830	         6.59769e+57
          2030.79460	         6.84378e+57
          2031.60090	         6.39835e+57
          2032.40720	         5.98044e+57
          2033.21350	         6.09469e+57
          2034.01980	         5.27817e+57
          2034.82610	         4.71342e+57
          2035.63240	         5.34098e+57
          2036.43870	         6.39656e+57
          2037.24500	         7.67004e+57
          2038.05130	         7.23588e+57
          2038.85760	         6.09984e+57
          2039.66390	         6.17158e+57
          2040.47020	         6.98001e+57
          2041.27650	         6.79033e+57
          2042.08280	         6.29778e+57
          2042.88910	         6.32584e+57
          2043.69540	         6.12806e+57
          2044.50170	         5.78181e+57
          2045.30800	         7.12472e+57
          2046.11430	         7.04164e+57
          2046.92060	         6.26977e+57
          2047.72690	         6.31954e+57
          2048.53320	         7.37248e+57
          2049.33950	         5.33661e+57
          2050.14580	         5.87386e+57
          2050.95210	         7.16146e+57
          2051.75840	         7.14244e+57
          2052.56470	         5.25189e+57
          2053.37100	         3.81962e+57
          2054.17730	         4.23203e+57
          2054.98360	         4.81961e+57
          2055.78990	         3.18286e+57
          2056.59620	         2.36041e+57
          2057.40250	         5.47278e+57
          2058.20880	         6.79060e+57
          2059.01510	         6.42614e+57
          2059.82140	         6.80091e+57
          2060.62770	         9.93521e+57
          2061.43400	         1.59075e+58
          2062.24030	         8.80935e+57
          2063.04660	         2.46524e+57
          2063.85290	         1.49163e+57
          2064.65920	        -3.18733e+57
          2065.46550	        -1.10523e+58
          2066.27180	        -8.68575e+57
          2067.07810	         5.02932e+57
          2067.88440	         6.85804e+57
          2068.69070	         5.39351e+57
          2069.49700	         3.72232e+57
          2070.30330	         3.58900e+57
          2071.10960	         5.02757e+57
          2071.91590	         6.58966e+57
          2072.72220	         3.94460e+57
          2073.52850	         4.18814e+57
          2074.33480	         4.84153e+57
          2075.14110	         6.18033e+57
          2075.94740	         6.11964e+57
          2076.75370	         5.11711e+57
          2077.56000	         4.18327e+57
          2078.36630	         6.09386e+57
          2079.17260	         5.75416e+57
          2079.97890	         5.43247e+57
          2080.78520	         5.87304e+57
          2081.59150	         5.62899e+57
          2082.39780	         5.24178e+57
          2083.20410	         2.23821e+57
          2084.01040	         1.58690e+57
          2084.81670	         3.71667e+57
          2085.62300	         3.57681e+57
          2086.42930	         4.91004e+57
          2087.23560	         3.78618e+57
          2088.04190	         1.43323e+57
          2088.84820	         1.74263e+57
          2089.65450	         2.03273e+57
          2090.46080	         1.02349e+57
          2091.26710	         1.40169e+57
          2092.07340	         4.26403e+57
          2092.87970	         4.75580e+57
          2093.68600	         5.75227e+56
          2094.49230	         3.31289e+57
          2095.29860	         4.64050e+57
          2096.10490	         1.94791e+57
          2096.91120	         2.03509e+57
          2097.71750	         7.72640e+56
          2098.52380	         6.90812e+56
          2099.33010	         4.58924e+56
          2100.13640	         2.65754e+56
          2100.94270	         2.21495e+57
          2101.74900	         3.24571e+57
          2102.55530	         2.03587e+57
          2103.36160	         1.74039e+57
          2104.16790	         3.30114e+57
          2104.97420	         1.84455e+57
          2105.78050	         8.74623e+56
          2106.58680	         1.42993e+57
          2107.39310	        -1.15357e+57
          2108.19940	         8.58226e+56
          2109.00570	         2.81992e+56
          2109.81200	         4.77827e+55
          2110.61830	         2.36961e+57
          2111.42460	         1.57006e+57
          2112.23090	         1.97858e+57
          2113.03720	         1.05248e+57
          2113.84350	        -5.22319e+55
          2114.64980	         6.98536e+57
          2115.45610	         1.13249e+57
          2116.26240	        -4.92642e+57
          2117.06870	        -6.66146e+56
          2117.87500	        -2.29099e+57
          2118.68130	        -6.68560e+55
          2119.48760	        -6.55885e+55
          2120.29390	         2.29070e+57
          2121.10020	        -6.36298e+57
          2121.90650	        -6.63715e+57
          2122.71280	         1.89447e+57
          2123.51910	         3.78507e+57
          2124.32540	        -4.17810e+56
          2125.13170	        -1.44657e+57
          2125.93800	         1.32766e+57
          2126.74430	        -3.53299e+57
          2127.55060	        -8.47099e+57
          2128.35690	        -3.10476e+57
          2129.16320	        -5.18783e+57
          2129.96950	        -5.70206e+57
          2130.77580	         2.60653e+56
          2131.58210	        -7.21286e+56
          2132.38840	         4.96349e+56
          2133.19470	        -1.64115e+57
          2134.00100	         1.60125e+57
          2134.80730	         7.42764e+55
          2135.61360	         3.02648e+57
          2136.41990	         4.31044e+56
          2137.22620	         3.84458e+57
          2138.03250	        -2.58099e+57
          2138.83880	        -7.57020e+56
          2139.64510	         3.15186e+57
          2140.45140	        -3.63244e+57
          2141.25770	        -9.20799e+57
          2142.06400	        -5.75902e+57
          2142.87030	         6.61588e+57
          2143.67660	         9.20244e+57
          2144.48290	         5.71330e+57
          2145.28920	         5.25312e+57
          2146.09550	        -1.73794e+58
          2146.90180	        -8.38620e+57
          2147.70810	        -3.56109e+57
          2148.51440	        -7.63214e+57
          2149.32070	        -9.07022e+57
          2150.12700	        -1.86590e+58
          2150.93330	        -1.07013e+58
          2151.73960	        -1.49988e+57
          2152.54590	        -4.14933e+57
          2153.35220	         7.84222e+57
          2154.15850	        -2.63821e+57
          2154.96480	        -1.21150e+57
          2155.77110	         3.13496e+57
          2156.57740	        -3.90213e+57
          2157.38370	         3.97690e+56
          2158.19000	        -9.03267e+57
          2158.99630	        -4.66292e+56
          2159.80260	        -9.64275e+57
          2160.60890	        -1.36002e+58
          2161.41520	         2.81310e+57
          2162.22150	        -4.48472e+56
          2163.02780	        -1.22757e+56
          2163.83410	        -5.08337e+57
          2164.64040	        -7.73914e+57
          2165.44670	        -1.62753e+58
          2166.25300	        -4.94460e+57
          2167.05930	         2.69411e+57
          2167.86560	        -8.60788e+57
          2168.67190	        -1.49680e+57
          2169.47820	        -1.93177e+58
          2170.28450	        -1.67430e+58
          2171.09080	        -1.34337e+57
          2171.89710	        -3.28660e+57
          2172.70340	        -2.86532e+57
          2173.50970	        -7.61436e+57
          2174.31600	        -3.14138e+57
          2175.12230	        -2.51605e+57
          2175.92860	        -5.67773e+57
          2176.73490	        -1.08434e+58
          2177.54120	        -1.74875e+57
          2178.34750	        -3.19575e+57
          2179.15380	                 nan
          2179.96010	                 nan
          2180.76640	                 nan
          2181.57270	                 nan
          2182.37900	                 nan
          2183.18530	                 nan
          2183.99160	                 nan
          2184.79790	                 nan
          2185.60420	                 nan
          2186.41050	                 nan
          2187.21680	                 nan
          2188.02310	                 nan
          2188.82940	                 nan
          2189.63570	                 nan
          2190.44200	                 nan
          2191.24830	                 nan
          2192.05460	                 nan
          2192.86090	                 nan
          2193.66720	                 nan
          2194.47350	                 nan
          2195.27980	                 nan
          2196.08610	                 nan
          2196.89240	                 nan
          2197.69870	                 nan
          2198.50500	                 nan
          2199.31130	                 nan
          2200.11760	                 nan
          2200.92390	                 nan
          2201.73020	                 nan
          2202.53650	                 nan
          2203.34280	                 nan
          2204.14910	                 nan
          2204.95540	                 nan
          2205.76170	                 nan
          2206.56800	                 nan
          2207.37430	                 nan
          2208.18060	                 nan
          2208.98690	                 nan
          2209.79320	                 nan
          2210.59950	                 nan
          2211.40580	                 nan
          2212.21210	                 nan
          2213.01840	                 nan
          2213.82470	                 nan
          2214.63100	                 nan
          2215.43730	         0.00000e+00
