#sample_300_stacked_spectrum_rest_UV-bands_median_H-alpha_noDC.txt
#median Lum: 1.68227e+42
#Rest-frame wavelength (A) | Luminosity (erg/s/A)
#
          1110.00000	         0.00000e+00
          1110.80630	         5.04101e+59
          1111.61260	         1.36442e+59
          1112.41890	         2.32765e+59
          1113.22520	         9.21202e+58
          1114.03150	         1.49152e+59
          1114.83780	         3.55994e+59
          1115.64410	         1.28560e+59
          1116.45040	         1.05963e+59
          1117.25670	         1.28570e+59
          1118.06300	         2.11133e+59
          1118.86930	         1.50702e+59
          1119.67560	         1.27143e+59
          1120.48190	        -7.90229e+58
          1121.28820	        -7.83095e+58
          1122.09450	         1.19823e+59
          1122.90080	        -1.25166e+57
          1123.70710	         3.56146e+58
          1124.51340	         8.46927e+58
          1125.31970	         4.80736e+58
          1126.12600	         1.14511e+58
          1126.93230	        -4.81675e+58
          1127.73860	        -4.46542e+58
          1128.54490	        -5.43273e+57
          1129.35120	        -4.30017e+57
          1130.15750	        -3.73431e+57
          1130.96380	        -2.85541e+58
          1131.77010	         3.12786e+58
          1132.57640	         2.37252e+58
          1133.38270	         1.76495e+58
          1134.18900	         1.83395e+58
          1134.99530	         3.14343e+58
          1135.80160	         2.57937e+58
          1136.60790	         2.46057e+58
          1137.41420	        -1.05145e+58
          1138.22050	         3.74566e+58
          1139.02680	         2.00837e+58
          1139.83310	         2.42634e+58
          1140.63940	         2.59521e+58
          1141.44570	        -6.50139e+57
          1142.25200	         1.45407e+57
          1143.05830	         2.83538e+58
          1143.86460	         4.48154e+58
          1144.67090	         3.75389e+58
          1145.47720	         2.51329e+58
          1146.28350	         2.10177e+58
          1147.08980	         1.31094e+58
          1147.89610	         1.46023e+58
          1148.70240	         2.33543e+58
          1149.50870	         3.22753e+58
          1150.31500	         1.37474e+58
          1151.12130	         6.15319e+57
          1151.92760	        -7.07156e+56
          1152.73390	         1.17966e+57
          1153.54020	         1.65919e+58
          1154.34650	         1.62575e+58
          1155.15280	         9.25136e+57
          1155.95910	         1.16476e+58
          1156.76540	         9.04518e+57
          1157.57170	         2.15586e+57
          1158.37800	        -2.44558e+57
          1159.18430	        -5.93466e+57
          1159.99060	         4.47907e+57
          1160.79690	         1.15876e+58
          1161.60320	         1.32605e+58
          1162.40950	         1.62526e+58
          1163.21580	         1.02520e+58
          1164.02210	         1.74267e+58
          1164.82840	         6.60602e+57
          1165.63470	         1.07865e+58
          1166.44100	         2.48141e+58
          1167.24730	         2.08709e+58
          1168.05360	         1.42739e+58
          1168.85990	         8.89518e+57
          1169.66620	         7.21616e+57
          1170.47250	         8.02145e+57
          1171.27880	         1.19472e+58
          1172.08510	         1.72000e+58
          1172.89140	         1.38144e+58
          1173.69770	         1.02511e+58
          1174.50400	         1.67293e+58
          1175.31030	         1.88898e+58
          1176.11660	         1.86082e+58
          1176.92290	         1.71802e+58
          1177.72920	         1.15158e+58
          1178.53550	         7.46486e+57
          1179.34180	        -5.14254e+56
          1180.14810	         4.29190e+56
          1180.95440	         9.52639e+57
          1181.76070	         1.08762e+58
          1182.56700	         1.12914e+58
          1183.37330	         7.21349e+57
          1184.17960	         1.06995e+58
          1184.98590	         1.20501e+58
          1185.79220	         1.22035e+58
          1186.59850	         1.04230e+58
          1187.40480	         8.94122e+57
          1188.21110	         1.39120e+58
          1189.01740	         7.75168e+57
          1189.82370	         1.21915e+58
          1190.63000	         9.63245e+57
          1191.43630	         1.31579e+58
          1192.24260	         1.10818e+58
          1193.04890	         1.23344e+58
          1193.85520	         1.13437e+58
          1194.66150	         1.05637e+58
          1195.46780	         1.41222e+58
          1196.27410	         1.32011e+58
          1197.08040	         7.12564e+57
          1197.88670	         8.28598e+57
          1198.69300	         1.29418e+58
          1199.49930	         1.58862e+58
          1200.30560	         1.03697e+58
          1201.11190	         1.05492e+58
          1201.91820	         1.08610e+58
          1202.72450	         7.80139e+57
          1203.53080	         1.41483e+58
          1204.33710	         8.98100e+57
          1205.14340	         6.74255e+57
          1205.94970	         4.32134e+57
          1206.75600	         7.04419e+57
          1207.56230	         7.22547e+57
          1208.36860	         1.06911e+58
          1209.17490	         9.13682e+57
          1209.98120	         1.20633e+58
          1210.78750	         1.19545e+58
          1211.59380	         1.43260e+58
          1212.40010	         1.99167e+58
          1213.20640	         1.71983e+58
          1214.01270	         1.96804e+58
          1214.81900	         2.52426e+58
          1215.62530	         4.60991e+58
          1216.43160	         9.17829e+58
          1217.23790	         1.51339e+59
          1218.04420	         1.11372e+59
          1218.85050	         8.15079e+58
          1219.65680	         5.30167e+58
          1220.46310	         3.25745e+58
          1221.26940	         2.46273e+58
          1222.07570	         1.11513e+58
          1222.88200	         1.00206e+58
          1223.68830	         9.71457e+57
          1224.49460	         7.41313e+57
          1225.30090	         6.30843e+57
          1226.10720	         7.95812e+57
          1226.91350	         7.48965e+57
          1227.71980	         1.11337e+58
          1228.52610	         1.10565e+58
          1229.33240	         6.64177e+57
          1230.13870	         7.86058e+57
          1230.94500	         7.38653e+57
          1231.75130	         7.58008e+57
          1232.55760	         8.17440e+57
          1233.36390	         7.01272e+57
          1234.17020	         7.82886e+57
          1234.97650	         9.08208e+57
          1235.78280	         8.71314e+57
          1236.58910	         7.28058e+57
          1237.39540	         1.00594e+58
          1238.20170	         1.19297e+58
          1239.00800	         1.25888e+58
          1239.81430	         1.33074e+58
          1240.62060	         9.44787e+57
          1241.42690	         9.97229e+57
          1242.23320	         1.18877e+58
          1243.03950	         8.98596e+57
          1243.84580	         8.84214e+57
          1244.65210	         1.05965e+58
          1245.45840	         9.35787e+57
          1246.26470	         9.29642e+57
          1247.07100	         8.42618e+57
          1247.87730	         5.84601e+57
          1248.68360	         2.43347e+57
          1249.48990	         1.98723e+57
          1250.29620	         5.43822e+57
          1251.10250	         5.56219e+57
          1251.90880	         5.59680e+57
          1252.71510	         5.58733e+57
          1253.52140	         6.23680e+57
          1254.32770	         9.36043e+57
          1255.13400	         1.09804e+58
          1255.94030	         9.05567e+57
          1256.74660	         8.18186e+57
          1257.55290	         1.08306e+58
          1258.35920	         9.03518e+57
          1259.16550	         4.03497e+57
          1259.97180	         3.71460e+57
          1260.77810	         7.65344e+57
          1261.58440	         9.12937e+57
          1262.39070	         5.51519e+57
          1263.19700	         6.68226e+57
          1264.00330	         9.03454e+57
          1264.80960	         1.01087e+58
          1265.61590	         1.26069e+58
          1266.42220	         1.24469e+58
          1267.22850	         1.09451e+58
          1268.03480	         1.55183e+58
          1268.84110	         1.41798e+58
          1269.64740	         1.13524e+58
          1270.45370	         1.18227e+58
          1271.26000	         1.11561e+58
          1272.06630	         1.34652e+58
          1272.87260	         1.31712e+58
          1273.67890	         1.28157e+58
          1274.48520	         1.39208e+58
          1275.29150	         1.34210e+58
          1276.09780	         1.25899e+58
          1276.90410	         1.45766e+58
          1277.71040	         1.42710e+58
          1278.51670	         1.40100e+58
          1279.32300	         1.39179e+58
          1280.12930	         1.25798e+58
          1280.93560	         1.04546e+58
          1281.74190	         1.05529e+58
          1282.54820	         1.39291e+58
          1283.35450	         1.18867e+58
          1284.16080	         1.06854e+58
          1284.96710	         1.37106e+58
          1285.77340	         1.27068e+58
          1286.57970	         1.25720e+58
          1287.38600	         1.59854e+58
          1288.19230	         1.69934e+58
          1288.99860	         1.59830e+58
          1289.80490	         9.97461e+57
          1290.61120	         1.02809e+58
          1291.41750	         1.35206e+58
          1292.22380	         1.21153e+58
          1293.03010	         1.12358e+58
          1293.83640	         1.09726e+58
          1294.64270	         1.02809e+58
          1295.44900	         7.52681e+57
          1296.25530	         7.54098e+57
          1297.06160	         8.72756e+57
          1297.86790	         9.70234e+57
          1298.67420	         1.03406e+58
          1299.48050	         1.04831e+58
          1300.28680	         1.23882e+58
          1301.09310	         7.97049e+57
          1301.89940	         3.04818e+57
          1302.70570	         4.95462e+57
          1303.51200	         7.72406e+57
          1304.31830	         9.39253e+57
          1305.12460	         1.06456e+58
          1305.93090	         1.11814e+58
          1306.73720	         1.27510e+58
          1307.54350	         1.52593e+58
          1308.34980	         1.56790e+58
          1309.15610	         1.44879e+58
          1309.96240	         1.36601e+58
          1310.76870	         1.45635e+58
          1311.57500	         1.45431e+58
          1312.38130	         1.16026e+58
          1313.18760	         1.29057e+58
          1313.99390	         1.50606e+58
          1314.80020	         1.61513e+58
          1315.60650	         1.45411e+58
          1316.41280	         1.21993e+58
          1317.21910	         1.08157e+58
          1318.02540	         1.19202e+58
          1318.83170	         1.31709e+58
          1319.63800	         1.15463e+58
          1320.44430	         1.12328e+58
          1321.25060	         1.21450e+58
          1322.05690	         1.20753e+58
          1322.86320	         1.23021e+58
          1323.66950	         1.23675e+58
          1324.47580	         9.64275e+57
          1325.28210	         1.07564e+58
          1326.08840	         1.27662e+58
          1326.89470	         1.26722e+58
          1327.70100	         1.11490e+58
          1328.50730	         8.00537e+57
          1329.31360	         7.98201e+57
          1330.11990	         9.46540e+57
          1330.92620	         8.42241e+57
          1331.73250	         1.06237e+58
          1332.53880	         1.01330e+58
          1333.34510	         9.88172e+57
          1334.15140	         1.01371e+58
          1334.95770	         9.64468e+57
          1335.76400	         9.51980e+57
          1336.57030	         1.00399e+58
          1337.37660	         9.20858e+57
          1338.18290	         9.70246e+57
          1338.98920	         1.03259e+58
          1339.79550	         1.09336e+58
          1340.60180	         1.11654e+58
          1341.40810	         1.18299e+58
          1342.21440	         1.22584e+58
          1343.02070	         1.23767e+58
          1343.82700	         1.23301e+58
          1344.63330	         1.09964e+58
          1345.43960	         1.34204e+58
          1346.24590	         1.41529e+58
          1347.05220	         1.32047e+58
          1347.85850	         1.12069e+58
          1348.66480	         1.26325e+58
          1349.47110	         1.39063e+58
          1350.27740	         1.16510e+58
          1351.08370	         1.11196e+58
          1351.89000	         1.07275e+58
          1352.69630	         1.11040e+58
          1353.50260	         1.21803e+58
          1354.30890	         1.11353e+58
          1355.11520	         1.14171e+58
          1355.92150	         1.24373e+58
          1356.72780	         1.08779e+58
          1357.53410	         1.09052e+58
          1358.34040	         1.11898e+58
          1359.14670	         9.84308e+57
          1359.95300	         1.02792e+58
          1360.75930	         1.17098e+58
          1361.56560	         1.04735e+58
          1362.37190	         1.16632e+58
          1363.17820	         1.22571e+58
          1363.98450	         1.14057e+58
          1364.79080	         1.22626e+58
          1365.59710	         1.34561e+58
          1366.40340	         1.26226e+58
          1367.20970	         1.05832e+58
          1368.01600	         9.87454e+57
          1368.82230	         9.56788e+57
          1369.62860	         1.07409e+58
          1370.43490	         9.38789e+57
          1371.24120	         9.42543e+57
          1372.04750	         8.61544e+57
          1372.85380	         1.09824e+58
          1373.66010	         1.05542e+58
          1374.46640	         9.92238e+57
          1375.27270	         1.04898e+58
          1376.07900	         9.40166e+57
          1376.88530	         8.86506e+57
          1377.69160	         8.34150e+57
          1378.49790	         7.16226e+57
          1379.30420	         7.47488e+57
          1380.11050	         1.00785e+58
          1380.91680	         8.94642e+57
          1381.72310	         6.83499e+57
          1382.52940	         7.27982e+57
          1383.33570	         7.90391e+57
          1384.14200	         9.44025e+57
          1384.94830	         1.07123e+58
          1385.75460	         1.05144e+58
          1386.56090	         9.12910e+57
          1387.36720	         9.75060e+57
          1388.17350	         1.16024e+58
          1388.97980	         1.07787e+58
          1389.78610	         8.58384e+57
          1390.59240	         6.75079e+57
          1391.39870	         6.27522e+57
          1392.20500	         7.77968e+57
          1393.01130	         7.74335e+57
          1393.81760	         8.25552e+57
          1394.62390	         7.54482e+57
          1395.43020	         6.34014e+57
          1396.23650	         6.89741e+57
          1397.04280	         7.63263e+57
          1397.84910	         7.95663e+57
          1398.65540	         7.92561e+57
          1399.46170	         9.40427e+57
          1400.26800	         8.74093e+57
          1401.07430	         7.74639e+57
          1401.88060	         8.30004e+57
          1402.68690	         9.58388e+57
          1403.49320	         9.19798e+57
          1404.29950	         8.90201e+57
          1405.10580	         9.93747e+57
          1405.91210	         1.10747e+58
          1406.71840	         1.15358e+58
          1407.52470	         1.11030e+58
          1408.33100	         9.65633e+57
          1409.13730	         1.02649e+58
          1409.94360	         1.11144e+58
          1410.74990	         1.17545e+58
          1411.55620	         1.09673e+58
          1412.36250	         9.79688e+57
          1413.16880	         8.77192e+57
          1413.97510	         6.84863e+57
          1414.78140	         8.24262e+57
          1415.58770	         1.07074e+58
          1416.39400	         1.16045e+58
          1417.20030	         1.04384e+58
          1418.00660	         8.49497e+57
          1418.81290	         9.44465e+57
          1419.61920	         1.02700e+58
          1420.42550	         1.18248e+58
          1421.23180	         1.37421e+58
          1422.03810	         1.24010e+58
          1422.84440	         1.19474e+58
          1423.65070	         1.38314e+58
          1424.45700	         1.04771e+58
          1425.26330	         7.27901e+57
          1426.06960	         8.85768e+57
          1426.87590	         8.80213e+57
          1427.68220	         9.80425e+57
          1428.48850	         1.14624e+58
          1429.29480	         1.12576e+58
          1430.10110	         9.70010e+57
          1430.90740	         8.10786e+57
          1431.71370	         8.56603e+57
          1432.52000	         8.99780e+57
          1433.32630	         7.41693e+57
          1434.13260	         7.76859e+57
          1434.93890	         9.43812e+57
          1435.74520	         9.60040e+57
          1436.55150	         9.69576e+57
          1437.35780	         8.97439e+57
          1438.16410	         9.12295e+57
          1438.97040	         8.76254e+57
          1439.77670	         9.08532e+57
          1440.58300	         9.63230e+57
          1441.38930	         9.42449e+57
          1442.19560	         9.39416e+57
          1443.00190	         9.22720e+57
          1443.80820	         1.05294e+58
          1444.61450	         9.31538e+57
          1445.42080	         7.23997e+57
          1446.22710	         9.26205e+57
          1447.03340	         9.77743e+57
          1447.83970	         1.08780e+58
          1448.64600	         1.13742e+58
          1449.45230	         1.08203e+58
          1450.25860	         1.03163e+58
          1451.06490	         9.41477e+57
          1451.87120	         8.15054e+57
          1452.67750	         7.66768e+57
          1453.48380	         9.07285e+57
          1454.29010	         8.44235e+57
          1455.09640	         7.35494e+57
          1455.90270	         8.60493e+57
          1456.70900	         8.47334e+57
          1457.51530	         9.16800e+57
          1458.32160	         1.18192e+58
          1459.12790	         1.19643e+58
          1459.93420	         9.73045e+57
          1460.74050	         9.19489e+57
          1461.54680	         9.13767e+57
          1462.35310	         7.29211e+57
          1463.15940	         9.69914e+57
          1463.96570	         1.17554e+58
          1464.77200	         1.20380e+58
          1465.57830	         1.06266e+58
          1466.38460	         8.13982e+57
          1467.19090	         7.51802e+57
          1467.99720	         8.41505e+57
          1468.80350	         8.80510e+57
          1469.60980	         8.96257e+57
          1470.41610	         1.00753e+58
          1471.22240	         9.36148e+57
          1472.02870	         9.50972e+57
          1472.83500	         9.48997e+57
          1473.64130	         9.63726e+57
          1474.44760	         9.47181e+57
          1475.25390	         8.99519e+57
          1476.06020	         9.17624e+57
          1476.86650	         8.77916e+57
          1477.67280	         8.54164e+57
          1478.47910	         7.68747e+57
          1479.28540	         6.37359e+57
          1480.09170	         8.06655e+57
          1480.89800	         9.15139e+57
          1481.70430	         9.07555e+57
          1482.51060	         7.68740e+57
          1483.31690	         7.62915e+57
          1484.12320	         7.16294e+57
          1484.92950	         7.53987e+57
          1485.73580	         7.38046e+57
          1486.54210	         8.38589e+57
          1487.34840	         8.72182e+57
          1488.15470	         8.69646e+57
          1488.96100	         8.96843e+57
          1489.76730	         9.46728e+57
          1490.57360	         8.53651e+57
          1491.37990	         7.87470e+57
          1492.18620	         8.21755e+57
          1492.99250	         7.65203e+57
          1493.79880	         9.31088e+57
          1494.60510	         9.18574e+57
          1495.41140	         6.68072e+57
          1496.21770	         8.17961e+57
          1497.02400	         1.01875e+58
          1497.83030	         8.67635e+57
          1498.63660	         7.32085e+57
          1499.44290	         6.94436e+57
          1500.24920	         6.81399e+57
          1501.05550	         7.84569e+57
          1501.86180	         7.59182e+57
          1502.66810	         8.64017e+57
          1503.47440	         8.95699e+57
          1504.28070	         7.83074e+57
          1505.08700	         8.38272e+57
          1505.89330	         8.39477e+57
          1506.69960	         8.24239e+57
          1507.50590	         8.16135e+57
          1508.31220	         8.60440e+57
          1509.11850	         8.27509e+57
          1509.92480	         9.50041e+57
          1510.73110	         9.40535e+57
          1511.53740	         7.85956e+57
          1512.34370	         6.99000e+57
          1513.15000	         8.92140e+57
          1513.95630	         1.07640e+58
          1514.76260	         9.44491e+57
          1515.56890	         8.94320e+57
          1516.37520	         8.52126e+57
          1517.18150	         6.97267e+57
          1517.98780	         6.85726e+57
          1518.79410	         7.55132e+57
          1519.60040	         8.41446e+57
          1520.40670	         9.57517e+57
          1521.21300	         9.68925e+57
          1522.01930	         8.38270e+57
          1522.82560	         9.33145e+57
          1523.63190	         1.03114e+58
          1524.43820	         7.74350e+57
          1525.24450	         6.17245e+57
          1526.05080	         6.29879e+57
          1526.85710	         6.64632e+57
          1527.66340	         7.29231e+57
          1528.46970	         8.10451e+57
          1529.27600	         7.82715e+57
          1530.08230	         7.15627e+57
          1530.88860	         7.33006e+57
          1531.69490	         8.24014e+57
          1532.50120	         9.40275e+57
          1533.30750	         9.66328e+57
          1534.11380	         9.13485e+57
          1534.92010	         9.23771e+57
          1535.72640	         9.00022e+57
          1536.53270	         8.75645e+57
          1537.33900	         8.62663e+57
          1538.14530	         8.60994e+57
          1538.95160	         8.70626e+57
          1539.75790	         8.84773e+57
          1540.56420	         8.52891e+57
          1541.37050	         8.17018e+57
          1542.17680	         8.14105e+57
          1542.98310	         7.82425e+57
          1543.78940	         8.36572e+57
          1544.59570	         7.60854e+57
          1545.40200	         7.43628e+57
          1546.20830	         9.19170e+57
          1547.01460	         1.14758e+58
          1547.82090	         1.20128e+58
          1548.62720	         1.20822e+58
          1549.43350	         1.17580e+58
          1550.23980	         1.17272e+58
          1551.04610	         1.27232e+58
          1551.85240	         1.28452e+58
          1552.65870	         1.16094e+58
          1553.46500	         1.04440e+58
          1554.27130	         1.11540e+58
          1555.07760	         1.07196e+58
          1555.88390	         8.86579e+57
          1556.69020	         8.60260e+57
          1557.49650	         8.56513e+57
          1558.30280	         7.90371e+57
          1559.10910	         8.43270e+57
          1559.91540	         8.51129e+57
          1560.72170	         8.31089e+57
          1561.52800	         8.76866e+57
          1562.33430	         8.01929e+57
          1563.14060	         7.29610e+57
          1563.94690	         7.97292e+57
          1564.75320	         7.74541e+57
          1565.55950	         7.04216e+57
          1566.36580	         7.31063e+57
          1567.17210	         8.95448e+57
          1567.97840	         9.21857e+57
          1568.78470	         8.74107e+57
          1569.59100	         8.79356e+57
          1570.39730	         7.73985e+57
          1571.20360	         6.99534e+57
          1572.00990	         7.33195e+57
          1572.81620	         8.32042e+57
          1573.62250	         9.84580e+57
          1574.42880	         8.83802e+57
          1575.23510	         7.50006e+57
          1576.04140	         8.24781e+57
          1576.84770	         9.17783e+57
          1577.65400	         8.50983e+57
          1578.46030	         8.84767e+57
          1579.26660	         9.81019e+57
          1580.07290	         9.45363e+57
          1580.87920	         8.04425e+57
          1581.68550	         8.26546e+57
          1582.49180	         8.48790e+57
          1583.29810	         8.06953e+57
          1584.10440	         8.47983e+57
          1584.91070	         8.55696e+57
          1585.71700	         8.41880e+57
          1586.52330	         9.32292e+57
          1587.32960	         8.78490e+57
          1588.13590	         8.78623e+57
          1588.94220	         8.68801e+57
          1589.74850	         8.36070e+57
          1590.55480	         8.86289e+57
          1591.36110	         7.97778e+57
          1592.16740	         7.62672e+57
          1592.97370	         7.50536e+57
          1593.78000	         8.63215e+57
          1594.58630	         9.26062e+57
          1595.39260	         8.46283e+57
          1596.19890	         8.40213e+57
          1597.00520	         8.85510e+57
          1597.81150	         8.61998e+57
          1598.61780	         7.82480e+57
          1599.42410	         7.08465e+57
          1600.23040	         6.33068e+57
          1601.03670	         7.53058e+57
          1601.84300	         7.65195e+57
          1602.64930	         8.48683e+57
          1603.45560	         8.83342e+57
          1604.26190	         8.72697e+57
          1605.06820	         8.14759e+57
          1605.87450	         6.59497e+57
          1606.68080	         6.78635e+57
          1607.48710	         6.82163e+57
          1608.29340	         6.14633e+57
          1609.09970	         7.00507e+57
          1609.90600	         8.69016e+57
          1610.71230	         7.41020e+57
          1611.51860	         6.44721e+57
          1612.32490	         6.16783e+57
          1613.13120	         6.91075e+57
          1613.93750	         6.95639e+57
          1614.74380	         7.26991e+57
          1615.55010	         8.45795e+57
          1616.35640	         9.39752e+57
          1617.16270	         9.58292e+57
          1617.96900	         1.00373e+58
          1618.77530	         9.20834e+57
          1619.58160	         8.43133e+57
          1620.38790	         8.88344e+57
          1621.19420	         9.04525e+57
          1622.00050	         8.22991e+57
          1622.80680	         7.65268e+57
          1623.61310	         9.05238e+57
          1624.41940	         9.61109e+57
          1625.22570	         1.00331e+58
          1626.03200	         8.83988e+57
          1626.83830	         7.74716e+57
          1627.64460	         7.63750e+57
          1628.45090	         6.32061e+57
          1629.25720	         7.82038e+57
          1630.06350	         8.94434e+57
          1630.86980	         6.73072e+57
          1631.67610	         7.48435e+57
          1632.48240	         8.99065e+57
          1633.28870	         7.37505e+57
          1634.09500	         8.23207e+57
          1634.90130	         1.02555e+58
          1635.70760	         8.40407e+57
          1636.51390	         7.35390e+57
          1637.32020	         7.20564e+57
          1638.12650	         1.03031e+58
          1638.93280	         1.04243e+58
          1639.73910	         9.53754e+57
          1640.54540	         9.58736e+57
          1641.35170	         8.99755e+57
          1642.15800	         9.09416e+57
          1642.96430	         7.70236e+57
          1643.77060	         8.47693e+57
          1644.57690	         9.35926e+57
          1645.38320	         8.74519e+57
          1646.18950	         6.34955e+57
          1646.99580	         7.90180e+57
          1647.80210	         8.15788e+57
          1648.60840	         7.80385e+57
          1649.41470	         8.17912e+57
          1650.22100	         7.21467e+57
          1651.02730	         6.88009e+57
          1651.83360	         6.69073e+57
          1652.63990	         7.27508e+57
          1653.44620	         8.03130e+57
          1654.25250	         7.54467e+57
          1655.05880	         7.22361e+57
          1655.86510	         7.41673e+57
          1656.67140	         7.56602e+57
          1657.47770	         7.22823e+57
          1658.28400	         8.32020e+57
          1659.09030	         8.77108e+57
          1659.89660	         8.52878e+57
          1660.70290	         9.55874e+57
          1661.50920	         9.28233e+57
          1662.31550	         7.95033e+57
          1663.12180	         8.78647e+57
          1663.92810	         9.63894e+57
          1664.73440	         1.05672e+58
          1665.54070	         1.13339e+58
          1666.34700	         1.20767e+58
          1667.15330	         1.17560e+58
          1667.95960	         9.04014e+57
          1668.76590	         7.73999e+57
          1669.57220	         6.25987e+57
          1670.37850	         6.84070e+57
          1671.18480	         8.51131e+57
          1671.99110	         7.62265e+57
          1672.79740	         7.01629e+57
          1673.60370	         6.43631e+57
          1674.41000	         7.14409e+57
          1675.21630	         7.03532e+57
          1676.02260	         6.62959e+57
          1676.82890	         7.24873e+57
          1677.63520	         6.93881e+57
          1678.44150	         6.25623e+57
          1679.24780	         7.59654e+57
          1680.05410	         7.28380e+57
          1680.86040	         6.04000e+57
          1681.66670	         7.23608e+57
          1682.47300	         8.37865e+57
          1683.27930	         8.54389e+57
          1684.08560	         8.84175e+57
          1684.89190	         8.64495e+57
          1685.69820	         5.35268e+57
          1686.50450	         5.39295e+57
          1687.31080	         7.83108e+57
          1688.11710	         8.06873e+57
          1688.92340	         6.72109e+57
          1689.72970	         6.27179e+57
          1690.53600	         6.41298e+57
          1691.34230	         7.55323e+57
          1692.14860	         8.11183e+57
          1692.95490	         7.42311e+57
          1693.76120	         6.93581e+57
          1694.56750	         7.26695e+57
          1695.37380	         7.82344e+57
          1696.18010	         8.11607e+57
          1696.98640	         7.58420e+57
          1697.79270	         7.89902e+57
          1698.59900	         8.07872e+57
          1699.40530	         7.97059e+57
          1700.21160	         8.68051e+57
          1701.01790	         7.89520e+57
          1701.82420	         6.88058e+57
          1702.63050	         8.68685e+57
          1703.43680	         8.85242e+57
          1704.24310	         8.32241e+57
          1705.04940	         8.59374e+57
          1705.85570	         7.35880e+57
          1706.66200	         8.00587e+57
          1707.46830	         8.46814e+57
          1708.27460	         7.66712e+57
          1709.08090	         6.79354e+57
          1709.88720	         6.71019e+57
          1710.69350	         6.72676e+57
          1711.49980	         7.61347e+57
          1712.30610	         7.27101e+57
          1713.11240	         8.91991e+57
          1713.91870	         7.98159e+57
          1714.72500	         8.08784e+57
          1715.53130	         9.23096e+57
          1716.33760	         7.21325e+57
          1717.14390	         6.24635e+57
          1717.95020	         7.73494e+57
          1718.75650	         8.41790e+57
          1719.56280	         8.62880e+57
          1720.36910	         6.69319e+57
          1721.17540	         6.32942e+57
          1721.98170	         6.55174e+57
          1722.78800	         6.11270e+57
          1723.59430	         7.04199e+57
          1724.40060	         8.46466e+57
          1725.20690	         7.89168e+57
          1726.01320	         7.15023e+57
          1726.81950	         6.66205e+57
          1727.62580	         6.78897e+57
          1728.43210	         7.63950e+57
          1729.23840	         7.11930e+57
          1730.04470	         7.51203e+57
          1730.85100	         8.35783e+57
          1731.65730	         9.41479e+57
          1732.46360	         8.85361e+57
          1733.26990	         7.44079e+57
          1734.07620	         6.88510e+57
          1734.88250	         7.14814e+57
          1735.68880	         7.59077e+57
          1736.49510	         8.43988e+57
          1737.30140	         7.73242e+57
          1738.10770	         7.10228e+57
          1738.91400	         7.80094e+57
          1739.72030	         7.00538e+57
          1740.52660	         5.42726e+57
          1741.33290	         5.15778e+57
          1742.13920	         5.33097e+57
          1742.94550	         6.47455e+57
          1743.75180	         7.18144e+57
          1744.55810	         7.74064e+57
          1745.36440	         7.17939e+57
          1746.17070	         4.97524e+57
          1746.97700	         5.53035e+57
          1747.78330	         6.23957e+57
          1748.58960	         5.61228e+57
          1749.39590	         6.26682e+57
          1750.20220	         7.19732e+57
          1751.00850	         6.46680e+57
          1751.81480	         5.90659e+57
          1752.62110	         7.07172e+57
          1753.42740	         8.01499e+57
          1754.23370	         6.49508e+57
          1755.04000	         5.77064e+57
          1755.84630	         6.30494e+57
          1756.65260	         7.90409e+57
          1757.45890	         8.45599e+57
          1758.26520	         7.60856e+57
          1759.07150	         9.17992e+57
          1759.87780	         8.36619e+57
          1760.68410	         7.38487e+57
          1761.49040	         7.75283e+57
          1762.29670	         6.30547e+57
          1763.10300	         6.62215e+57
          1763.90930	         7.11067e+57
          1764.71560	         7.49738e+57
          1765.52190	         8.72074e+57
          1766.32820	         8.95219e+57
          1767.13450	         8.54061e+57
          1767.94080	         7.27536e+57
          1768.74710	         6.29527e+57
          1769.55340	         6.31293e+57
          1770.35970	         6.63371e+57
          1771.16600	         6.39146e+57
          1771.97230	         7.03420e+57
          1772.77860	         7.27339e+57
          1773.58490	         7.09790e+57
          1774.39120	         6.16798e+57
          1775.19750	         5.57056e+57
          1776.00380	         6.80250e+57
          1776.81010	         7.11543e+57
          1777.61640	         6.58404e+57
          1778.42270	         6.81530e+57
          1779.22900	         7.48823e+57
          1780.03530	         6.91006e+57
          1780.84160	         6.33797e+57
          1781.64790	         7.91563e+57
          1782.45420	         6.91991e+57
          1783.26050	         6.31049e+57
          1784.06680	         6.77423e+57
          1784.87310	         7.09186e+57
          1785.67940	         7.27263e+57
          1786.48570	         6.48243e+57
          1787.29200	         5.34162e+57
          1788.09830	         5.70910e+57
          1788.90460	         5.44454e+57
          1789.71090	         5.05687e+57
          1790.51720	         5.16641e+57
          1791.32350	         7.26342e+57
          1792.12980	         9.12746e+57
          1792.93610	         9.18651e+57
          1793.74240	         8.44178e+57
          1794.54870	         8.55203e+57
          1795.35500	         8.88566e+57
          1796.16130	         7.82722e+57
          1796.96760	         6.94379e+57
          1797.77390	         6.31447e+57
          1798.58020	         6.53050e+57
          1799.38650	         6.26139e+57
          1800.19280	         6.82234e+57
          1800.99910	         7.17181e+57
          1801.80540	         7.01314e+57
          1802.61170	         8.68862e+57
          1803.41800	         8.56621e+57
          1804.22430	         6.64010e+57
          1805.03060	         6.24384e+57
          1805.83690	         7.47297e+57
          1806.64320	         7.73570e+57
          1807.44950	         6.44557e+57
          1808.25580	         6.76255e+57
          1809.06210	         7.70938e+57
          1809.86840	         6.78024e+57
          1810.67470	         6.61605e+57
          1811.48100	         8.01226e+57
          1812.28730	         8.42929e+57
          1813.09360	         7.71265e+57
          1813.89990	         8.36722e+57
          1814.70620	         7.93088e+57
          1815.51250	         7.18979e+57
          1816.31880	         7.16445e+57
          1817.12510	         6.80846e+57
          1817.93140	         6.50049e+57
          1818.73770	         6.91490e+57
          1819.54400	         8.25448e+57
          1820.35030	         8.28397e+57
          1821.15660	         5.98824e+57
          1821.96290	         5.43036e+57
          1822.76920	         7.41292e+57
          1823.57550	         7.80563e+57
          1824.38180	         7.37099e+57
          1825.18810	         7.51104e+57
          1825.99440	         8.22938e+57
          1826.80070	         7.84609e+57
          1827.60700	         7.05113e+57
          1828.41330	         6.68200e+57
          1829.21960	         7.15290e+57
          1830.02590	         7.76246e+57
          1830.83220	         7.85373e+57
          1831.63850	         7.25623e+57
          1832.44480	         6.64533e+57
          1833.25110	         7.35744e+57
          1834.05740	         8.63870e+57
          1834.86370	         7.77967e+57
          1835.67000	         5.89455e+57
          1836.47630	         6.85150e+57
          1837.28260	         8.09540e+57
          1838.08890	         8.89983e+57
          1838.89520	         8.28107e+57
          1839.70150	         6.97669e+57
          1840.50780	         6.78114e+57
          1841.31410	         6.85957e+57
          1842.12040	         6.98431e+57
          1842.92670	         7.38617e+57
          1843.73300	         6.64575e+57
          1844.53930	         6.82462e+57
          1845.34560	         6.41936e+57
          1846.15190	         6.75655e+57
          1846.95820	         6.37098e+57
          1847.76450	         6.57929e+57
          1848.57080	         6.21184e+57
          1849.37710	         6.22164e+57
          1850.18340	         6.15050e+57
          1850.98970	         7.95843e+57
          1851.79600	         7.50640e+57
          1852.60230	         5.46515e+57
          1853.40860	         6.35759e+57
          1854.21490	         7.34420e+57
          1855.02120	         5.60790e+57
          1855.82750	         4.16622e+57
          1856.63380	         4.64623e+57
          1857.44010	         7.19588e+57
          1858.24640	         7.39889e+57
          1859.05270	         6.95093e+57
          1859.85900	         7.18823e+57
          1860.66530	         6.29369e+57
          1861.47160	         5.97531e+57
          1862.27790	         6.16695e+57
          1863.08420	         6.18291e+57
          1863.89050	         8.49131e+57
          1864.69680	         8.33999e+57
          1865.50310	         7.64869e+57
          1866.30940	         6.73636e+57
          1867.11570	         5.50007e+57
          1867.92200	         6.60526e+57
          1868.72830	         7.83233e+57
          1869.53460	         6.88815e+57
          1870.34090	         6.89884e+57
          1871.14720	         7.35985e+57
          1871.95350	         7.24436e+57
          1872.75980	         7.65439e+57
          1873.56610	         6.70118e+57
          1874.37240	         5.87578e+57
          1875.17870	         5.44286e+57
          1875.98500	         7.21291e+57
          1876.79130	         8.27050e+57
          1877.59760	         7.27569e+57
          1878.40390	         5.90886e+57
          1879.21020	         5.86263e+57
          1880.01650	         6.79660e+57
          1880.82280	         7.74713e+57
          1881.62910	         8.94471e+57
          1882.43540	         8.85853e+57
          1883.24170	         7.48889e+57
          1884.04800	         6.88073e+57
          1884.85430	         7.18793e+57
          1885.66060	         8.26086e+57
          1886.46690	         8.52976e+57
          1887.27320	         8.03655e+57
          1888.07950	         6.43934e+57
          1888.88580	         7.60971e+57
          1889.69210	         8.45268e+57
          1890.49840	         8.47429e+57
          1891.30470	         8.08203e+57
          1892.11100	         8.03917e+57
          1892.91730	         7.53320e+57
          1893.72360	         7.35990e+57
          1894.52990	         7.50795e+57
          1895.33620	         7.61816e+57
          1896.14250	         7.10419e+57
          1896.94880	         6.85673e+57
          1897.75510	         4.00654e+57
          1898.56140	         5.37325e+57
          1899.36770	         7.84653e+57
          1900.17400	         6.16704e+57
          1900.98030	         7.79208e+57
          1901.78660	         7.46379e+57
          1902.59290	         6.96289e+57
          1903.39920	         7.47551e+57
          1904.20550	         8.36256e+57
          1905.01180	         8.66303e+57
          1905.81810	         9.32946e+57
          1906.62440	         1.21361e+58
          1907.43070	         1.44844e+58
          1908.23700	         1.50994e+58
          1909.04330	         1.21049e+58
          1909.84960	         1.07355e+58
          1910.65590	         1.00587e+58
          1911.46220	         8.69994e+57
          1912.26850	         7.25720e+57
          1913.07480	         6.90593e+57
          1913.88110	         6.76888e+57
          1914.68740	         6.35814e+57
          1915.49370	         5.82890e+57
          1916.30000	         6.34175e+57
          1917.10630	         7.04597e+57
          1917.91260	         7.25961e+57
          1918.71890	         6.49154e+57
          1919.52520	         6.19739e+57
          1920.33150	         4.90854e+57
          1921.13780	         6.00467e+57
          1921.94410	         7.63711e+57
          1922.75040	         7.30060e+57
          1923.55670	         6.39313e+57
          1924.36300	         7.20181e+57
          1925.16930	         6.44182e+57
          1925.97560	         5.10245e+57
          1926.78190	         4.98964e+57
          1927.58820	         6.41178e+57
          1928.39450	         6.19635e+57
          1929.20080	         5.01977e+57
          1930.00710	         5.96902e+57
          1930.81340	         6.56320e+57
          1931.61970	         6.73866e+57
          1932.42600	         7.22282e+57
          1933.23230	         9.08076e+57
          1934.03860	         7.50542e+57
          1934.84490	         7.40384e+57
          1935.65120	         7.31328e+57
          1936.45750	         8.53782e+57
          1937.26380	         6.33222e+57
          1938.07010	         8.06131e+57
          1938.87640	         7.28373e+57
          1939.68270	         7.20882e+57
          1940.48900	         6.84656e+57
          1941.29530	         7.56787e+57
          1942.10160	         7.78485e+57
          1942.90790	         7.03598e+57
          1943.71420	         6.17800e+57
          1944.52050	         6.10685e+57
          1945.32680	         6.02954e+57
          1946.13310	         6.26950e+57
          1946.93940	         7.76894e+57
          1947.74570	         7.36737e+57
          1948.55200	         5.93370e+57
          1949.35830	         6.53735e+57
          1950.16460	         5.31691e+57
          1950.97090	         6.38660e+57
          1951.77720	         6.99986e+57
          1952.58350	         7.71551e+57
          1953.38980	         6.60805e+57
          1954.19610	         3.92171e+57
          1955.00240	         5.16037e+57
          1955.80870	         6.28722e+57
          1956.61500	         6.48456e+57
          1957.42130	         6.64861e+57
          1958.22760	         6.90809e+57
          1959.03390	         6.86174e+57
          1959.84020	         7.35380e+57
          1960.64650	         6.64770e+57
          1961.45280	         5.01043e+57
          1962.25910	         5.88954e+57
          1963.06540	         7.04648e+57
          1963.87170	         6.83526e+57
          1964.67800	         6.20734e+57
          1965.48430	         6.86433e+57
          1966.29060	         6.32737e+57
          1967.09690	         7.47512e+57
          1967.90320	         6.05969e+57
          1968.70950	         6.75519e+57
          1969.51580	         6.36184e+57
          1970.32210	         6.90224e+57
          1971.12840	         6.92929e+57
          1971.93470	         5.18877e+57
          1972.74100	         5.14177e+57
          1973.54730	         5.28245e+57
          1974.35360	         6.24048e+57
          1975.15990	         7.09685e+57
          1975.96620	         5.86417e+57
          1976.77250	         7.39000e+57
          1977.57880	         7.76666e+57
          1978.38510	         6.70992e+57
          1979.19140	         7.47486e+57
          1979.99770	         7.23059e+57
          1980.80400	         7.51651e+57
          1981.61030	         6.39416e+57
          1982.41660	         4.75098e+57
          1983.22290	         4.99746e+57
          1984.02920	         5.11298e+57
          1984.83550	         5.44140e+57
          1985.64180	         6.03843e+57
          1986.44810	         6.45378e+57
          1987.25440	         5.43400e+57
          1988.06070	         5.06704e+57
          1988.86700	         6.42781e+57
          1989.67330	         7.21489e+57
          1990.47960	         5.92164e+57
          1991.28590	         6.27889e+57
          1992.09220	         6.69016e+57
          1992.89850	         5.99241e+57
          1993.70480	         5.59950e+57
          1994.51110	         4.46118e+57
          1995.31740	         4.89906e+57
          1996.12370	         4.89195e+57
          1996.93000	         5.63868e+57
          1997.73630	         7.58748e+57
          1998.54260	         7.44566e+57
          1999.34890	         6.95408e+57
          2000.15520	         6.43262e+57
          2000.96150	         6.46972e+57
          2001.76780	         6.21840e+57
          2002.57410	         5.22829e+57
          2003.38040	         7.15243e+57
          2004.18670	         7.04256e+57
          2004.99300	         5.46906e+57
          2005.79930	         6.90718e+57
          2006.60560	         7.68945e+57
          2007.41190	         6.40368e+57
          2008.21820	         6.04538e+57
          2009.02450	         6.71365e+57
          2009.83080	         5.60138e+57
          2010.63710	         5.83102e+57
          2011.44340	         6.87896e+57
          2012.24970	         7.81666e+57
          2013.05600	         6.90678e+57
          2013.86230	         6.56946e+57
          2014.66860	         6.68348e+57
          2015.47490	         5.40108e+57
          2016.28120	         5.01814e+57
          2017.08750	         5.96650e+57
          2017.89380	         5.95085e+57
          2018.70010	         6.24187e+57
          2019.50640	         5.71838e+57
          2020.31270	         5.85541e+57
          2021.11900	         7.44620e+57
          2021.92530	         7.14448e+57
          2022.73160	         6.67655e+57
          2023.53790	         6.60905e+57
          2024.34420	         6.40300e+57
          2025.15050	         5.58569e+57
          2025.95680	         5.40791e+57
          2026.76310	         5.11813e+57
          2027.56940	         6.00377e+57
          2028.37570	         7.40611e+57
          2029.18200	         5.97503e+57
          2029.98830	         5.88757e+57
          2030.79460	         5.56687e+57
          2031.60090	         5.41164e+57
          2032.40720	         5.08960e+57
          2033.21350	         5.27718e+57
          2034.01980	         5.57988e+57
          2034.82610	         4.20923e+57
          2035.63240	         4.42583e+57
          2036.43870	         3.83715e+57
          2037.24500	         5.10550e+57
          2038.05130	         5.93282e+57
          2038.85760	         6.63742e+57
          2039.66390	         6.38435e+57
          2040.47020	         5.29724e+57
          2041.27650	         5.52810e+57
          2042.08280	         5.43412e+57
          2042.88910	         5.60071e+57
          2043.69540	         6.08429e+57
          2044.50170	         6.38939e+57
          2045.30800	         5.90411e+57
          2046.11430	         4.69837e+57
          2046.92060	         5.96325e+57
          2047.72690	         6.53589e+57
          2048.53320	         7.69082e+57
          2049.33950	         5.44875e+57
          2050.14580	         5.33113e+57
          2050.95210	         5.59219e+57
          2051.75840	         6.56666e+57
          2052.56470	         5.45933e+57
          2053.37100	         3.59846e+57
          2054.17730	         6.03210e+57
          2054.98360	         4.45057e+57
          2055.78990	         3.84034e+57
          2056.59620	         2.34092e+57
          2057.40250	         4.55159e+57
          2058.20880	         5.35329e+57
          2059.01510	         6.51833e+57
          2059.82140	         6.73070e+57
          2060.62770	         1.08188e+58
          2061.43400	         1.61741e+58
          2062.24030	         9.94290e+57
          2063.04660	         4.10472e+57
          2063.85290	        -2.57296e+56
          2064.65920	        -2.16489e+57
          2065.46550	        -9.69307e+57
          2066.27180	        -8.24270e+57
          2067.07810	         3.17321e+57
          2067.88440	         4.47780e+57
          2068.69070	         5.09625e+57
          2069.49700	         5.18517e+57
          2070.30330	         3.92865e+57
          2071.10960	         6.10648e+57
          2071.91590	         7.14836e+57
          2072.72220	         3.86985e+57
          2073.52850	         4.47967e+57
          2074.33480	         5.52407e+57
          2075.14110	         4.98082e+57
          2075.94740	         4.67605e+57
          2076.75370	         4.81241e+57
          2077.56000	         6.05829e+57
          2078.36630	         6.38322e+57
          2079.17260	         4.07994e+57
          2079.97890	         5.34670e+57
          2080.78520	         5.61288e+57
          2081.59150	         4.54903e+57
          2082.39780	         4.50559e+57
          2083.20410	         2.25936e+57
          2084.01040	         1.60103e+57
          2084.81670	         2.43051e+57
          2085.62300	         2.91362e+57
          2086.42930	         2.15105e+57
          2087.23560	         2.23572e+57
          2088.04190	         3.35418e+57
          2088.84820	         3.31981e+57
          2089.65450	         1.38289e+57
          2090.46080	         1.40986e+57
          2091.26710	         3.80239e+57
          2092.07340	         3.29683e+57
          2092.87970	         1.93294e+57
          2093.68600	        -4.10263e+56
          2094.49230	         2.61397e+57
          2095.29860	         4.89226e+57
          2096.10490	         1.95603e+57
          2096.91120	         1.99257e+57
          2097.71750	         3.10247e+57
          2098.52380	         1.61388e+57
          2099.33010	         2.55707e+56
          2100.13640	         2.23604e+57
          2100.94270	         2.46997e+57
          2101.74900	         3.53579e+57
          2102.55530	         3.52715e+57
          2103.36160	         2.10179e+57
          2104.16790	         3.71156e+57
          2104.97420	         3.38816e+57
          2105.78050	         1.57699e+57
          2106.58680	         2.14278e+57
          2107.39310	        -1.10673e+55
          2108.19940	         2.78332e+56
          2109.00570	        -1.70806e+56
          2109.81200	         6.83325e+56
          2110.61830	         1.91009e+57
          2111.42460	         3.34142e+56
          2112.23090	         1.42789e+57
          2113.03720	        -2.41232e+57
          2113.84350	         8.79501e+56
          2114.64980	         7.47373e+57
          2115.45610	         1.34556e+57
          2116.26240	        -6.46326e+57
          2117.06870	        -2.62834e+57
          2117.87500	        -4.23201e+57
          2118.68130	        -6.53059e+54
          2119.48760	         1.86744e+57
          2120.29390	         4.51257e+57
          2121.10020	        -2.11602e+57
          2121.90650	        -1.81741e+57
          2122.71280	        -6.59016e+56
          2123.51910	         3.40898e+57
          2124.32540	         5.05047e+56
          2125.13170	         9.94473e+55
          2125.93800	        -8.07920e+56
          2126.74430	        -6.88888e+57
          2127.55060	        -5.51991e+57
          2128.35690	        -7.29971e+57
          2129.16320	        -4.54015e+57
          2129.96950	        -6.73185e+57
          2130.77580	        -7.05363e+56
          2131.58210	        -3.63747e+57
          2132.38840	         9.33698e+56
          2133.19470	         7.34468e+56
          2134.00100	        -2.06010e+57
          2134.80730	        -7.05468e+57
          2135.61360	         2.85734e+57
          2136.41990	         1.20048e+57
          2137.22620	        -2.89452e+57
          2138.03250	         8.61318e+57
          2138.83880	        -6.04547e+57
          2139.64510	        -1.55862e+57
          2140.45140	        -4.00391e+57
          2141.25770	        -1.09316e+58
          2142.06400	        -3.18166e+57
          2142.87030	         7.48692e+57
          2143.67660	         1.25596e+58
          2144.48290	        -2.84069e+57
          2145.28920	         1.48071e+58
          2146.09550	        -3.03532e+57
          2146.90180	        -4.20946e+57
          2147.70810	         2.65224e+56
          2148.51440	        -5.78240e+57
          2149.32070	        -1.39882e+58
          2150.12700	        -1.15347e+58
          2150.93330	        -9.22100e+57
          2151.73960	         2.26570e+57
          2152.54590	        -2.48129e+57
          2153.35220	         2.09249e+57
          2154.15850	         9.29006e+56
          2154.96480	         4.00468e+57
          2155.77110	        -4.87448e+57
          2156.57740	         8.02332e+57
          2157.38370	         5.16989e+57
          2158.19000	         1.77665e+57
          2158.99630	        -4.24895e+57
          2159.80260	        -2.01504e+58
          2160.60890	        -8.00217e+57
          2161.41520	         2.20544e+57
          2162.22150	         5.49001e+56
          2163.02780	        -2.01091e+57
          2163.83410	        -1.52606e+58
          2164.64040	        -1.36098e+58
          2165.44670	        -8.40718e+57
          2166.25300	        -9.50318e+57
          2167.05930	        -8.34915e+57
          2167.86560	        -1.07749e+58
          2168.67190	        -1.45884e+58
          2169.47820	        -7.35382e+57
          2170.28450	        -1.95687e+57
          2171.09080	        -2.18982e+57
          2171.89710	        -4.27218e+56
          2172.70340	        -5.53757e+57
          2173.50970	        -6.12622e+57
          2174.31600	        -4.80013e+57
          2175.12230	        -1.09298e+56
          2175.92860	        -2.40303e+57
          2176.73490	        -1.47335e+58
          2177.54120	        -9.58821e+57
          2178.34750	        -5.07137e+57
          2179.15380	                 nan
          2179.96010	                 nan
          2180.76640	                 nan
          2181.57270	                 nan
          2182.37900	                 nan
          2183.18530	                 nan
          2183.99160	                 nan
          2184.79790	                 nan
          2185.60420	                 nan
          2186.41050	                 nan
          2187.21680	                 nan
          2188.02310	                 nan
          2188.82940	                 nan
          2189.63570	                 nan
          2190.44200	                 nan
          2191.24830	                 nan
          2192.05460	                 nan
          2192.86090	                 nan
          2193.66720	                 nan
          2194.47350	                 nan
          2195.27980	                 nan
          2196.08610	                 nan
          2196.89240	                 nan
          2197.69870	                 nan
          2198.50500	                 nan
          2199.31130	                 nan
          2200.11760	                 nan
          2200.92390	                 nan
          2201.73020	                 nan
          2202.53650	                 nan
          2203.34280	                 nan
          2204.14910	                 nan
          2204.95540	                 nan
          2205.76170	                 nan
          2206.56800	                 nan
          2207.37430	                 nan
          2208.18060	                 nan
          2208.98690	                 nan
          2209.79320	                 nan
          2210.59950	                 nan
          2211.40580	                 nan
          2212.21210	                 nan
          2213.01840	                 nan
          2213.82470	                 nan
          2214.63100	                 nan
          2215.43730	         0.00000e+00
