#sample_1_stacked_spectrum_rest_UV-bands_median_H-alpha_noDC.txt
#median Lum: 1.72116e+42
#Rest-frame wavelength (A) | Luminosity (erg/s/A)
#
          1110.00000	         0.00000e+00
          1110.80630	        -2.63708e+59
          1111.61260	         7.57028e+58
          1112.41890	         1.41902e+59
          1113.22520	        -1.93501e+59
          1114.03150	        -2.73998e+59
          1114.83780	        -3.28486e+58
          1115.64410	         1.53450e+59
          1116.45040	         2.64652e+59
          1117.25670	         7.01892e+58
          1118.06300	         6.72269e+58
          1118.86930	         2.46814e+58
          1119.67560	         1.27974e+59
          1120.48190	        -9.16959e+58
          1121.28820	        -1.49764e+59
          1122.09450	         2.72000e+58
          1122.90080	        -1.26165e+59
          1123.70710	        -3.76433e+57
          1124.51340	         6.92122e+58
          1125.31970	        -7.58375e+58
          1126.12600	        -3.45106e+58
          1126.93230	        -5.95085e+58
          1127.73860	        -7.41848e+57
          1128.54490	         4.09310e+58
          1129.35120	        -9.93565e+57
          1130.15750	        -2.11362e+58
          1130.96380	        -5.90149e+58
          1131.77010	         3.57785e+58
          1132.57640	         5.17311e+58
          1133.38270	         3.45076e+58
          1134.18900	         2.89618e+58
          1134.99530	         2.91939e+58
          1135.80160	         3.48807e+58
          1136.60790	         2.56322e+58
          1137.41420	        -3.93226e+57
          1138.22050	         3.51572e+58
          1139.02680	         2.41110e+58
          1139.83310	         2.22846e+58
          1140.63940	         1.21406e+58
          1141.44570	        -1.30174e+58
          1142.25200	         6.98008e+57
          1143.05830	         2.90701e+58
          1143.86460	         2.37414e+58
          1144.67090	         3.46532e+58
          1145.47720	         2.02608e+58
          1146.28350	         1.66606e+58
          1147.08980	         8.76148e+57
          1147.89610	         2.09170e+58
          1148.70240	         2.18837e+58
          1149.50870	         1.89547e+58
          1150.31500	         2.31456e+58
          1151.12130	         1.15176e+58
          1151.92760	         9.09542e+57
          1152.73390	         4.68087e+57
          1153.54020	         8.83118e+57
          1154.34650	         2.31124e+58
          1155.15280	         2.50886e+58
          1155.95910	         1.48895e+58
          1156.76540	         1.36730e+58
          1157.57170	         3.05963e+57
          1158.37800	         7.69322e+57
          1159.18430	         5.01850e+57
          1159.99060	         9.07707e+57
          1160.79690	        -2.57535e+57
          1161.60320	         1.18431e+58
          1162.40950	         1.08826e+58
          1163.21580	         1.58745e+58
          1164.02210	         9.33953e+57
          1164.82840	         1.04937e+58
          1165.63470	         1.67255e+58
          1166.44100	         3.01396e+58
          1167.24730	         2.28528e+58
          1168.05360	         6.41160e+57
          1168.85990	         4.14855e+57
          1169.66620	         6.08746e+57
          1170.47250	         1.23742e+58
          1171.27880	         3.36292e+57
          1172.08510	         1.10888e+58
          1172.89140	         1.73762e+58
          1173.69770	         7.16227e+57
          1174.50400	         1.42588e+58
          1175.31030	         1.92964e+58
          1176.11660	         1.46047e+58
          1176.92290	         1.42587e+58
          1177.72920	         1.71447e+58
          1178.53550	         8.85896e+57
          1179.34180	         8.42428e+57
          1180.14810	         7.34335e+57
          1180.95440	         8.13854e+57
          1181.76070	         8.10495e+57
          1182.56700	         1.34762e+58
          1183.37330	         7.38710e+57
          1184.17960	         9.18383e+57
          1184.98590	         1.10889e+58
          1185.79220	         1.26492e+58
          1186.59850	         1.62730e+58
          1187.40480	         1.19021e+58
          1188.21110	         1.56056e+58
          1189.01740	         5.55509e+57
          1189.82370	         7.17785e+57
          1190.63000	         9.87473e+57
          1191.43630	         1.81300e+58
          1192.24260	         1.35693e+58
          1193.04890	         1.19712e+58
          1193.85520	         1.14053e+58
          1194.66150	         6.51161e+57
          1195.46780	         1.29295e+58
          1196.27410	         1.79343e+58
          1197.08040	         1.23217e+58
          1197.88670	         1.28155e+58
          1198.69300	         1.22406e+58
          1199.49930	         1.66483e+58
          1200.30560	         1.32369e+58
          1201.11190	         1.11277e+58
          1201.91820	         8.50129e+57
          1202.72450	         7.46956e+57
          1203.53080	         1.22769e+58
          1204.33710	         7.72578e+57
          1205.14340	         1.00808e+58
          1205.94970	         8.74344e+57
          1206.75600	         7.48837e+57
          1207.56230	         3.64167e+57
          1208.36860	         2.68660e+57
          1209.17490	         3.64632e+57
          1209.98120	         4.47671e+57
          1210.78750	         7.49682e+57
          1211.59380	         8.64172e+57
          1212.40010	         1.36797e+58
          1213.20640	         1.79811e+58
          1214.01270	         2.01341e+58
          1214.81900	         2.65067e+58
          1215.62530	         4.74792e+58
          1216.43160	         9.53606e+58
          1217.23790	         1.56180e+59
          1218.04420	         1.18144e+59
          1218.85050	         8.62389e+58
          1219.65680	         5.75962e+58
          1220.46310	         3.83448e+58
          1221.26940	         2.86836e+58
          1222.07570	         1.91950e+58
          1222.88200	         1.51503e+58
          1223.68830	         1.29006e+58
          1224.49460	         8.89615e+57
          1225.30090	         4.62827e+57
          1226.10720	         4.64995e+57
          1226.91350	         6.07670e+57
          1227.71980	         8.52242e+57
          1228.52610	         1.06829e+58
          1229.33240	         8.01516e+57
          1230.13870	         1.07089e+58
          1230.94500	         1.00771e+58
          1231.75130	         1.06474e+58
          1232.55760	         1.08604e+58
          1233.36390	         9.20053e+57
          1234.17020	         8.91891e+57
          1234.97650	         7.44258e+57
          1235.78280	         6.16847e+57
          1236.58910	         7.89080e+57
          1237.39540	         9.95026e+57
          1238.20170	         8.69999e+57
          1239.00800	         1.32050e+58
          1239.81430	         1.79400e+58
          1240.62060	         1.48078e+58
          1241.42690	         1.05981e+58
          1242.23320	         1.07530e+58
          1243.03950	         8.38210e+57
          1243.84580	         7.35829e+57
          1244.65210	         7.09740e+57
          1245.45840	         8.81685e+57
          1246.26470	         1.00841e+58
          1247.07100	         7.94855e+57
          1247.87730	         4.38620e+57
          1248.68360	         3.24346e+57
          1249.48990	         4.93934e+57
          1250.29620	         1.03563e+58
          1251.10250	         8.76212e+57
          1251.90880	         6.78388e+57
          1252.71510	         5.55457e+57
          1253.52140	         6.64340e+57
          1254.32770	         9.93121e+57
          1255.13400	         1.47838e+58
          1255.94030	         1.38596e+58
          1256.74660	         1.22606e+58
          1257.55290	         1.11039e+58
          1258.35920	         7.37531e+57
          1259.16550	         5.88911e+57
          1259.97180	         6.71514e+57
          1260.77810	         9.24414e+57
          1261.58440	         1.02065e+58
          1262.39070	         8.44769e+57
          1263.19700	         8.50936e+57
          1264.00330	         8.50881e+57
          1264.80960	         8.59994e+57
          1265.61590	         1.11624e+58
          1266.42220	         1.36833e+58
          1267.22850	         1.30826e+58
          1268.03480	         1.43725e+58
          1268.84110	         1.54620e+58
          1269.64740	         1.36816e+58
          1270.45370	         1.35055e+58
          1271.26000	         1.22502e+58
          1272.06630	         1.16103e+58
          1272.87260	         1.12858e+58
          1273.67890	         1.10532e+58
          1274.48520	         1.25170e+58
          1275.29150	         1.21980e+58
          1276.09780	         1.14764e+58
          1276.90410	         1.64091e+58
          1277.71040	         1.43668e+58
          1278.51670	         1.24460e+58
          1279.32300	         1.55602e+58
          1280.12930	         1.60171e+58
          1280.93560	         1.42235e+58
          1281.74190	         1.31897e+58
          1282.54820	         1.38645e+58
          1283.35450	         1.20935e+58
          1284.16080	         1.22297e+58
          1284.96710	         1.40180e+58
          1285.77340	         1.02272e+58
          1286.57970	         1.09167e+58
          1287.38600	         1.62390e+58
          1288.19230	         1.68443e+58
          1288.99860	         1.46768e+58
          1289.80490	         1.06956e+58
          1290.61120	         1.41405e+58
          1291.41750	         1.46459e+58
          1292.22380	         1.17603e+58
          1293.03010	         1.07552e+58
          1293.83640	         1.33385e+58
          1294.64270	         1.15762e+58
          1295.44900	         8.03186e+57
          1296.25530	         7.98757e+57
          1297.06160	         9.58726e+57
          1297.86790	         1.00310e+58
          1298.67420	         1.04276e+58
          1299.48050	         9.87694e+57
          1300.28680	         1.07243e+58
          1301.09310	         1.03881e+58
          1301.89940	         4.94045e+57
          1302.70570	         5.77711e+57
          1303.51200	         8.08414e+57
          1304.31830	         1.02743e+58
          1305.12460	         1.05725e+58
          1305.93090	         1.00049e+58
          1306.73720	         1.16694e+58
          1307.54350	         1.26136e+58
          1308.34980	         1.47957e+58
          1309.15610	         1.59286e+58
          1309.96240	         1.61380e+58
          1310.76870	         1.43619e+58
          1311.57500	         1.31501e+58
          1312.38130	         1.01133e+58
          1313.18760	         1.29990e+58
          1313.99390	         1.76839e+58
          1314.80020	         1.80987e+58
          1315.60650	         1.64846e+58
          1316.41280	         1.35254e+58
          1317.21910	         1.29198e+58
          1318.02540	         1.36139e+58
          1318.83170	         1.29481e+58
          1319.63800	         1.28467e+58
          1320.44430	         1.15788e+58
          1321.25060	         1.25808e+58
          1322.05690	         1.29316e+58
          1322.86320	         1.18886e+58
          1323.66950	         1.03561e+58
          1324.47580	         8.31685e+57
          1325.28210	         8.75546e+57
          1326.08840	         1.01944e+58
          1326.89470	         1.23600e+58
          1327.70100	         1.19479e+58
          1328.50730	         8.53941e+57
          1329.31360	         8.91831e+57
          1330.11990	         9.79614e+57
          1330.92620	         8.68050e+57
          1331.73250	         9.34057e+57
          1332.53880	         9.82663e+57
          1333.34510	         1.01142e+58
          1334.15140	         9.17387e+57
          1334.95770	         9.03043e+57
          1335.76400	         1.07807e+58
          1336.57030	         1.13306e+58
          1337.37660	         1.12351e+58
          1338.18290	         1.05194e+58
          1338.98920	         9.91232e+57
          1339.79550	         1.21446e+58
          1340.60180	         1.38427e+58
          1341.40810	         1.23778e+58
          1342.21440	         9.32450e+57
          1343.02070	         1.20659e+58
          1343.82700	         1.46666e+58
          1344.63330	         1.28928e+58
          1345.43960	         1.20405e+58
          1346.24590	         9.09185e+57
          1347.05220	         1.04253e+58
          1347.85850	         1.02782e+58
          1348.66480	         1.23559e+58
          1349.47110	         1.30006e+58
          1350.27740	         1.20222e+58
          1351.08370	         1.17523e+58
          1351.89000	         1.16308e+58
          1352.69630	         1.20972e+58
          1353.50260	         1.04860e+58
          1354.30890	         1.01377e+58
          1355.11520	         1.21450e+58
          1355.92150	         1.12865e+58
          1356.72780	         1.08188e+58
          1357.53410	         1.03565e+58
          1358.34040	         1.04066e+58
          1359.14670	         1.09315e+58
          1359.95300	         1.11522e+58
          1360.75930	         1.24796e+58
          1361.56560	         1.18832e+58
          1362.37190	         1.13614e+58
          1363.17820	         1.03015e+58
          1363.98450	         1.10943e+58
          1364.79080	         1.21681e+58
          1365.59710	         1.23256e+58
          1366.40340	         1.32370e+58
          1367.20970	         1.16026e+58
          1368.01600	         1.12282e+58
          1368.82230	         9.65680e+57
          1369.62860	         9.28236e+57
          1370.43490	         9.30696e+57
          1371.24120	         9.41771e+57
          1372.04750	         9.95172e+57
          1372.85380	         1.14065e+58
          1373.66010	         1.11836e+58
          1374.46640	         1.09177e+58
          1375.27270	         1.24619e+58
          1376.07900	         1.09584e+58
          1376.88530	         8.74560e+57
          1377.69160	         9.44036e+57
          1378.49790	         8.90922e+57
          1379.30420	         7.77358e+57
          1380.11050	         9.22143e+57
          1380.91680	         9.28900e+57
          1381.72310	         7.13490e+57
          1382.52940	         8.22834e+57
          1383.33570	         7.37421e+57
          1384.14200	         8.74575e+57
          1384.94830	         1.08935e+58
          1385.75460	         1.12163e+58
          1386.56090	         1.15758e+58
          1387.36720	         1.15423e+58
          1388.17350	         1.19187e+58
          1388.97980	         8.63362e+57
          1389.78610	         6.95119e+57
          1390.59240	         7.92483e+57
          1391.39870	         7.72641e+57
          1392.20500	         7.92429e+57
          1393.01130	         8.95041e+57
          1393.81760	         7.38929e+57
          1394.62390	         5.98186e+57
          1395.43020	         6.53696e+57
          1396.23650	         6.24783e+57
          1397.04280	         5.98091e+57
          1397.84910	         8.88546e+57
          1398.65540	         1.00380e+58
          1399.46170	         9.58493e+57
          1400.26800	         8.37536e+57
          1401.07430	         7.10104e+57
          1401.88060	         7.49988e+57
          1402.68690	         9.58529e+57
          1403.49320	         1.08537e+58
          1404.29950	         9.36366e+57
          1405.10580	         1.05749e+58
          1405.91210	         1.14199e+58
          1406.71840	         1.04230e+58
          1407.52470	         1.00956e+58
          1408.33100	         9.65691e+57
          1409.13730	         1.14048e+58
          1409.94360	         1.23107e+58
          1410.74990	         1.22180e+58
          1411.55620	         1.24768e+58
          1412.36250	         1.04801e+58
          1413.16880	         8.23743e+57
          1413.97510	         6.78740e+57
          1414.78140	         6.64458e+57
          1415.58770	         8.65213e+57
          1416.39400	         1.01922e+58
          1417.20030	         1.04759e+58
          1418.00660	         9.29530e+57
          1418.81290	         9.63525e+57
          1419.61920	         1.17594e+58
          1420.42550	         1.24253e+58
          1421.23180	         1.31936e+58
          1422.03810	         1.27371e+58
          1422.84440	         1.04272e+58
          1423.65070	         1.15082e+58
          1424.45700	         1.09265e+58
          1425.26330	         8.65756e+57
          1426.06960	         9.10946e+57
          1426.87590	         1.00781e+58
          1427.68220	         1.00046e+58
          1428.48850	         1.03086e+58
          1429.29480	         9.27924e+57
          1430.10110	         9.53080e+57
          1430.90740	         9.65599e+57
          1431.71370	         9.06172e+57
          1432.52000	         9.02921e+57
          1433.32630	         8.36428e+57
          1434.13260	         6.83208e+57
          1434.93890	         6.57753e+57
          1435.74520	         8.67317e+57
          1436.55150	         1.02619e+58
          1437.35780	         9.16942e+57
          1438.16410	         8.88362e+57
          1438.97040	         9.41091e+57
          1439.77670	         8.81639e+57
          1440.58300	         8.82234e+57
          1441.38930	         9.58881e+57
          1442.19560	         9.35823e+57
          1443.00190	         8.62076e+57
          1443.80820	         1.10024e+58
          1444.61450	         1.10659e+58
          1445.42080	         8.79779e+57
          1446.22710	         1.05786e+58
          1447.03340	         8.91159e+57
          1447.83970	         9.55949e+57
          1448.64600	         1.09916e+58
          1449.45230	         1.13212e+58
          1450.25860	         1.08315e+58
          1451.06490	         8.92420e+57
          1451.87120	         7.72130e+57
          1452.67750	         6.94480e+57
          1453.48380	         8.29072e+57
          1454.29010	         8.97161e+57
          1455.09640	         8.16232e+57
          1455.90270	         9.67123e+57
          1456.70900	         1.01694e+58
          1457.51530	         1.07816e+58
          1458.32160	         1.19543e+58
          1459.12790	         1.23989e+58
          1459.93420	         1.10254e+58
          1460.74050	         8.45151e+57
          1461.54680	         8.57376e+57
          1462.35310	         7.58945e+57
          1463.15940	         9.72728e+57
          1463.96570	         1.26928e+58
          1464.77200	         1.23024e+58
          1465.57830	         1.04822e+58
          1466.38460	         1.00439e+58
          1467.19090	         9.13603e+57
          1467.99720	         9.41648e+57
          1468.80350	         9.66118e+57
          1469.60980	         1.01131e+58
          1470.41610	         1.14517e+58
          1471.22240	         1.09675e+58
          1472.02870	         1.03543e+58
          1472.83500	         1.00715e+58
          1473.64130	         1.02636e+58
          1474.44760	         1.10130e+58
          1475.25390	         9.65781e+57
          1476.06020	         8.83891e+57
          1476.86650	         9.07306e+57
          1477.67280	         8.16471e+57
          1478.47910	         6.71172e+57
          1479.28540	         6.73851e+57
          1480.09170	         7.38550e+57
          1480.89800	         7.84070e+57
          1481.70430	         8.12724e+57
          1482.51060	         7.89754e+57
          1483.31690	         8.16515e+57
          1484.12320	         8.84305e+57
          1484.92950	         8.56666e+57
          1485.73580	         8.28824e+57
          1486.54210	         7.77992e+57
          1487.34840	         8.36196e+57
          1488.15470	         9.12887e+57
          1488.96100	         9.16082e+57
          1489.76730	         8.41741e+57
          1490.57360	         7.63369e+57
          1491.37990	         6.96459e+57
          1492.18620	         7.79972e+57
          1492.99250	         8.68158e+57
          1493.79880	         9.33436e+57
          1494.60510	         8.99917e+57
          1495.41140	         6.99844e+57
          1496.21770	         8.21232e+57
          1497.02400	         1.05291e+58
          1497.83030	         9.89639e+57
          1498.63660	         7.24725e+57
          1499.44290	         6.22954e+57
          1500.24920	         6.77998e+57
          1501.05550	         8.54976e+57
          1501.86180	         9.89275e+57
          1502.66810	         1.00511e+58
          1503.47440	         9.42647e+57
          1504.28070	         8.88403e+57
          1505.08700	         9.49934e+57
          1505.89330	         9.38929e+57
          1506.69960	         8.37899e+57
          1507.50590	         7.72609e+57
          1508.31220	         7.48140e+57
          1509.11850	         8.53950e+57
          1509.92480	         9.88080e+57
          1510.73110	         9.52575e+57
          1511.53740	         7.46724e+57
          1512.34370	         6.79660e+57
          1513.15000	         8.40023e+57
          1513.95630	         1.00181e+58
          1514.76260	         9.28810e+57
          1515.56890	         8.08112e+57
          1516.37520	         8.59931e+57
          1517.18150	         8.55365e+57
          1517.98780	         7.99669e+57
          1518.79410	         7.39966e+57
          1519.60040	         6.80883e+57
          1520.40670	         8.44074e+57
          1521.21300	         9.39355e+57
          1522.01930	         8.87633e+57
          1522.82560	         9.00474e+57
          1523.63190	         1.10475e+58
          1524.43820	         9.38194e+57
          1525.24450	         6.49297e+57
          1526.05080	         6.14055e+57
          1526.85710	         6.87403e+57
          1527.66340	         6.94405e+57
          1528.46970	         8.05984e+57
          1529.27600	         8.94678e+57
          1530.08230	         8.29317e+57
          1530.88860	         7.29524e+57
          1531.69490	         7.74617e+57
          1532.50120	         8.95487e+57
          1533.30750	         9.95423e+57
          1534.11380	         9.83968e+57
          1534.92010	         8.56960e+57
          1535.72640	         9.47541e+57
          1536.53270	         9.43969e+57
          1537.33900	         8.98440e+57
          1538.14530	         9.17209e+57
          1538.95160	         8.68991e+57
          1539.75790	         8.34236e+57
          1540.56420	         8.30880e+57
          1541.37050	         7.19445e+57
          1542.17680	         6.86277e+57
          1542.98310	         7.98324e+57
          1543.78940	         8.30233e+57
          1544.59570	         7.47341e+57
          1545.40200	         8.22785e+57
          1546.20830	         1.01421e+58
          1547.01460	         1.14878e+58
          1547.82090	         1.05681e+58
          1548.62720	         1.09490e+58
          1549.43350	         1.12072e+58
          1550.23980	         1.10207e+58
          1551.04610	         1.19026e+58
          1551.85240	         1.26241e+58
          1552.65870	         1.12197e+58
          1553.46500	         9.87406e+57
          1554.27130	         9.56823e+57
          1555.07760	         1.00496e+58
          1555.88390	         8.60316e+57
          1556.69020	         8.79767e+57
          1557.49650	         8.48946e+57
          1558.30280	         7.75904e+57
          1559.10910	         8.42934e+57
          1559.91540	         9.28582e+57
          1560.72170	         9.21541e+57
          1561.52800	         8.79845e+57
          1562.33430	         8.69772e+57
          1563.14060	         8.52830e+57
          1563.94690	         7.62337e+57
          1564.75320	         8.00165e+57
          1565.55950	         7.08786e+57
          1566.36580	         7.67849e+57
          1567.17210	         9.07981e+57
          1567.97840	         9.41710e+57
          1568.78470	         8.68068e+57
          1569.59100	         9.06309e+57
          1570.39730	         8.83731e+57
          1571.20360	         7.63693e+57
          1572.00990	         7.27582e+57
          1572.81620	         8.09806e+57
          1573.62250	         9.80678e+57
          1574.42880	         9.19206e+57
          1575.23510	         6.68835e+57
          1576.04140	         8.36424e+57
          1576.84770	         9.67184e+57
          1577.65400	         8.73847e+57
          1578.46030	         1.00203e+58
          1579.26660	         1.14634e+58
          1580.07290	         1.01620e+58
          1580.87920	         8.04311e+57
          1581.68550	         7.88099e+57
          1582.49180	         8.63388e+57
          1583.29810	         7.84386e+57
          1584.10440	         8.40381e+57
          1584.91070	         8.31322e+57
          1585.71700	         8.40090e+57
          1586.52330	         9.48947e+57
          1587.32960	         9.22177e+57
          1588.13590	         8.79033e+57
          1588.94220	         8.68299e+57
          1589.74850	         9.66373e+57
          1590.55480	         9.60653e+57
          1591.36110	         8.78343e+57
          1592.16740	         8.45909e+57
          1592.97370	         8.27854e+57
          1593.78000	         9.14858e+57
          1594.58630	         9.65976e+57
          1595.39260	         8.17015e+57
          1596.19890	         8.32379e+57
          1597.00520	         1.01292e+58
          1597.81150	         9.57342e+57
          1598.61780	         7.67521e+57
          1599.42410	         7.65128e+57
          1600.23040	         6.79661e+57
          1601.03670	         7.27387e+57
          1601.84300	         7.58680e+57
          1602.64930	         8.15654e+57
          1603.45560	         8.81781e+57
          1604.26190	         8.02668e+57
          1605.06820	         7.06025e+57
          1605.87450	         6.45569e+57
          1606.68080	         7.01860e+57
          1607.48710	         6.69182e+57
          1608.29340	         6.32633e+57
          1609.09970	         7.13120e+57
          1609.90600	         7.87994e+57
          1610.71230	         6.97751e+57
          1611.51860	         7.04751e+57
          1612.32490	         7.43531e+57
          1613.13120	         7.13422e+57
          1613.93750	         7.21062e+57
          1614.74380	         8.04227e+57
          1615.55010	         8.30930e+57
          1616.35640	         8.51973e+57
          1617.16270	         9.03748e+57
          1617.96900	         1.03017e+58
          1618.77530	         8.70500e+57
          1619.58160	         8.15709e+57
          1620.38790	         8.34405e+57
          1621.19420	         9.20390e+57
          1622.00050	         8.63676e+57
          1622.80680	         8.70978e+57
          1623.61310	         9.57635e+57
          1624.41940	         9.08699e+57
          1625.22570	         9.39585e+57
          1626.03200	         9.09414e+57
          1626.83830	         7.92942e+57
          1627.64460	         6.40256e+57
          1628.45090	         6.90331e+57
          1629.25720	         9.68735e+57
          1630.06350	         9.96881e+57
          1630.86980	         6.69324e+57
          1631.67610	         6.83562e+57
          1632.48240	         7.20169e+57
          1633.28870	         7.22940e+57
          1634.09500	         8.47346e+57
          1634.90130	         1.01100e+58
          1635.70760	         9.00685e+57
          1636.51390	         7.65565e+57
          1637.32020	         7.95173e+57
          1638.12650	         8.62518e+57
          1638.93280	         8.77162e+57
          1639.73910	         9.65287e+57
          1640.54540	         9.48796e+57
          1641.35170	         8.66428e+57
          1642.15800	         9.27201e+57
          1642.96430	         8.17287e+57
          1643.77060	         7.67496e+57
          1644.57690	         9.17933e+57
          1645.38320	         9.55544e+57
          1646.18950	         8.02139e+57
          1646.99580	         8.85081e+57
          1647.80210	         8.44532e+57
          1648.60840	         7.62841e+57
          1649.41470	         7.98927e+57
          1650.22100	         7.64101e+57
          1651.02730	         7.24487e+57
          1651.83360	         7.80111e+57
          1652.63990	         7.68502e+57
          1653.44620	         8.45461e+57
          1654.25250	         8.23309e+57
          1655.05880	         7.74332e+57
          1655.86510	         8.58629e+57
          1656.67140	         9.01493e+57
          1657.47770	         8.25712e+57
          1658.28400	         8.67713e+57
          1659.09030	         9.35632e+57
          1659.89660	         9.93311e+57
          1660.70290	         1.05319e+58
          1661.50920	         1.01192e+58
          1662.31550	         9.24594e+57
          1663.12180	         8.96306e+57
          1663.92810	         1.01916e+58
          1664.73440	         1.13489e+58
          1665.54070	         1.17908e+58
          1666.34700	         1.31657e+58
          1667.15330	         1.24918e+58
          1667.95960	         9.48693e+57
          1668.76590	         7.73131e+57
          1669.57220	         7.00386e+57
          1670.37850	         7.50037e+57
          1671.18480	         8.09483e+57
          1671.99110	         7.20148e+57
          1672.79740	         7.15699e+57
          1673.60370	         7.29025e+57
          1674.41000	         7.16012e+57
          1675.21630	         7.03669e+57
          1676.02260	         6.95692e+57
          1676.82890	         6.75581e+57
          1677.63520	         6.77848e+57
          1678.44150	         7.22388e+57
          1679.24780	         8.01231e+57
          1680.05410	         8.09827e+57
          1680.86040	         6.77306e+57
          1681.66670	         6.62677e+57
          1682.47300	         7.79811e+57
          1683.27930	         8.36226e+57
          1684.08560	         9.08720e+57
          1684.89190	         8.04487e+57
          1685.69820	         5.97232e+57
          1686.50450	         4.67608e+57
          1687.31080	         5.73011e+57
          1688.11710	         6.20367e+57
          1688.92340	         6.09303e+57
          1689.72970	         5.78847e+57
          1690.53600	         6.05390e+57
          1691.34230	         7.10131e+57
          1692.14860	         7.85979e+57
          1692.95490	         8.18105e+57
          1693.76120	         7.78288e+57
          1694.56750	         7.28024e+57
          1695.37380	         8.89688e+57
          1696.18010	         8.76267e+57
          1696.98640	         9.04770e+57
          1697.79270	         9.38612e+57
          1698.59900	         8.24613e+57
          1699.40530	         6.89379e+57
          1700.21160	         7.96465e+57
          1701.01790	         8.77340e+57
          1701.82420	         8.21876e+57
          1702.63050	         8.31728e+57
          1703.43680	         8.48257e+57
          1704.24310	         8.75246e+57
          1705.04940	         8.75193e+57
          1705.85570	         7.48024e+57
          1706.66200	         7.73521e+57
          1707.46830	         8.74577e+57
          1708.27460	         8.13409e+57
          1709.08090	         7.12738e+57
          1709.88720	         6.28552e+57
          1710.69350	         5.75165e+57
          1711.49980	         6.40405e+57
          1712.30610	         7.08740e+57
          1713.11240	         8.47948e+57
          1713.91870	         7.33386e+57
          1714.72500	         7.54588e+57
          1715.53130	         8.81339e+57
          1716.33760	         7.96799e+57
          1717.14390	         7.69455e+57
          1717.95020	         8.20286e+57
          1718.75650	         8.49284e+57
          1719.56280	         8.43701e+57
          1720.36910	         6.70564e+57
          1721.17540	         6.62264e+57
          1721.98170	         6.06194e+57
          1722.78800	         6.19359e+57
          1723.59430	         7.97700e+57
          1724.40060	         9.22450e+57
          1725.20690	         8.28058e+57
          1726.01320	         7.72972e+57
          1726.81950	         8.24077e+57
          1727.62580	         8.13290e+57
          1728.43210	         7.52125e+57
          1729.23840	         7.51598e+57
          1730.04470	         8.63001e+57
          1730.85100	         8.30886e+57
          1731.65730	         8.26206e+57
          1732.46360	         8.70126e+57
          1733.26990	         6.58981e+57
          1734.07620	         6.81326e+57
          1734.88250	         8.06388e+57
          1735.68880	         7.74352e+57
          1736.49510	         8.41743e+57
          1737.30140	         7.48268e+57
          1738.10770	         6.42868e+57
          1738.91400	         6.79355e+57
          1739.72030	         7.27012e+57
          1740.52660	         6.24097e+57
          1741.33290	         6.16304e+57
          1742.13920	         5.87888e+57
          1742.94550	         6.42396e+57
          1743.75180	         6.81411e+57
          1744.55810	         6.41634e+57
          1745.36440	         6.59756e+57
          1746.17070	         6.01199e+57
          1746.97700	         7.17590e+57
          1747.78330	         7.32833e+57
          1748.58960	         6.01166e+57
          1749.39590	         7.08549e+57
          1750.20220	         7.18648e+57
          1751.00850	         6.68574e+57
          1751.81480	         6.11057e+57
          1752.62110	         6.17167e+57
          1753.42740	         7.26168e+57
          1754.23370	         7.06834e+57
          1755.04000	         6.58500e+57
          1755.84630	         8.32607e+57
          1756.65260	         9.20387e+57
          1757.45890	         8.12729e+57
          1758.26520	         7.39822e+57
          1759.07150	         8.94375e+57
          1759.87780	         8.57971e+57
          1760.68410	         9.24758e+57
          1761.49040	         8.49642e+57
          1762.29670	         6.28273e+57
          1763.10300	         7.24549e+57
          1763.90930	         8.08459e+57
          1764.71560	         8.33583e+57
          1765.52190	         8.11932e+57
          1766.32820	         8.60658e+57
          1767.13450	         8.00685e+57
          1767.94080	         7.20641e+57
          1768.74710	         7.49204e+57
          1769.55340	         7.36837e+57
          1770.35970	         6.51652e+57
          1771.16600	         6.49043e+57
          1771.97230	         7.47481e+57
          1772.77860	         7.87504e+57
          1773.58490	         6.96666e+57
          1774.39120	         5.66571e+57
          1775.19750	         5.71733e+57
          1776.00380	         7.36310e+57
          1776.81010	         6.98123e+57
          1777.61640	         6.15067e+57
          1778.42270	         6.79714e+57
          1779.22900	         6.14298e+57
          1780.03530	         5.35225e+57
          1780.84160	         6.90162e+57
          1781.64790	         7.52387e+57
          1782.45420	         6.54721e+57
          1783.26050	         6.52206e+57
          1784.06680	         6.91014e+57
          1784.87310	         7.13691e+57
          1785.67940	         7.35528e+57
          1786.48570	         7.32282e+57
          1787.29200	         6.29563e+57
          1788.09830	         6.23911e+57
          1788.90460	         6.00804e+57
          1789.71090	         5.98922e+57
          1790.51720	         5.60906e+57
          1791.32350	         7.30392e+57
          1792.12980	         8.10421e+57
          1792.93610	         7.44625e+57
          1793.74240	         7.05702e+57
          1794.54870	         8.15291e+57
          1795.35500	         8.24247e+57
          1796.16130	         8.11779e+57
          1796.96760	         7.38170e+57
          1797.77390	         7.35495e+57
          1798.58020	         7.12508e+57
          1799.38650	         7.02585e+57
          1800.19280	         6.74638e+57
          1800.99910	         7.12279e+57
          1801.80540	         6.20417e+57
          1802.61170	         8.77602e+57
          1803.41800	         9.17164e+57
          1804.22430	         7.27577e+57
          1805.03060	         7.48639e+57
          1805.83690	         8.31914e+57
          1806.64320	         8.79368e+57
          1807.44950	         8.45816e+57
          1808.25580	         7.83637e+57
          1809.06210	         7.75684e+57
          1809.86840	         7.71229e+57
          1810.67470	         7.58451e+57
          1811.48100	         8.12253e+57
          1812.28730	         8.70654e+57
          1813.09360	         8.58100e+57
          1813.89990	         8.56770e+57
          1814.70620	         7.45344e+57
          1815.51250	         8.18048e+57
          1816.31880	         8.42223e+57
          1817.12510	         6.83611e+57
          1817.93140	         6.17776e+57
          1818.73770	         5.95698e+57
          1819.54400	         8.50643e+57
          1820.35030	         8.53808e+57
          1821.15660	         7.00328e+57
          1821.96290	         7.03502e+57
          1822.76920	         7.42393e+57
          1823.57550	         6.90441e+57
          1824.38180	         6.57853e+57
          1825.18810	         7.84133e+57
          1825.99440	         8.08104e+57
          1826.80070	         7.81626e+57
          1827.60700	         6.26061e+57
          1828.41330	         6.12279e+57
          1829.21960	         7.80359e+57
          1830.02590	         8.23813e+57
          1830.83220	         8.54189e+57
          1831.63850	         7.67365e+57
          1832.44480	         7.08248e+57
          1833.25110	         7.70584e+57
          1834.05740	         8.60671e+57
          1834.86370	         7.39150e+57
          1835.67000	         6.13016e+57
          1836.47630	         7.47626e+57
          1837.28260	         8.22626e+57
          1838.08890	         8.71064e+57
          1838.89520	         8.90857e+57
          1839.70150	         8.25470e+57
          1840.50780	         7.98948e+57
          1841.31410	         6.62415e+57
          1842.12040	         6.63148e+57
          1842.92670	         7.82446e+57
          1843.73300	         7.30132e+57
          1844.53930	         6.79615e+57
          1845.34560	         6.73731e+57
          1846.15190	         7.66260e+57
          1846.95820	         7.90840e+57
          1847.76450	         6.68132e+57
          1848.57080	         5.28587e+57
          1849.37710	         5.85374e+57
          1850.18340	         7.24180e+57
          1850.98970	         8.63726e+57
          1851.79600	         9.02801e+57
          1852.60230	         7.02967e+57
          1853.40860	         5.99844e+57
          1854.21490	         6.56462e+57
          1855.02120	         5.58896e+57
          1855.82750	         4.92204e+57
          1856.63380	         6.45437e+57
          1857.44010	         8.10344e+57
          1858.24640	         7.10296e+57
          1859.05270	         8.13190e+57
          1859.85900	         6.02026e+57
          1860.66530	         5.92761e+57
          1861.47160	         7.31015e+57
          1862.27790	         7.37409e+57
          1863.08420	         7.46336e+57
          1863.89050	         7.77645e+57
          1864.69680	         7.07130e+57
          1865.50310	         7.00547e+57
          1866.30940	         6.35315e+57
          1867.11570	         5.69560e+57
          1867.92200	         6.90423e+57
          1868.72830	         7.40147e+57
          1869.53460	         7.31599e+57
          1870.34090	         7.34735e+57
          1871.14720	         8.00141e+57
          1871.95350	         7.82213e+57
          1872.75980	         7.28863e+57
          1873.56610	         6.54467e+57
          1874.37240	         5.74603e+57
          1875.17870	         5.83607e+57
          1875.98500	         6.61842e+57
          1876.79130	         7.09225e+57
          1877.59760	         7.25343e+57
          1878.40390	         7.16732e+57
          1879.21020	         6.84586e+57
          1880.01650	         7.52834e+57
          1880.82280	         8.12820e+57
          1881.62910	         9.36506e+57
          1882.43540	         1.02521e+58
          1883.24170	         8.59080e+57
          1884.04800	         6.28020e+57
          1884.85430	         6.68670e+57
          1885.66060	         8.42209e+57
          1886.46690	         8.31482e+57
          1887.27320	         7.18079e+57
          1888.07950	         5.63327e+57
          1888.88580	         6.28904e+57
          1889.69210	         7.85477e+57
          1890.49840	         7.38445e+57
          1891.30470	         7.85906e+57
          1892.11100	         8.55716e+57
          1892.91730	         7.91620e+57
          1893.72360	         8.76674e+57
          1894.52990	         8.67805e+57
          1895.33620	         8.27514e+57
          1896.14250	         7.55261e+57
          1896.94880	         7.18648e+57
          1897.75510	         4.70996e+57
          1898.56140	         6.12237e+57
          1899.36770	         8.10363e+57
          1900.17400	         7.26220e+57
          1900.98030	         7.27560e+57
          1901.78660	         7.63177e+57
          1902.59290	         7.10997e+57
          1903.39920	         8.36348e+57
          1904.20550	         8.84556e+57
          1905.01180	         8.88918e+57
          1905.81810	         9.62062e+57
          1906.62440	         1.15527e+58
          1907.43070	         1.43288e+58
          1908.23700	         1.52450e+58
          1909.04330	         1.20789e+58
          1909.84960	         1.02575e+58
          1910.65590	         9.90301e+57
          1911.46220	         9.32222e+57
          1912.26850	         7.48992e+57
          1913.07480	         6.68825e+57
          1913.88110	         5.81818e+57
          1914.68740	         5.87962e+57
          1915.49370	         5.94752e+57
          1916.30000	         6.70785e+57
          1917.10630	         6.83027e+57
          1917.91260	         5.78940e+57
          1918.71890	         5.73444e+57
          1919.52520	         6.10135e+57
          1920.33150	         5.71637e+57
          1921.13780	         6.82775e+57
          1921.94410	         7.73901e+57
          1922.75040	         8.40334e+57
          1923.55670	         7.88556e+57
          1924.36300	         7.27120e+57
          1925.16930	         6.13040e+57
          1925.97560	         5.52657e+57
          1926.78190	         5.53292e+57
          1927.58820	         4.60234e+57
          1928.39450	         5.58330e+57
          1929.20080	         4.79107e+57
          1930.00710	         6.11301e+57
          1930.81340	         7.72354e+57
          1931.61970	         7.86374e+57
          1932.42600	         7.42422e+57
          1933.23230	         8.09274e+57
          1934.03860	         6.53193e+57
          1934.84490	         6.03222e+57
          1935.65120	         8.30583e+57
          1936.45750	         9.10313e+57
          1937.26380	         7.63549e+57
          1938.07010	         7.69246e+57
          1938.87640	         7.36226e+57
          1939.68270	         6.69164e+57
          1940.48900	         7.20035e+57
          1941.29530	         8.57905e+57
          1942.10160	         8.80887e+57
          1942.90790	         7.25545e+57
          1943.71420	         5.84571e+57
          1944.52050	         5.06784e+57
          1945.32680	         4.49100e+57
          1946.13310	         6.03787e+57
          1946.93940	         7.96495e+57
          1947.74570	         7.78468e+57
          1948.55200	         7.21031e+57
          1949.35830	         6.29413e+57
          1950.16460	         5.27407e+57
          1950.97090	         5.66584e+57
          1951.77720	         7.34369e+57
          1952.58350	         8.50130e+57
          1953.38980	         6.65359e+57
          1954.19610	         4.54703e+57
          1955.00240	         5.12421e+57
          1955.80870	         6.00476e+57
          1956.61500	         6.54764e+57
          1957.42130	         6.26891e+57
          1958.22760	         6.96345e+57
          1959.03390	         6.61616e+57
          1959.84020	         6.95224e+57
          1960.64650	         7.80841e+57
          1961.45280	         5.77607e+57
          1962.25910	         4.95798e+57
          1963.06540	         5.65174e+57
          1963.87170	         5.97004e+57
          1964.67800	         8.19252e+57
          1965.48430	         6.54837e+57
          1966.29060	         6.40839e+57
          1967.09690	         7.19531e+57
          1967.90320	         7.28977e+57
          1968.70950	         7.17962e+57
          1969.51580	         7.86026e+57
          1970.32210	         5.68486e+57
          1971.12840	         5.59996e+57
          1971.93470	         4.07610e+57
          1972.74100	         5.74254e+57
          1973.54730	         5.04992e+57
          1974.35360	         6.52427e+57
          1975.15990	         7.83144e+57
          1975.96620	         7.76779e+57
          1976.77250	         7.37704e+57
          1977.57880	         7.86482e+57
          1978.38510	         7.12648e+57
          1979.19140	         7.24722e+57
          1979.99770	         7.96666e+57
          1980.80400	         8.71369e+57
          1981.61030	         7.01947e+57
          1982.41660	         5.91537e+57
          1983.22290	         5.46514e+57
          1984.02920	         5.68607e+57
          1984.83550	         6.02206e+57
          1985.64180	         6.57899e+57
          1986.44810	         6.81544e+57
          1987.25440	         6.58108e+57
          1988.06070	         5.66628e+57
          1988.86700	         7.08173e+57
          1989.67330	         7.32759e+57
          1990.47960	         7.04609e+57
          1991.28590	         7.17760e+57
          1992.09220	         5.63343e+57
          1992.89850	         5.36076e+57
          1993.70480	         6.13009e+57
          1994.51110	         5.48853e+57
          1995.31740	         4.41326e+57
          1996.12370	         4.01039e+57
          1996.93000	         6.36924e+57
          1997.73630	         7.83871e+57
          1998.54260	         8.62443e+57
          1999.34890	         8.32745e+57
          2000.15520	         6.69211e+57
          2000.96150	         7.19389e+57
          2001.76780	         5.83871e+57
          2002.57410	         5.36579e+57
          2003.38040	         6.62395e+57
          2004.18670	         6.18303e+57
          2004.99300	         5.24306e+57
          2005.79930	         6.57735e+57
          2006.60560	         6.86955e+57
          2007.41190	         6.66582e+57
          2008.21820	         6.94815e+57
          2009.02450	         7.47925e+57
          2009.83080	         7.08686e+57
          2010.63710	         6.35223e+57
          2011.44340	         6.38697e+57
          2012.24970	         7.03233e+57
          2013.05600	         6.92040e+57
          2013.86230	         6.84506e+57
          2014.66860	         6.74870e+57
          2015.47490	         6.14627e+57
          2016.28120	         6.41990e+57
          2017.08750	         5.60932e+57
          2017.89380	         5.84288e+57
          2018.70010	         6.16533e+57
          2019.50640	         5.90171e+57
          2020.31270	         7.23052e+57
          2021.11900	         6.71013e+57
          2021.92530	         6.89364e+57
          2022.73160	         7.14032e+57
          2023.53790	         7.15234e+57
          2024.34420	         7.61867e+57
          2025.15050	         6.50877e+57
          2025.95680	         6.07397e+57
          2026.76310	         5.90898e+57
          2027.56940	         5.31888e+57
          2028.37570	         6.49273e+57
          2029.18200	         7.09875e+57
          2029.98830	         5.83713e+57
          2030.79460	         6.29462e+57
          2031.60090	         5.94370e+57
          2032.40720	         5.24479e+57
          2033.21350	         5.30666e+57
          2034.01980	         4.46005e+57
          2034.82610	         4.40139e+57
          2035.63240	         5.61874e+57
          2036.43870	         5.80331e+57
          2037.24500	         5.94353e+57
          2038.05130	         5.67550e+57
          2038.85760	         5.72699e+57
          2039.66390	         5.54880e+57
          2040.47020	         5.61405e+57
          2041.27650	         6.60718e+57
          2042.08280	         6.62147e+57
          2042.88910	         6.18968e+57
          2043.69540	         5.89309e+57
          2044.50170	         6.70349e+57
          2045.30800	         6.72655e+57
          2046.11430	         6.23114e+57
          2046.92060	         5.97636e+57
          2047.72690	         7.38725e+57
          2048.53320	         5.79910e+57
          2049.33950	         4.97105e+57
          2050.14580	         5.47305e+57
          2050.95210	         6.65401e+57
          2051.75840	         6.91014e+57
          2052.56470	         5.83607e+57
          2053.37100	         5.19765e+57
          2054.17730	         5.82725e+57
          2054.98360	         6.38626e+57
          2055.78990	         4.48587e+57
          2056.59620	         4.42316e+57
          2057.40250	         5.51325e+57
          2058.20880	         7.74450e+57
          2059.01510	         7.59469e+57
          2059.82140	         6.77189e+57
          2060.62770	         8.77883e+57
          2061.43400	         1.68951e+58
          2062.24030	         1.06718e+58
          2063.04660	         3.85181e+57
          2063.85290	         2.95752e+57
          2064.65920	        -2.22942e+57
          2065.46550	        -9.37805e+57
          2066.27180	        -7.72149e+57
          2067.07810	         4.80088e+57
          2067.88440	         7.13713e+57
          2068.69070	         5.71708e+57
          2069.49700	         5.97262e+57
          2070.30330	         5.99193e+57
          2071.10960	         4.97750e+57
          2071.91590	         5.99930e+57
          2072.72220	         3.87770e+57
          2073.52850	         4.63924e+57
          2074.33480	         6.24824e+57
          2075.14110	         4.13541e+57
          2075.94740	         3.00904e+57
          2076.75370	         4.05739e+57
          2077.56000	         5.23577e+57
          2078.36630	         4.52359e+57
          2079.17260	         5.05234e+57
          2079.97890	         5.68921e+57
          2080.78520	         4.46923e+57
          2081.59150	         2.97735e+57
          2082.39780	         4.22466e+57
          2083.20410	         2.95083e+57
          2084.01040	         2.84431e+57
          2084.81670	         5.18911e+57
          2085.62300	         3.73762e+57
          2086.42930	         4.19254e+57
          2087.23560	         4.28590e+57
          2088.04190	         4.02631e+57
          2088.84820	         3.26641e+57
          2089.65450	         5.17200e+57
          2090.46080	         2.11444e+57
          2091.26710	         9.18995e+56
          2092.07340	         2.79203e+57
          2092.87970	         3.05314e+57
          2093.68600	         6.29517e+55
          2094.49230	         1.49603e+57
          2095.29860	         3.56812e+57
          2096.10490	         1.92340e+57
          2096.91120	         2.78435e+57
          2097.71750	         2.19327e+57
          2098.52380	         1.50263e+57
          2099.33010	         1.80391e+57
          2100.13640	         1.43704e+57
          2100.94270	         2.53145e+57
          2101.74900	         3.48856e+57
          2102.55530	         2.69575e+57
          2103.36160	         9.43568e+56
          2104.16790	         2.44843e+57
          2104.97420	         2.16326e+57
          2105.78050	         1.56687e+57
          2106.58680	         1.76131e+57
          2107.39310	        -1.53350e+57
          2108.19940	         1.94813e+56
          2109.00570	        -7.07111e+56
          2109.81200	        -7.96844e+56
          2110.61830	         3.71551e+56
          2111.42460	        -1.71362e+57
          2112.23090	        -1.96622e+56
          2113.03720	        -1.25206e+57
          2113.84350	        -1.60030e+57
          2114.64980	         2.12610e+57
          2115.45610	        -2.09846e+57
          2116.26240	        -3.47778e+57
          2117.06870	         7.47918e+56
          2117.87500	        -1.69256e+57
          2118.68130	         1.46800e+57
          2119.48760	         1.14786e+57
          2120.29390	         1.06649e+57
          2121.10020	        -3.67674e+57
          2121.90650	        -4.51737e+57
          2122.71280	        -2.76993e+57
          2123.51910	         4.95961e+57
          2124.32540	         5.53587e+57
          2125.13170	         4.32606e+57
          2125.93800	        -1.24717e+57
          2126.74430	        -7.03268e+57
          2127.55060	        -4.82302e+57
          2128.35690	         1.84332e+57
          2129.16320	         8.32781e+56
          2129.96950	        -2.44812e+57
          2130.77580	         7.59210e+56
          2131.58210	         1.25358e+57
          2132.38840	        -9.63952e+56
          2133.19470	        -1.73255e+57
          2134.00100	        -2.61313e+57
          2134.80730	        -7.11476e+57
          2135.61360	         2.29317e+57
          2136.41990	         7.90576e+57
          2137.22620	         2.14392e+57
          2138.03250	         3.13266e+57
          2138.83880	         1.53639e+57
          2139.64510	        -4.45207e+57
          2140.45140	         2.25855e+56
          2141.25770	        -7.93240e+57
          2142.06400	         1.90582e+56
          2142.87030	         1.24737e+57
          2143.67660	         3.42275e+57
          2144.48290	        -1.38378e+57
          2145.28920	         1.56625e+58
          2146.09550	        -2.92304e+57
          2146.90180	        -1.33814e+57
          2147.70810	        -2.45188e+57
          2148.51440	        -6.62560e+57
          2149.32070	        -3.80781e+57
          2150.12700	        -1.04849e+58
          2150.93330	        -7.21858e+57
          2151.73960	         8.51248e+56
          2152.54590	        -6.04315e+57
          2153.35220	        -4.95717e+57
          2154.15850	        -2.97647e+57
          2154.96480	         1.17022e+57
          2155.77110	        -7.32477e+57
          2156.57740	        -9.07961e+57
          2157.38370	        -1.53527e+57
          2158.19000	        -2.50513e+57
          2158.99630	        -7.82097e+57
          2159.80260	        -1.41946e+58
          2160.60890	        -1.31631e+57
          2161.41520	        -9.16662e+56
          2162.22150	        -1.90701e+57
          2163.02780	        -9.14169e+57
          2163.83410	        -8.58800e+55
          2164.64040	        -7.99345e+57
          2165.44670	        -6.95177e+57
          2166.25300	        -1.19017e+58
          2167.05930	        -9.72032e+57
          2167.86560	        -7.43161e+57
          2168.67190	        -1.35150e+58
          2169.47820	        -1.10348e+58
          2170.28450	        -3.15282e+57
          2171.09080	        -6.00129e+57
          2171.89710	         3.22950e+57
          2172.70340	         3.28776e+57
          2173.50970	        -1.57715e+58
          2174.31600	        -7.64440e+56
          2175.12230	        -9.02972e+57
          2175.92860	        -2.94003e+57
          2176.73490	        -7.76302e+57
          2177.54120	        -4.97280e+57
          2178.34750	        -5.20411e+57
          2179.15380	                 nan
          2179.96010	                 nan
          2180.76640	                 nan
          2181.57270	                 nan
          2182.37900	                 nan
          2183.18530	                 nan
          2183.99160	                 nan
          2184.79790	                 nan
          2185.60420	                 nan
          2186.41050	                 nan
          2187.21680	                 nan
          2188.02310	                 nan
          2188.82940	                 nan
          2189.63570	                 nan
          2190.44200	                 nan
          2191.24830	                 nan
          2192.05460	                 nan
          2192.86090	                 nan
          2193.66720	                 nan
          2194.47350	                 nan
          2195.27980	                 nan
          2196.08610	                 nan
          2196.89240	                 nan
          2197.69870	                 nan
          2198.50500	                 nan
          2199.31130	                 nan
          2200.11760	                 nan
          2200.92390	                 nan
          2201.73020	                 nan
          2202.53650	                 nan
          2203.34280	                 nan
          2204.14910	                 nan
          2204.95540	                 nan
          2205.76170	                 nan
          2206.56800	                 nan
          2207.37430	                 nan
          2208.18060	                 nan
          2208.98690	                 nan
          2209.79320	                 nan
          2210.59950	                 nan
          2211.40580	                 nan
          2212.21210	                 nan
          2213.01840	                 nan
          2213.82470	                 nan
          2214.63100	                 nan
          2215.43730	         0.00000e+00
