#sample_254_stacked_spectrum_rest_UV-bands_median_H-alpha_noDC.txt
#median Lum: 1.67765e+42
#Rest-frame wavelength (A) | Luminosity (erg/s/A)
#
          1110.00000	         0.00000e+00
          1110.80630	         2.21984e+59
          1111.61260	         3.04471e+59
          1112.41890	         3.14925e+58
          1113.22520	         3.45544e+58
          1114.03150	        -5.14612e+58
          1114.83780	         2.40944e+59
          1115.64410	         2.05889e+59
          1116.45040	         2.23598e+59
          1117.25670	         1.68053e+59
          1118.06300	         9.49043e+58
          1118.86930	        -5.01150e+58
          1119.67560	         3.39332e+58
          1120.48190	         3.84921e+58
          1121.28820	        -1.47038e+59
          1122.09450	         5.99054e+58
          1122.90080	         5.43358e+58
          1123.70710	         6.59364e+58
          1124.51340	         5.19771e+58
          1125.31970	         9.01881e+57
          1126.12600	        -3.54712e+58
          1126.93230	        -6.33904e+58
          1127.73860	        -5.18391e+58
          1128.54490	        -1.39031e+58
          1129.35120	         9.27559e+57
          1130.15750	        -2.58565e+58
          1130.96380	         1.03471e+58
          1131.77010	         5.97804e+58
          1132.57640	         4.72447e+58
          1133.38270	         1.58388e+58
          1134.18900	         1.09256e+58
          1134.99530	         8.33771e+57
          1135.80160	         5.15743e+57
          1136.60790	         1.82252e+58
          1137.41420	         1.86578e+58
          1138.22050	         6.88693e+58
          1139.02680	         1.70617e+58
          1139.83310	         2.48589e+58
          1140.63940	         7.13111e+57
          1141.44570	        -7.11834e+57
          1142.25200	         9.84993e+56
          1143.05830	         2.18524e+58
          1143.86460	         3.05194e+58
          1144.67090	         2.75055e+58
          1145.47720	         9.25600e+57
          1146.28350	         7.70491e+57
          1147.08980	         1.45023e+58
          1147.89610	         1.95030e+58
          1148.70240	         8.39451e+57
          1149.50870	         1.86912e+58
          1150.31500	         1.72008e+58
          1151.12130	         1.37663e+58
          1151.92760	         8.02510e+56
          1152.73390	         2.55591e+57
          1153.54020	         8.01050e+57
          1154.34650	         1.93529e+58
          1155.15280	         1.91929e+58
          1155.95910	         1.25342e+58
          1156.76540	         6.76842e+57
          1157.57170	        -3.14480e+57
          1158.37800	         2.33886e+57
          1159.18430	         1.61601e+57
          1159.99060	         9.82733e+57
          1160.79690	         4.40577e+56
          1161.60320	         6.22183e+57
          1162.40950	         2.22263e+58
          1163.21580	         2.11888e+58
          1164.02210	         1.52714e+58
          1164.82840	         1.05875e+58
          1165.63470	         1.18148e+58
          1166.44100	         2.51754e+58
          1167.24730	         2.20735e+58
          1168.05360	         5.75350e+57
          1168.85990	         2.01268e+57
          1169.66620	         5.61260e+57
          1170.47250	         9.00187e+57
          1171.27880	         1.35783e+58
          1172.08510	         2.18481e+58
          1172.89140	         1.05348e+58
          1173.69770	         1.12956e+58
          1174.50400	         1.14651e+58
          1175.31030	         1.60320e+58
          1176.11660	         1.26375e+58
          1176.92290	         1.46268e+58
          1177.72920	         1.19279e+58
          1178.53550	         6.44658e+57
          1179.34180	         2.45650e+57
          1180.14810	         1.35263e+58
          1180.95440	         1.15847e+58
          1181.76070	         6.30913e+57
          1182.56700	         4.67652e+57
          1183.37330	         3.14627e+57
          1184.17960	         9.23053e+57
          1184.98590	         7.93184e+57
          1185.79220	         6.67225e+57
          1186.59850	         1.23909e+58
          1187.40480	         7.69339e+57
          1188.21110	         1.58219e+58
          1189.01740	         1.31063e+58
          1189.82370	         1.57723e+58
          1190.63000	         1.15563e+58
          1191.43630	         9.24839e+57
          1192.24260	         8.61200e+57
          1193.04890	         1.25318e+58
          1193.85520	         1.01376e+58
          1194.66150	         1.26580e+58
          1195.46780	         2.10732e+58
          1196.27410	         1.70200e+58
          1197.08040	         1.19007e+58
          1197.88670	         1.44621e+58
          1198.69300	         1.47989e+58
          1199.49930	         1.93020e+58
          1200.30560	         1.58970e+58
          1201.11190	         1.06485e+58
          1201.91820	         7.22101e+57
          1202.72450	         7.15415e+57
          1203.53080	         1.90588e+58
          1204.33710	         1.23444e+58
          1205.14340	         8.14170e+57
          1205.94970	         6.12579e+57
          1206.75600	         9.54233e+57
          1207.56230	         8.17109e+57
          1208.36860	         5.88287e+57
          1209.17490	         1.52420e+57
          1209.98120	         1.62455e+57
          1210.78750	         6.85842e+57
          1211.59380	         1.52860e+58
          1212.40010	         2.05752e+58
          1213.20640	         1.86105e+58
          1214.01270	         1.90153e+58
          1214.81900	         2.49100e+58
          1215.62530	         4.43452e+58
          1216.43160	         9.31513e+58
          1217.23790	         1.53373e+59
          1218.04420	         1.11982e+59
          1218.85050	         8.26603e+58
          1219.65680	         5.69926e+58
          1220.46310	         3.36570e+58
          1221.26940	         2.27321e+58
          1222.07570	         1.22082e+58
          1222.88200	         8.73721e+57
          1223.68830	         5.93202e+57
          1224.49460	         8.24789e+57
          1225.30090	         4.94824e+57
          1226.10720	         6.19996e+57
          1226.91350	         8.63182e+57
          1227.71980	         9.40948e+57
          1228.52610	         9.46963e+57
          1229.33240	         6.94853e+57
          1230.13870	         5.67132e+57
          1230.94500	         6.80378e+57
          1231.75130	         8.45791e+57
          1232.55760	         9.50405e+57
          1233.36390	         7.81427e+57
          1234.17020	         8.84141e+57
          1234.97650	         7.04015e+57
          1235.78280	         7.89721e+57
          1236.58910	         9.15472e+57
          1237.39540	         9.20842e+57
          1238.20170	         1.00946e+58
          1239.00800	         1.19729e+58
          1239.81430	         1.31978e+58
          1240.62060	         8.36844e+57
          1241.42690	         1.00907e+58
          1242.23320	         1.30590e+58
          1243.03950	         8.77271e+57
          1243.84580	         7.65953e+57
          1244.65210	         9.12564e+57
          1245.45840	         8.72045e+57
          1246.26470	         6.36815e+57
          1247.07100	         9.07956e+57
          1247.87730	         7.71238e+57
          1248.68360	         2.55732e+57
          1249.48990	         6.90000e+57
          1250.29620	         1.25650e+58
          1251.10250	         9.11978e+57
          1251.90880	         6.07745e+57
          1252.71510	         6.29653e+57
          1253.52140	         9.17288e+57
          1254.32770	         9.56221e+57
          1255.13400	         1.20540e+58
          1255.94030	         1.29644e+58
          1256.74660	         1.22412e+58
          1257.55290	         1.20365e+58
          1258.35920	         9.51675e+57
          1259.16550	         6.61591e+57
          1259.97180	         6.80364e+57
          1260.77810	         9.51855e+57
          1261.58440	         1.21812e+58
          1262.39070	         8.82125e+57
          1263.19700	         6.97442e+57
          1264.00330	         9.16451e+57
          1264.80960	         1.08332e+58
          1265.61590	         1.31593e+58
          1266.42220	         1.33348e+58
          1267.22850	         1.20570e+58
          1268.03480	         1.46207e+58
          1268.84110	         1.42699e+58
          1269.64740	         1.26288e+58
          1270.45370	         1.38429e+58
          1271.26000	         1.26851e+58
          1272.06630	         1.11252e+58
          1272.87260	         1.07350e+58
          1273.67890	         1.28295e+58
          1274.48520	         1.55333e+58
          1275.29150	         1.49665e+58
          1276.09780	         1.13865e+58
          1276.90410	         1.39613e+58
          1277.71040	         1.39952e+58
          1278.51670	         1.19671e+58
          1279.32300	         1.41429e+58
          1280.12930	         1.17378e+58
          1280.93560	         1.14749e+58
          1281.74190	         1.17020e+58
          1282.54820	         1.19640e+58
          1283.35450	         1.13990e+58
          1284.16080	         1.24829e+58
          1284.96710	         1.51253e+58
          1285.77340	         1.39351e+58
          1286.57970	         1.10843e+58
          1287.38600	         1.40794e+58
          1288.19230	         1.84918e+58
          1288.99860	         1.67046e+58
          1289.80490	         1.27452e+58
          1290.61120	         1.29485e+58
          1291.41750	         1.34464e+58
          1292.22380	         1.21396e+58
          1293.03010	         1.21298e+58
          1293.83640	         1.24752e+58
          1294.64270	         1.07552e+58
          1295.44900	         6.72427e+57
          1296.25530	         7.10485e+57
          1297.06160	         9.65622e+57
          1297.86790	         9.99855e+57
          1298.67420	         9.87711e+57
          1299.48050	         8.84653e+57
          1300.28680	         8.70459e+57
          1301.09310	         7.56571e+57
          1301.89940	         3.10848e+57
          1302.70570	         6.69320e+57
          1303.51200	         8.58181e+57
          1304.31830	         9.67062e+57
          1305.12460	         1.05789e+58
          1305.93090	         1.02902e+58
          1306.73720	         1.28101e+58
          1307.54350	         1.37717e+58
          1308.34980	         1.46045e+58
          1309.15610	         1.60102e+58
          1309.96240	         1.64500e+58
          1310.76870	         1.44018e+58
          1311.57500	         1.19677e+58
          1312.38130	         1.43762e+58
          1313.18760	         1.58811e+58
          1313.99390	         1.64749e+58
          1314.80020	         1.41971e+58
          1315.60650	         1.47690e+58
          1316.41280	         1.42146e+58
          1317.21910	         1.01634e+58
          1318.02540	         1.12694e+58
          1318.83170	         1.21742e+58
          1319.63800	         1.19559e+58
          1320.44430	         1.22184e+58
          1321.25060	         1.24946e+58
          1322.05690	         1.16933e+58
          1322.86320	         1.19794e+58
          1323.66950	         1.18607e+58
          1324.47580	         9.61140e+57
          1325.28210	         9.35652e+57
          1326.08840	         1.07301e+58
          1326.89470	         1.28337e+58
          1327.70100	         1.19837e+58
          1328.50730	         9.68962e+57
          1329.31360	         1.00628e+58
          1330.11990	         1.09118e+58
          1330.92620	         9.68287e+57
          1331.73250	         1.04965e+58
          1332.53880	         1.07705e+58
          1333.34510	         1.01451e+58
          1334.15140	         9.02083e+57
          1334.95770	         9.35441e+57
          1335.76400	         1.02130e+58
          1336.57030	         1.12011e+58
          1337.37660	         1.08033e+58
          1338.18290	         1.01401e+58
          1338.98920	         1.15058e+58
          1339.79550	         1.15009e+58
          1340.60180	         1.09791e+58
          1341.40810	         1.21886e+58
          1342.21440	         1.14528e+58
          1343.02070	         1.19884e+58
          1343.82700	         1.33850e+58
          1344.63330	         1.28618e+58
          1345.43960	         1.38024e+58
          1346.24590	         1.28912e+58
          1347.05220	         1.17430e+58
          1347.85850	         9.67951e+57
          1348.66480	         1.20229e+58
          1349.47110	         1.40039e+58
          1350.27740	         1.34638e+58
          1351.08370	         1.20461e+58
          1351.89000	         1.23918e+58
          1352.69630	         1.20982e+58
          1353.50260	         1.18725e+58
          1354.30890	         1.18914e+58
          1355.11520	         1.09211e+58
          1355.92150	         9.74352e+57
          1356.72780	         1.04877e+58
          1357.53410	         1.05882e+58
          1358.34040	         1.00604e+58
          1359.14670	         9.20822e+57
          1359.95300	         1.01146e+58
          1360.75930	         1.16918e+58
          1361.56560	         1.00589e+58
          1362.37190	         9.25470e+57
          1363.17820	         1.11473e+58
          1363.98450	         1.26604e+58
          1364.79080	         1.31449e+58
          1365.59710	         1.21536e+58
          1366.40340	         1.26832e+58
          1367.20970	         1.26806e+58
          1368.01600	         9.82477e+57
          1368.82230	         7.94409e+57
          1369.62860	         1.08323e+58
          1370.43490	         1.02260e+58
          1371.24120	         8.93843e+57
          1372.04750	         7.66961e+57
          1372.85380	         1.08560e+58
          1373.66010	         1.20969e+58
          1374.46640	         1.19518e+58
          1375.27270	         1.05518e+58
          1376.07900	         7.76149e+57
          1376.88530	         8.09823e+57
          1377.69160	         8.82239e+57
          1378.49790	         7.40946e+57
          1379.30420	         6.60957e+57
          1380.11050	         8.59296e+57
          1380.91680	         8.58274e+57
          1381.72310	         8.24581e+57
          1382.52940	         9.00001e+57
          1383.33570	         9.83353e+57
          1384.14200	         1.12782e+58
          1384.94830	         1.21086e+58
          1385.75460	         1.16346e+58
          1386.56090	         1.17656e+58
          1387.36720	         1.12501e+58
          1388.17350	         1.20985e+58
          1388.97980	         1.01990e+58
          1389.78610	         9.47318e+57
          1390.59240	         9.13822e+57
          1391.39870	         7.68372e+57
          1392.20500	         8.28735e+57
          1393.01130	         7.81414e+57
          1393.81760	         6.79813e+57
          1394.62390	         7.65362e+57
          1395.43020	         6.74776e+57
          1396.23650	         5.57876e+57
          1397.04280	         7.24314e+57
          1397.84910	         8.10473e+57
          1398.65540	         8.74340e+57
          1399.46170	         1.05472e+58
          1400.26800	         8.52516e+57
          1401.07430	         7.34853e+57
          1401.88060	         8.18147e+57
          1402.68690	         9.36410e+57
          1403.49320	         8.83320e+57
          1404.29950	         8.79322e+57
          1405.10580	         1.02811e+58
          1405.91210	         1.19745e+58
          1406.71840	         9.97046e+57
          1407.52470	         9.80426e+57
          1408.33100	         1.04035e+58
          1409.13730	         1.12541e+58
          1409.94360	         1.24392e+58
          1410.74990	         1.14111e+58
          1411.55620	         1.01210e+58
          1412.36250	         9.43009e+57
          1413.16880	         8.22249e+57
          1413.97510	         8.41248e+57
          1414.78140	         8.62771e+57
          1415.58770	         1.01904e+58
          1416.39400	         1.01180e+58
          1417.20030	         8.95851e+57
          1418.00660	         9.71329e+57
          1418.81290	         1.08236e+58
          1419.61920	         1.14347e+58
          1420.42550	         1.26538e+58
          1421.23180	         1.19170e+58
          1422.03810	         1.29760e+58
          1422.84440	         1.18664e+58
          1423.65070	         1.24747e+58
          1424.45700	         1.26505e+58
          1425.26330	         9.80234e+57
          1426.06960	         9.29299e+57
          1426.87590	         1.08530e+58
          1427.68220	         1.11774e+58
          1428.48850	         1.15954e+58
          1429.29480	         1.06922e+58
          1430.10110	         1.04268e+58
          1430.90740	         8.91583e+57
          1431.71370	         7.83142e+57
          1432.52000	         8.04704e+57
          1433.32630	         7.70351e+57
          1434.13260	         7.97844e+57
          1434.93890	         8.06532e+57
          1435.74520	         8.75832e+57
          1436.55150	         9.56113e+57
          1437.35780	         9.33145e+57
          1438.16410	         9.50372e+57
          1438.97040	         9.08394e+57
          1439.77670	         9.01903e+57
          1440.58300	         9.14470e+57
          1441.38930	         8.42665e+57
          1442.19560	         9.33633e+57
          1443.00190	         1.01205e+58
          1443.80820	         1.10310e+58
          1444.61450	         1.00038e+58
          1445.42080	         9.34441e+57
          1446.22710	         9.96105e+57
          1447.03340	         9.19499e+57
          1447.83970	         1.10187e+58
          1448.64600	         1.27836e+58
          1449.45230	         1.13345e+58
          1450.25860	         9.80882e+57
          1451.06490	         9.54164e+57
          1451.87120	         8.63953e+57
          1452.67750	         8.10740e+57
          1453.48380	         9.13767e+57
          1454.29010	         8.18138e+57
          1455.09640	         7.35832e+57
          1455.90270	         8.82446e+57
          1456.70900	         8.49014e+57
          1457.51530	         9.80921e+57
          1458.32160	         1.15696e+58
          1459.12790	         1.13000e+58
          1459.93420	         1.09616e+58
          1460.74050	         9.13346e+57
          1461.54680	         8.00993e+57
          1462.35310	         8.60942e+57
          1463.15940	         9.35802e+57
          1463.96570	         1.08035e+58
          1464.77200	         1.20559e+58
          1465.57830	         1.19415e+58
          1466.38460	         9.98235e+57
          1467.19090	         9.37538e+57
          1467.99720	         8.99542e+57
          1468.80350	         9.95803e+57
          1469.60980	         1.01076e+58
          1470.41610	         1.07406e+58
          1471.22240	         1.01228e+58
          1472.02870	         9.17024e+57
          1472.83500	         9.87709e+57
          1473.64130	         1.02790e+58
          1474.44760	         9.65352e+57
          1475.25390	         9.01221e+57
          1476.06020	         8.28213e+57
          1476.86650	         8.53118e+57
          1477.67280	         8.24625e+57
          1478.47910	         6.85259e+57
          1479.28540	         6.80824e+57
          1480.09170	         8.34372e+57
          1480.89800	         7.68946e+57
          1481.70430	         6.72291e+57
          1482.51060	         7.73823e+57
          1483.31690	         8.55467e+57
          1484.12320	         7.94988e+57
          1484.92950	         7.91769e+57
          1485.73580	         8.61815e+57
          1486.54210	         9.94830e+57
          1487.34840	         9.52114e+57
          1488.15470	         9.15383e+57
          1488.96100	         8.39129e+57
          1489.76730	         8.09444e+57
          1490.57360	         8.52197e+57
          1491.37990	         7.31608e+57
          1492.18620	         7.80155e+57
          1492.99250	         9.18138e+57
          1493.79880	         9.12633e+57
          1494.60510	         8.10299e+57
          1495.41140	         7.49839e+57
          1496.21770	         8.11656e+57
          1497.02400	         1.00276e+58
          1497.83030	         9.14711e+57
          1498.63660	         7.46296e+57
          1499.44290	         7.11731e+57
          1500.24920	         7.20664e+57
          1501.05550	         8.16206e+57
          1501.86180	         9.40785e+57
          1502.66810	         1.01395e+58
          1503.47440	         9.55617e+57
          1504.28070	         9.33159e+57
          1505.08700	         9.42310e+57
          1505.89330	         7.97386e+57
          1506.69960	         6.96113e+57
          1507.50590	         8.13770e+57
          1508.31220	         8.30870e+57
          1509.11850	         8.39093e+57
          1509.92480	         9.98445e+57
          1510.73110	         9.69835e+57
          1511.53740	         7.68737e+57
          1512.34370	         7.36112e+57
          1513.15000	         9.11314e+57
          1513.95630	         9.92492e+57
          1514.76260	         9.18744e+57
          1515.56890	         8.43864e+57
          1516.37520	         8.76677e+57
          1517.18150	         8.07341e+57
          1517.98780	         7.95466e+57
          1518.79410	         7.04222e+57
          1519.60040	         7.43188e+57
          1520.40670	         8.44860e+57
          1521.21300	         9.32463e+57
          1522.01930	         8.27581e+57
          1522.82560	         8.69799e+57
          1523.63190	         1.01167e+58
          1524.43820	         8.38800e+57
          1525.24450	         7.45894e+57
          1526.05080	         6.42602e+57
          1526.85710	         5.85139e+57
          1527.66340	         7.54089e+57
          1528.46970	         9.35861e+57
          1529.27600	         8.51202e+57
          1530.08230	         7.35199e+57
          1530.88860	         7.63464e+57
          1531.69490	         8.59729e+57
          1532.50120	         8.06199e+57
          1533.30750	         9.06542e+57
          1534.11380	         1.00429e+58
          1534.92010	         8.99702e+57
          1535.72640	         9.16038e+57
          1536.53270	         9.50068e+57
          1537.33900	         8.57099e+57
          1538.14530	         9.36906e+57
          1538.95160	         1.03249e+58
          1539.75790	         8.58010e+57
          1540.56420	         8.03951e+57
          1541.37050	         8.44918e+57
          1542.17680	         7.88338e+57
          1542.98310	         7.17322e+57
          1543.78940	         7.73961e+57
          1544.59570	         7.03607e+57
          1545.40200	         7.80727e+57
          1546.20830	         9.70145e+57
          1547.01460	         1.10269e+58
          1547.82090	         1.17270e+58
          1548.62720	         1.20643e+58
          1549.43350	         1.13782e+58
          1550.23980	         1.11378e+58
          1551.04610	         1.26345e+58
          1551.85240	         1.18496e+58
          1552.65870	         1.10856e+58
          1553.46500	         1.00558e+58
          1554.27130	         9.44536e+57
          1555.07760	         9.37041e+57
          1555.88390	         8.73282e+57
          1556.69020	         8.80352e+57
          1557.49650	         8.80928e+57
          1558.30280	         8.51768e+57
          1559.10910	         9.29336e+57
          1559.91540	         9.74844e+57
          1560.72170	         9.60057e+57
          1561.52800	         9.51061e+57
          1562.33430	         9.32444e+57
          1563.14060	         8.22618e+57
          1563.94690	         8.42729e+57
          1564.75320	         8.78719e+57
          1565.55950	         7.57614e+57
          1566.36580	         7.71975e+57
          1567.17210	         9.15407e+57
          1567.97840	         9.04340e+57
          1568.78470	         8.38827e+57
          1569.59100	         9.08891e+57
          1570.39730	         8.06796e+57
          1571.20360	         6.93571e+57
          1572.00990	         7.70365e+57
          1572.81620	         9.87943e+57
          1573.62250	         1.01305e+58
          1574.42880	         8.29151e+57
          1575.23510	         7.49735e+57
          1576.04140	         8.82942e+57
          1576.84770	         9.08166e+57
          1577.65400	         8.90876e+57
          1578.46030	         9.87514e+57
          1579.26660	         1.06073e+58
          1580.07290	         9.29906e+57
          1580.87920	         7.61745e+57
          1581.68550	         8.00352e+57
          1582.49180	         8.21404e+57
          1583.29810	         8.11335e+57
          1584.10440	         8.90955e+57
          1584.91070	         8.13320e+57
          1585.71700	         8.22639e+57
          1586.52330	         9.21745e+57
          1587.32960	         8.88593e+57
          1588.13590	         9.10633e+57
          1588.94220	         8.24319e+57
          1589.74850	         8.68850e+57
          1590.55480	         9.91930e+57
          1591.36110	         8.91115e+57
          1592.16740	         8.00313e+57
          1592.97370	         8.33946e+57
          1593.78000	         8.23859e+57
          1594.58630	         8.39194e+57
          1595.39260	         8.33014e+57
          1596.19890	         8.37725e+57
          1597.00520	         9.51345e+57
          1597.81150	         9.16439e+57
          1598.61780	         8.01175e+57
          1599.42410	         7.46928e+57
          1600.23040	         6.85335e+57
          1601.03670	         7.80130e+57
          1601.84300	         7.66443e+57
          1602.64930	         7.87327e+57
          1603.45560	         8.25228e+57
          1604.26190	         8.43730e+57
          1605.06820	         8.53433e+57
          1605.87450	         8.06766e+57
          1606.68080	         7.57995e+57
          1607.48710	         6.06493e+57
          1608.29340	         5.83669e+57
          1609.09970	         7.43170e+57
          1609.90600	         7.59112e+57
          1610.71230	         6.20726e+57
          1611.51860	         5.86984e+57
          1612.32490	         6.69211e+57
          1613.13120	         8.31577e+57
          1613.93750	         8.62769e+57
          1614.74380	         8.75436e+57
          1615.55010	         8.73885e+57
          1616.35640	         9.42356e+57
          1617.16270	         1.02513e+58
          1617.96900	         1.04105e+58
          1618.77530	         8.72199e+57
          1619.58160	         8.16592e+57
          1620.38790	         8.05832e+57
          1621.19420	         8.82474e+57
          1622.00050	         8.41392e+57
          1622.80680	         9.67010e+57
          1623.61310	         8.51289e+57
          1624.41940	         7.09945e+57
          1625.22570	         8.80663e+57
          1626.03200	         8.67325e+57
          1626.83830	         7.45555e+57
          1627.64460	         6.59764e+57
          1628.45090	         5.94825e+57
          1629.25720	         7.52154e+57
          1630.06350	         8.90534e+57
          1630.86980	         5.80146e+57
          1631.67610	         6.55295e+57
          1632.48240	         8.29757e+57
          1633.28870	         7.13520e+57
          1634.09500	         9.12246e+57
          1634.90130	         1.08923e+58
          1635.70760	         8.95332e+57
          1636.51390	         7.06557e+57
          1637.32020	         6.96583e+57
          1638.12650	         7.68584e+57
          1638.93280	         8.62492e+57
          1639.73910	         9.33381e+57
          1640.54540	         8.99822e+57
          1641.35170	         9.14581e+57
          1642.15800	         9.75747e+57
          1642.96430	         8.46096e+57
          1643.77060	         7.94544e+57
          1644.57690	         8.12302e+57
          1645.38320	         8.35492e+57
          1646.18950	         7.80037e+57
          1646.99580	         9.55027e+57
          1647.80210	         8.71247e+57
          1648.60840	         8.19952e+57
          1649.41470	         9.09898e+57
          1650.22100	         8.13122e+57
          1651.02730	         8.63722e+57
          1651.83360	         7.93757e+57
          1652.63990	         8.47101e+57
          1653.44620	         8.95469e+57
          1654.25250	         8.34469e+57
          1655.05880	         8.24244e+57
          1655.86510	         8.74001e+57
          1656.67140	         9.28036e+57
          1657.47770	         9.03121e+57
          1658.28400	         8.63988e+57
          1659.09030	         9.42057e+57
          1659.89660	         8.63523e+57
          1660.70290	         9.25176e+57
          1661.50920	         8.95115e+57
          1662.31550	         8.27962e+57
          1663.12180	         9.05223e+57
          1663.92810	         9.80572e+57
          1664.73440	         1.09205e+58
          1665.54070	         1.11879e+58
          1666.34700	         1.16839e+58
          1667.15330	         1.11332e+58
          1667.95960	         8.91439e+57
          1668.76590	         8.07906e+57
          1669.57220	         6.86715e+57
          1670.37850	         6.87282e+57
          1671.18480	         7.94244e+57
          1671.99110	         6.95003e+57
          1672.79740	         5.72469e+57
          1673.60370	         5.63525e+57
          1674.41000	         7.20209e+57
          1675.21630	         7.39949e+57
          1676.02260	         6.84601e+57
          1676.82890	         6.64699e+57
          1677.63520	         6.65448e+57
          1678.44150	         6.75482e+57
          1679.24780	         8.04260e+57
          1680.05410	         7.54445e+57
          1680.86040	         6.41604e+57
          1681.66670	         6.66652e+57
          1682.47300	         8.72556e+57
          1683.27930	         9.11946e+57
          1684.08560	         8.46239e+57
          1684.89190	         7.41492e+57
          1685.69820	         6.04847e+57
          1686.50450	         5.42095e+57
          1687.31080	         6.22147e+57
          1688.11710	         8.16409e+57
          1688.92340	         7.31456e+57
          1689.72970	         5.71100e+57
          1690.53600	         6.38815e+57
          1691.34230	         6.95575e+57
          1692.14860	         7.05654e+57
          1692.95490	         7.79598e+57
          1693.76120	         6.04949e+57
          1694.56750	         5.92635e+57
          1695.37380	         8.18089e+57
          1696.18010	         9.00369e+57
          1696.98640	         9.72723e+57
          1697.79270	         9.47514e+57
          1698.59900	         8.66638e+57
          1699.40530	         8.19240e+57
          1700.21160	         8.47470e+57
          1701.01790	         8.21296e+57
          1701.82420	         7.00288e+57
          1702.63050	         5.53306e+57
          1703.43680	         8.17536e+57
          1704.24310	         8.68133e+57
          1705.04940	         7.54889e+57
          1705.85570	         8.14722e+57
          1706.66200	         9.07938e+57
          1707.46830	         8.90511e+57
          1708.27460	         7.81538e+57
          1709.08090	         6.62353e+57
          1709.88720	         6.64873e+57
          1710.69350	         6.30180e+57
          1711.49980	         6.48965e+57
          1712.30610	         7.48692e+57
          1713.11240	         8.31887e+57
          1713.91870	         7.84263e+57
          1714.72500	         7.72646e+57
          1715.53130	         8.59720e+57
          1716.33760	         8.01708e+57
          1717.14390	         7.93753e+57
          1717.95020	         8.25477e+57
          1718.75650	         8.11015e+57
          1719.56280	         8.25636e+57
          1720.36910	         7.38065e+57
          1721.17540	         7.89512e+57
          1721.98170	         6.59497e+57
          1722.78800	         6.00183e+57
          1723.59430	         7.15621e+57
          1724.40060	         8.39921e+57
          1725.20690	         7.92534e+57
          1726.01320	         8.16740e+57
          1726.81950	         8.23525e+57
          1727.62580	         7.21751e+57
          1728.43210	         6.77538e+57
          1729.23840	         6.97248e+57
          1730.04470	         8.04902e+57
          1730.85100	         8.29560e+57
          1731.65730	         8.21618e+57
          1732.46360	         8.91290e+57
          1733.26990	         7.89631e+57
          1734.07620	         7.69214e+57
          1734.88250	         8.03330e+57
          1735.68880	         8.33147e+57
          1736.49510	         8.72390e+57
          1737.30140	         8.43224e+57
          1738.10770	         7.09984e+57
          1738.91400	         7.29663e+57
          1739.72030	         7.61087e+57
          1740.52660	         7.18477e+57
          1741.33290	         6.54171e+57
          1742.13920	         6.31262e+57
          1742.94550	         7.12658e+57
          1743.75180	         9.14386e+57
          1744.55810	         8.69382e+57
          1745.36440	         6.99475e+57
          1746.17070	         6.37199e+57
          1746.97700	         6.55745e+57
          1747.78330	         7.06916e+57
          1748.58960	         6.52239e+57
          1749.39590	         6.73471e+57
          1750.20220	         6.62936e+57
          1751.00850	         4.87009e+57
          1751.81480	         4.98836e+57
          1752.62110	         6.73765e+57
          1753.42740	         7.05204e+57
          1754.23370	         6.23143e+57
          1755.04000	         7.74335e+57
          1755.84630	         8.07213e+57
          1756.65260	         8.91073e+57
          1757.45890	         1.04292e+58
          1758.26520	         9.24417e+57
          1759.07150	         9.74088e+57
          1759.87780	         9.18906e+57
          1760.68410	         8.15540e+57
          1761.49040	         7.52967e+57
          1762.29670	         7.11851e+57
          1763.10300	         7.75324e+57
          1763.90930	         7.52404e+57
          1764.71560	         7.36618e+57
          1765.52190	         6.99843e+57
          1766.32820	         8.25275e+57
          1767.13450	         7.86245e+57
          1767.94080	         7.00730e+57
          1768.74710	         7.53950e+57
          1769.55340	         7.16454e+57
          1770.35970	         7.11404e+57
          1771.16600	         7.27564e+57
          1771.97230	         8.39567e+57
          1772.77860	         7.91078e+57
          1773.58490	         6.80122e+57
          1774.39120	         6.53357e+57
          1775.19750	         5.44663e+57
          1776.00380	         5.63043e+57
          1776.81010	         6.42055e+57
          1777.61640	         6.72449e+57
          1778.42270	         7.12916e+57
          1779.22900	         7.32353e+57
          1780.03530	         6.76732e+57
          1780.84160	         7.06036e+57
          1781.64790	         8.85820e+57
          1782.45420	         7.52926e+57
          1783.26050	         6.41031e+57
          1784.06680	         7.36143e+57
          1784.87310	         7.54624e+57
          1785.67940	         8.17213e+57
          1786.48570	         7.35857e+57
          1787.29200	         5.62730e+57
          1788.09830	         5.68580e+57
          1788.90460	         5.60007e+57
          1789.71090	         4.92833e+57
          1790.51720	         5.42191e+57
          1791.32350	         7.49724e+57
          1792.12980	         8.71516e+57
          1792.93610	         7.99389e+57
          1793.74240	         7.48680e+57
          1794.54870	         8.45391e+57
          1795.35500	         8.05823e+57
          1796.16130	         7.16325e+57
          1796.96760	         6.94015e+57
          1797.77390	         7.37807e+57
          1798.58020	         7.13890e+57
          1799.38650	         7.15028e+57
          1800.19280	         7.36750e+57
          1800.99910	         7.85756e+57
          1801.80540	         7.56392e+57
          1802.61170	         8.45198e+57
          1803.41800	         7.49281e+57
          1804.22430	         6.77744e+57
          1805.03060	         7.32115e+57
          1805.83690	         8.18861e+57
          1806.64320	         8.88705e+57
          1807.44950	         8.20667e+57
          1808.25580	         7.59106e+57
          1809.06210	         8.01619e+57
          1809.86840	         7.75308e+57
          1810.67470	         7.89701e+57
          1811.48100	         7.82556e+57
          1812.28730	         6.78767e+57
          1813.09360	         6.72785e+57
          1813.89990	         8.01663e+57
          1814.70620	         7.79703e+57
          1815.51250	         7.58498e+57
          1816.31880	         7.25294e+57
          1817.12510	         7.16366e+57
          1817.93140	         6.73809e+57
          1818.73770	         7.24721e+57
          1819.54400	         8.31822e+57
          1820.35030	         7.59287e+57
          1821.15660	         6.56084e+57
          1821.96290	         7.31699e+57
          1822.76920	         8.06188e+57
          1823.57550	         8.44753e+57
          1824.38180	         7.43405e+57
          1825.18810	         7.26531e+57
          1825.99440	         9.00357e+57
          1826.80070	         8.55667e+57
          1827.60700	         6.48956e+57
          1828.41330	         5.41845e+57
          1829.21960	         6.54617e+57
          1830.02590	         7.38795e+57
          1830.83220	         7.74417e+57
          1831.63850	         7.33833e+57
          1832.44480	         7.23758e+57
          1833.25110	         9.07172e+57
          1834.05740	         9.07488e+57
          1834.86370	         6.65950e+57
          1835.67000	         5.59625e+57
          1836.47630	         6.77783e+57
          1837.28260	         8.29684e+57
          1838.08890	         8.61394e+57
          1838.89520	         8.27811e+57
          1839.70150	         7.24500e+57
          1840.50780	         7.56109e+57
          1841.31410	         8.16491e+57
          1842.12040	         7.02602e+57
          1842.92670	         7.18324e+57
          1843.73300	         7.00437e+57
          1844.53930	         6.45699e+57
          1845.34560	         6.73686e+57
          1846.15190	         7.62069e+57
          1846.95820	         7.81945e+57
          1847.76450	         8.24753e+57
          1848.57080	         5.91211e+57
          1849.37710	         6.84645e+57
          1850.18340	         8.37448e+57
          1850.98970	         7.68432e+57
          1851.79600	         7.81927e+57
          1852.60230	         7.45144e+57
          1853.40860	         6.18100e+57
          1854.21490	         6.75167e+57
          1855.02120	         6.04681e+57
          1855.82750	         4.30503e+57
          1856.63380	         4.79381e+57
          1857.44010	         6.70605e+57
          1858.24640	         7.85921e+57
          1859.05270	         8.01888e+57
          1859.85900	         6.56682e+57
          1860.66530	         6.38196e+57
          1861.47160	         7.28356e+57
          1862.27790	         7.74057e+57
          1863.08420	         7.57666e+57
          1863.89050	         7.96523e+57
          1864.69680	         7.29255e+57
          1865.50310	         7.30668e+57
          1866.30940	         7.04714e+57
          1867.11570	         7.05625e+57
          1867.92200	         7.58863e+57
          1868.72830	         8.06463e+57
          1869.53460	         7.40224e+57
          1870.34090	         7.40624e+57
          1871.14720	         7.64697e+57
          1871.95350	         7.79616e+57
          1872.75980	         7.56654e+57
          1873.56610	         6.66211e+57
          1874.37240	         6.71106e+57
          1875.17870	         6.74706e+57
          1875.98500	         7.74939e+57
          1876.79130	         7.81491e+57
          1877.59760	         6.94697e+57
          1878.40390	         5.77100e+57
          1879.21020	         6.09930e+57
          1880.01650	         7.53934e+57
          1880.82280	         8.52478e+57
          1881.62910	         9.12750e+57
          1882.43540	         9.92481e+57
          1883.24170	         8.95174e+57
          1884.04800	         8.09171e+57
          1884.85430	         8.88995e+57
          1885.66060	         8.83548e+57
          1886.46690	         8.39085e+57
          1887.27320	         6.72574e+57
          1888.07950	         5.69632e+57
          1888.88580	         7.06882e+57
          1889.69210	         8.43098e+57
          1890.49840	         8.16473e+57
          1891.30470	         8.22493e+57
          1892.11100	         8.52750e+57
          1892.91730	         8.20701e+57
          1893.72360	         8.83238e+57
          1894.52990	         6.80704e+57
          1895.33620	         6.88269e+57
          1896.14250	         7.28214e+57
          1896.94880	         6.90252e+57
          1897.75510	         5.24737e+57
          1898.56140	         6.48743e+57
          1899.36770	         7.20863e+57
          1900.17400	         6.45392e+57
          1900.98030	         6.84996e+57
          1901.78660	         7.33800e+57
          1902.59290	         7.36541e+57
          1903.39920	         9.14300e+57
          1904.20550	         9.48170e+57
          1905.01180	         9.21672e+57
          1905.81810	         9.86890e+57
          1906.62440	         1.28201e+58
          1907.43070	         1.52597e+58
          1908.23700	         1.61321e+58
          1909.04330	         1.22632e+58
          1909.84960	         1.07886e+58
          1910.65590	         1.03954e+58
          1911.46220	         9.67229e+57
          1912.26850	         8.16999e+57
          1913.07480	         6.52382e+57
          1913.88110	         5.94240e+57
          1914.68740	         6.36426e+57
          1915.49370	         6.43909e+57
          1916.30000	         7.01341e+57
          1917.10630	         7.30305e+57
          1917.91260	         6.49667e+57
          1918.71890	         5.39783e+57
          1919.52520	         5.17985e+57
          1920.33150	         5.53343e+57
          1921.13780	         5.99023e+57
          1921.94410	         7.71413e+57
          1922.75040	         8.02365e+57
          1923.55670	         7.18308e+57
          1924.36300	         6.63673e+57
          1925.16930	         5.58343e+57
          1925.97560	         6.61084e+57
          1926.78190	         5.53621e+57
          1927.58820	         4.53717e+57
          1928.39450	         5.12438e+57
          1929.20080	         4.81840e+57
          1930.00710	         7.18239e+57
          1930.81340	         7.94612e+57
          1931.61970	         6.96420e+57
          1932.42600	         7.91679e+57
          1933.23230	         8.68112e+57
          1934.03860	         6.18358e+57
          1934.84490	         6.06726e+57
          1935.65120	         8.21373e+57
          1936.45750	         1.05925e+58
          1937.26380	         8.41338e+57
          1938.07010	         7.62597e+57
          1938.87640	         8.03497e+57
          1939.68270	         8.68231e+57
          1940.48900	         9.02949e+57
          1941.29530	         9.17110e+57
          1942.10160	         8.08844e+57
          1942.90790	         7.70510e+57
          1943.71420	         7.41169e+57
          1944.52050	         6.58836e+57
          1945.32680	         5.40631e+57
          1946.13310	         7.44924e+57
          1946.93940	         8.56982e+57
          1947.74570	         7.15487e+57
          1948.55200	         6.40672e+57
          1949.35830	         6.98340e+57
          1950.16460	         5.96308e+57
          1950.97090	         5.71168e+57
          1951.77720	         7.00996e+57
          1952.58350	         6.93002e+57
          1953.38980	         5.02175e+57
          1954.19610	         4.48951e+57
          1955.00240	         5.62812e+57
          1955.80870	         5.85622e+57
          1956.61500	         5.16703e+57
          1957.42130	         5.60376e+57
          1958.22760	         6.41220e+57
          1959.03390	         7.52754e+57
          1959.84020	         7.44370e+57
          1960.64650	         6.64348e+57
          1961.45280	         6.05312e+57
          1962.25910	         6.16022e+57
          1963.06540	         6.42680e+57
          1963.87170	         5.84501e+57
          1964.67800	         7.20187e+57
          1965.48430	         6.62793e+57
          1966.29060	         6.07859e+57
          1967.09690	         7.32025e+57
          1967.90320	         6.88157e+57
          1968.70950	         7.62534e+57
          1969.51580	         5.61903e+57
          1970.32210	         5.51322e+57
          1971.12840	         6.74935e+57
          1971.93470	         5.30657e+57
          1972.74100	         5.31070e+57
          1973.54730	         6.12664e+57
          1974.35360	         6.84253e+57
          1975.15990	         7.97661e+57
          1975.96620	         5.92483e+57
          1976.77250	         6.68716e+57
          1977.57880	         7.58332e+57
          1978.38510	         6.52311e+57
          1979.19140	         6.91675e+57
          1979.99770	         6.98692e+57
          1980.80400	         7.04791e+57
          1981.61030	         7.22398e+57
          1982.41660	         5.56206e+57
          1983.22290	         6.38745e+57
          1984.02920	         5.00695e+57
          1984.83550	         5.66721e+57
          1985.64180	         7.43285e+57
          1986.44810	         7.73893e+57
          1987.25440	         6.12831e+57
          1988.06070	         5.15531e+57
          1988.86700	         5.77935e+57
          1989.67330	         6.44573e+57
          1990.47960	         6.77008e+57
          1991.28590	         6.04312e+57
          1992.09220	         6.09040e+57
          1992.89850	         4.46326e+57
          1993.70480	         4.96170e+57
          1994.51110	         4.87137e+57
          1995.31740	         4.58925e+57
          1996.12370	         5.10625e+57
          1996.93000	         5.87088e+57
          1997.73630	         7.43141e+57
          1998.54260	         6.41560e+57
          1999.34890	         7.06674e+57
          2000.15520	         7.48286e+57
          2000.96150	         6.43853e+57
          2001.76780	         6.64100e+57
          2002.57410	         4.22547e+57
          2003.38040	         5.86876e+57
          2004.18670	         6.92380e+57
          2004.99300	         5.53956e+57
          2005.79930	         7.06661e+57
          2006.60560	         6.49714e+57
          2007.41190	         6.03124e+57
          2008.21820	         6.70380e+57
          2009.02450	         7.26836e+57
          2009.83080	         6.74132e+57
          2010.63710	         6.57606e+57
          2011.44340	         6.03486e+57
          2012.24970	         6.71846e+57
          2013.05600	         6.75895e+57
          2013.86230	         6.25244e+57
          2014.66860	         4.95897e+57
          2015.47490	         5.41003e+57
          2016.28120	         6.31920e+57
          2017.08750	         6.32541e+57
          2017.89380	         6.60616e+57
          2018.70010	         6.49439e+57
          2019.50640	         6.67592e+57
          2020.31270	         6.64771e+57
          2021.11900	         7.34250e+57
          2021.92530	         7.23346e+57
          2022.73160	         7.68821e+57
          2023.53790	         6.80187e+57
          2024.34420	         5.96248e+57
          2025.15050	         5.48131e+57
          2025.95680	         6.55389e+57
          2026.76310	         6.65185e+57
          2027.56940	         7.13735e+57
          2028.37570	         6.30348e+57
          2029.18200	         5.83352e+57
          2029.98830	         6.33646e+57
          2030.79460	         6.49584e+57
          2031.60090	         6.24819e+57
          2032.40720	         6.16952e+57
          2033.21350	         6.04611e+57
          2034.01980	         5.59228e+57
          2034.82610	         3.80293e+57
          2035.63240	         4.71160e+57
          2036.43870	         5.31484e+57
          2037.24500	         6.15648e+57
          2038.05130	         7.46921e+57
          2038.85760	         6.46234e+57
          2039.66390	         6.29313e+57
          2040.47020	         6.69467e+57
          2041.27650	         7.17735e+57
          2042.08280	         6.12445e+57
          2042.88910	         4.72925e+57
          2043.69540	         5.87432e+57
          2044.50170	         6.23480e+57
          2045.30800	         5.76885e+57
          2046.11430	         5.72197e+57
          2046.92060	         5.73894e+57
          2047.72690	         6.57120e+57
          2048.53320	         4.89992e+57
          2049.33950	         5.09284e+57
          2050.14580	         5.74850e+57
          2050.95210	         5.99954e+57
          2051.75840	         7.35266e+57
          2052.56470	         6.10468e+57
          2053.37100	         5.13578e+57
          2054.17730	         5.60306e+57
          2054.98360	         4.73051e+57
          2055.78990	         4.49350e+57
          2056.59620	         5.26756e+57
          2057.40250	         5.14678e+57
          2058.20880	         6.75954e+57
          2059.01510	         6.48253e+57
          2059.82140	         6.68390e+57
          2060.62770	         8.79902e+57
          2061.43400	         1.51651e+58
          2062.24030	         1.11324e+58
          2063.04660	         5.56212e+57
          2063.85290	         3.21388e+57
          2064.65920	        -1.96049e+57
          2065.46550	        -7.97366e+57
          2066.27180	        -9.15184e+57
          2067.07810	         3.92129e+57
          2067.88440	         6.42911e+57
          2068.69070	         5.78259e+57
          2069.49700	         5.08049e+57
          2070.30330	         3.81199e+57
          2071.10960	         5.05833e+57
          2071.91590	         6.00109e+57
          2072.72220	         4.41600e+57
          2073.52850	         5.34395e+57
          2074.33480	         5.44381e+57
          2075.14110	         5.63997e+57
          2075.94740	         5.06497e+57
          2076.75370	         4.45403e+57
          2077.56000	         5.20051e+57
          2078.36630	         4.67513e+57
          2079.17260	         4.59454e+57
          2079.97890	         6.61387e+57
          2080.78520	         4.85358e+57
          2081.59150	         3.81669e+57
          2082.39780	         4.33371e+57
          2083.20410	         3.20226e+57
          2084.01040	         3.90430e+57
          2084.81670	         4.31592e+57
          2085.62300	         2.71223e+57
          2086.42930	         4.34573e+57
          2087.23560	         5.12998e+57
          2088.04190	         2.83985e+57
          2088.84820	         3.72360e+57
          2089.65450	         4.05074e+57
          2090.46080	         1.84031e+57
          2091.26710	         2.25114e+57
          2092.07340	         3.20233e+57
          2092.87970	         2.48587e+57
          2093.68600	        -1.63628e+57
          2094.49230	         1.34750e+57
          2095.29860	         4.49167e+57
          2096.10490	         3.11979e+57
          2096.91120	         9.25370e+56
          2097.71750	         5.66613e+56
          2098.52380	         1.38662e+57
          2099.33010	         2.21297e+57
          2100.13640	         3.55517e+57
          2100.94270	         3.50444e+57
          2101.74900	         3.38298e+57
          2102.55530	         4.48463e+57
          2103.36160	         3.01813e+57
          2104.16790	         3.04850e+57
          2104.97420	         1.27284e+57
          2105.78050	        -9.11176e+55
          2106.58680	        -5.10328e+56
          2107.39310	        -1.45181e+57
          2108.19940	         1.13170e+57
          2109.00570	         8.18217e+56
          2109.81200	         1.60637e+57
          2110.61830	         5.05286e+57
          2111.42460	         3.03137e+57
          2112.23090	         2.34539e+57
          2113.03720	         9.20768e+56
          2113.84350	         1.59749e+57
          2114.64980	         7.24494e+57
          2115.45610	         1.99162e+57
          2116.26240	        -6.81916e+57
          2117.06870	        -2.69224e+57
          2117.87500	        -2.70286e+57
          2118.68130	        -1.86971e+57
          2119.48760	         3.66002e+57
          2120.29390	        -1.80410e+57
          2121.10020	        -4.55507e+57
          2121.90650	         1.33729e+57
          2122.71280	         1.23847e+57
          2123.51910	         2.53117e+57
          2124.32540	        -7.22595e+56
          2125.13170	         1.49760e+57
          2125.93800	         3.76450e+57
          2126.74430	        -3.40617e+57
          2127.55060	        -4.69225e+57
          2128.35690	        -3.09878e+57
          2129.16320	        -6.77792e+56
          2129.96950	        -4.28553e+57
          2130.77580	        -1.47132e+57
          2131.58210	        -5.50549e+56
          2132.38840	         1.71359e+57
          2133.19470	        -1.23253e+57
          2134.00100	         2.59156e+57
          2134.80730	        -8.49359e+57
          2135.61360	         6.64017e+57
          2136.41990	         7.31113e+57
          2137.22620	         5.81824e+57
          2138.03250	        -3.71320e+57
          2138.83880	        -4.53003e+57
          2139.64510	        -1.61807e+57
          2140.45140	         1.67101e+57
          2141.25770	        -8.78477e+57
          2142.06400	        -7.58913e+57
          2142.87030	        -1.17039e+57
          2143.67660	         1.65086e+58
          2144.48290	         1.19530e+58
          2145.28920	         7.71719e+57
          2146.09550	        -1.36593e+58
          2146.90180	        -1.27715e+58
          2147.70810	        -5.12609e+57
          2148.51440	        -5.60069e+57
          2149.32070	        -8.23472e+57
          2150.12700	        -1.19153e+58
          2150.93330	        -9.42524e+57
          2151.73960	         1.96275e+57
          2152.54590	         1.73983e+57
          2153.35220	         6.66895e+57
          2154.15850	         7.22652e+55
          2154.96480	        -3.63589e+57
          2155.77110	        -4.87531e+57
          2156.57740	        -2.04338e+58
          2157.38370	         6.43405e+57
          2158.19000	         3.78831e+57
          2158.99630	        -5.31746e+57
          2159.80260	        -1.07715e+58
          2160.60890	        -4.95445e+57
          2161.41520	        -6.65096e+57
          2162.22150	        -4.89015e+57
          2163.02780	        -1.79637e+57
          2163.83410	        -1.10908e+58
          2164.64040	        -7.65715e+57
          2165.44670	        -2.10530e+58
          2166.25300	        -8.18706e+57
          2167.05930	        -1.03698e+58
          2167.86560	        -1.40776e+58
          2168.67190	        -6.36770e+57
          2169.47820	        -3.21403e+56
          2170.28450	        -3.09135e+57
          2171.09080	        -3.60226e+57
          2171.89710	         7.22619e+57
          2172.70340	         6.34394e+57
          2173.50970	        -4.60810e+57
          2174.31600	         1.29985e+57
          2175.12230	        -1.45383e+57
          2175.92860	        -1.44322e+58
          2176.73490	        -1.08881e+58
          2177.54120	        -8.34061e+57
          2178.34750	        -5.79322e+57
          2179.15380	                 nan
          2179.96010	                 nan
          2180.76640	                 nan
          2181.57270	                 nan
          2182.37900	                 nan
          2183.18530	                 nan
          2183.99160	                 nan
          2184.79790	                 nan
          2185.60420	                 nan
          2186.41050	                 nan
          2187.21680	                 nan
          2188.02310	                 nan
          2188.82940	                 nan
          2189.63570	                 nan
          2190.44200	                 nan
          2191.24830	                 nan
          2192.05460	                 nan
          2192.86090	                 nan
          2193.66720	                 nan
          2194.47350	                 nan
          2195.27980	                 nan
          2196.08610	                 nan
          2196.89240	                 nan
          2197.69870	                 nan
          2198.50500	                 nan
          2199.31130	                 nan
          2200.11760	                 nan
          2200.92390	                 nan
          2201.73020	                 nan
          2202.53650	                 nan
          2203.34280	                 nan
          2204.14910	                 nan
          2204.95540	                 nan
          2205.76170	                 nan
          2206.56800	                 nan
          2207.37430	                 nan
          2208.18060	                 nan
          2208.98690	                 nan
          2209.79320	                 nan
          2210.59950	                 nan
          2211.40580	                 nan
          2212.21210	                 nan
          2213.01840	                 nan
          2213.82470	                 nan
          2214.63100	                 nan
          2215.43730	         0.00000e+00
