#sample_255_stacked_spectrum_rest_UV-bands_median_H-alpha_noDC.txt
#median Lum: 1.67257e+42
#Rest-frame wavelength (A) | Luminosity (erg/s/A)
#
          1110.00000	         0.00000e+00
          1110.80630	         3.40932e+58
          1111.61260	        -1.86248e+59
          1112.41890	        -4.66033e+58
          1113.22520	        -1.65983e+59
          1114.03150	        -8.67325e+58
          1114.83780	         1.54264e+59
          1115.64410	         6.83055e+58
          1116.45040	         1.40587e+59
          1117.25670	         9.92932e+58
          1118.06300	         1.80521e+59
          1118.86930	        -9.83626e+58
          1119.67560	         4.69044e+58
          1120.48190	         2.42630e+58
          1121.28820	        -1.87928e+59
          1122.09450	        -5.93809e+58
          1122.90080	         9.17220e+58
          1123.70710	         1.01656e+59
          1124.51340	         4.49362e+58
          1125.31970	        -3.10168e+58
          1126.12600	        -1.28881e+58
          1126.93230	        -5.56363e+58
          1127.73860	        -5.22945e+58
          1128.54490	        -3.65123e+58
          1129.35120	         9.74456e+57
          1130.15750	        -6.58952e+58
          1130.96380	        -6.45237e+58
          1131.77010	         2.17548e+58
          1132.57640	         3.34742e+58
          1133.38270	         3.29601e+57
          1134.18900	         7.53617e+57
          1134.99530	        -8.77891e+57
          1135.80160	         2.82131e+58
          1136.60790	         1.53936e+58
          1137.41420	        -9.40141e+57
          1138.22050	         3.13634e+58
          1139.02680	         2.75821e+58
          1139.83310	         1.67035e+58
          1140.63940	         1.50079e+58
          1141.44570	        -1.85010e+58
          1142.25200	        -1.37106e+58
          1143.05830	         1.50930e+58
          1143.86460	         2.50823e+58
          1144.67090	         9.37856e+57
          1145.47720	         1.41216e+58
          1146.28350	         8.44523e+57
          1147.08980	        -9.19711e+56
          1147.89610	         3.13325e+57
          1148.70240	         2.98624e+58
          1149.50870	         3.10072e+58
          1150.31500	         9.00075e+57
          1151.12130	         6.56555e+57
          1151.92760	         1.58731e+57
          1152.73390	        -3.95563e+57
          1153.54020	        -1.91360e+57
          1154.34650	         1.73161e+58
          1155.15280	         1.94112e+58
          1155.95910	         1.32902e+58
          1156.76540	         7.72101e+57
          1157.57170	         1.32135e+57
          1158.37800	        -7.72316e+57
          1159.18430	        -4.40266e+57
          1159.99060	         1.26982e+57
          1160.79690	         5.29910e+57
          1161.60320	         7.61103e+57
          1162.40950	         1.10540e+58
          1163.21580	         1.46086e+58
          1164.02210	         1.50399e+58
          1164.82840	         1.22039e+58
          1165.63470	         2.05462e+58
          1166.44100	         2.24728e+58
          1167.24730	         8.20614e+57
          1168.05360	         7.94595e+57
          1168.85990	         6.33845e+57
          1169.66620	         7.92230e+57
          1170.47250	         1.39157e+58
          1171.27880	         1.08897e+58
          1172.08510	         1.58899e+58
          1172.89140	         8.25380e+57
          1173.69770	         6.89352e+57
          1174.50400	         1.08399e+58
          1175.31030	         1.27789e+58
          1176.11660	         1.62504e+58
          1176.92290	         1.57271e+58
          1177.72920	         1.12549e+58
          1178.53550	         3.17632e+57
          1179.34180	         1.94294e+57
          1180.14810	         8.17301e+57
          1180.95440	         7.51065e+57
          1181.76070	         5.28761e+57
          1182.56700	         7.15977e+57
          1183.37330	         4.34582e+57
          1184.17960	         1.05222e+58
          1184.98590	         9.10334e+57
          1185.79220	         6.27218e+57
          1186.59850	         7.22242e+57
          1187.40480	         9.26115e+57
          1188.21110	         1.48042e+58
          1189.01740	         1.03714e+58
          1189.82370	         6.73172e+57
          1190.63000	         9.42709e+57
          1191.43630	         1.45482e+58
          1192.24260	         1.01780e+58
          1193.04890	         1.00067e+58
          1193.85520	         9.56136e+57
          1194.66150	         2.21836e+57
          1195.46780	         6.53676e+57
          1196.27410	         1.41587e+58
          1197.08040	         9.93806e+57
          1197.88670	         1.02613e+58
          1198.69300	         1.44895e+58
          1199.49930	         1.76501e+58
          1200.30560	         1.27495e+58
          1201.11190	         1.15465e+58
          1201.91820	         1.31288e+58
          1202.72450	         1.27075e+58
          1203.53080	         1.24861e+58
          1204.33710	         9.11214e+57
          1205.14340	         9.18296e+57
          1205.94970	         1.16587e+58
          1206.75600	         7.88116e+57
          1207.56230	         3.48261e+57
          1208.36860	         8.71632e+57
          1209.17490	         2.63420e+57
          1209.98120	         5.43643e+57
          1210.78750	         8.28582e+57
          1211.59380	         1.56073e+58
          1212.40010	         1.93691e+58
          1213.20640	         2.21473e+58
          1214.01270	         2.13969e+58
          1214.81900	         2.48048e+58
          1215.62530	         4.19735e+58
          1216.43160	         8.82875e+58
          1217.23790	         1.51338e+59
          1218.04420	         1.17198e+59
          1218.85050	         8.99193e+58
          1219.65680	         5.90245e+58
          1220.46310	         3.24666e+58
          1221.26940	         2.17863e+58
          1222.07570	         1.24705e+58
          1222.88200	         1.25856e+58
          1223.68830	         9.31863e+57
          1224.49460	         5.27514e+57
          1225.30090	         5.47477e+57
          1226.10720	         7.01575e+57
          1226.91350	         7.58336e+57
          1227.71980	         1.12496e+58
          1228.52610	         1.33532e+58
          1229.33240	         1.03931e+58
          1230.13870	         6.82110e+57
          1230.94500	         8.76676e+57
          1231.75130	         8.31489e+57
          1232.55760	         1.09246e+58
          1233.36390	         1.01280e+58
          1234.17020	         1.09141e+58
          1234.97650	         8.50415e+57
          1235.78280	         6.40567e+57
          1236.58910	         7.67309e+57
          1237.39540	         1.14909e+58
          1238.20170	         1.17397e+58
          1239.00800	         1.31704e+58
          1239.81430	         1.50350e+58
          1240.62060	         7.23126e+57
          1241.42690	         6.75449e+57
          1242.23320	         9.57313e+57
          1243.03950	         7.90885e+57
          1243.84580	         1.03183e+58
          1244.65210	         1.07683e+58
          1245.45840	         8.26557e+57
          1246.26470	         7.56931e+57
          1247.07100	         8.20107e+57
          1247.87730	         5.51341e+57
          1248.68360	         5.21081e+57
          1249.48990	         1.02487e+58
          1250.29620	         9.44479e+57
          1251.10250	         6.74318e+57
          1251.90880	         5.27647e+57
          1252.71510	         5.77653e+57
          1253.52140	         8.23516e+57
          1254.32770	         1.13999e+58
          1255.13400	         1.48720e+58
          1255.94030	         1.14582e+58
          1256.74660	         1.07990e+58
          1257.55290	         1.06206e+58
          1258.35920	         9.20206e+57
          1259.16550	         7.38295e+57
          1259.97180	         5.25793e+57
          1260.77810	         8.11088e+57
          1261.58440	         1.06790e+58
          1262.39070	         8.01087e+57
          1263.19700	         8.76981e+57
          1264.00330	         1.04614e+58
          1264.80960	         1.18048e+58
          1265.61590	         1.27887e+58
          1266.42220	         1.15795e+58
          1267.22850	         1.04487e+58
          1268.03480	         1.35399e+58
          1268.84110	         1.31841e+58
          1269.64740	         1.40604e+58
          1270.45370	         1.60344e+58
          1271.26000	         1.27529e+58
          1272.06630	         1.28692e+58
          1272.87260	         1.24279e+58
          1273.67890	         1.12173e+58
          1274.48520	         1.31067e+58
          1275.29150	         1.31081e+58
          1276.09780	         1.15522e+58
          1276.90410	         1.58448e+58
          1277.71040	         1.31038e+58
          1278.51670	         9.72339e+57
          1279.32300	         1.04082e+58
          1280.12930	         1.21402e+58
          1280.93560	         1.35616e+58
          1281.74190	         1.27146e+58
          1282.54820	         1.30283e+58
          1283.35450	         1.05359e+58
          1284.16080	         1.11920e+58
          1284.96710	         1.30701e+58
          1285.77340	         1.01005e+58
          1286.57970	         1.06451e+58
          1287.38600	         1.58707e+58
          1288.19230	         1.79407e+58
          1288.99860	         1.58199e+58
          1289.80490	         1.06298e+58
          1290.61120	         1.22572e+58
          1291.41750	         1.54955e+58
          1292.22380	         1.31214e+58
          1293.03010	         1.16238e+58
          1293.83640	         1.24652e+58
          1294.64270	         1.01056e+58
          1295.44900	         6.78208e+57
          1296.25530	         7.96944e+57
          1297.06160	         1.12179e+58
          1297.86790	         1.14521e+58
          1298.67420	         8.68496e+57
          1299.48050	         9.14668e+57
          1300.28680	         1.04024e+58
          1301.09310	         8.54282e+57
          1301.89940	         4.54389e+57
          1302.70570	         5.57317e+57
          1303.51200	         7.08427e+57
          1304.31830	         9.71175e+57
          1305.12460	         1.27589e+58
          1305.93090	         1.15107e+58
          1306.73720	         1.23210e+58
          1307.54350	         1.45508e+58
          1308.34980	         1.47958e+58
          1309.15610	         1.58646e+58
          1309.96240	         1.59771e+58
          1310.76870	         1.43235e+58
          1311.57500	         1.23402e+58
          1312.38130	         1.26894e+58
          1313.18760	         1.46365e+58
          1313.99390	         1.58072e+58
          1314.80020	         1.46552e+58
          1315.60650	         1.54909e+58
          1316.41280	         1.47909e+58
          1317.21910	         1.23600e+58
          1318.02540	         1.15917e+58
          1318.83170	         1.21947e+58
          1319.63800	         1.22156e+58
          1320.44430	         1.25374e+58
          1321.25060	         1.19190e+58
          1322.05690	         1.17446e+58
          1322.86320	         1.25461e+58
          1323.66950	         1.10524e+58
          1324.47580	         9.38348e+57
          1325.28210	         9.94102e+57
          1326.08840	         1.12595e+58
          1326.89470	         1.25490e+58
          1327.70100	         1.07000e+58
          1328.50730	         8.67378e+57
          1329.31360	         8.86838e+57
          1330.11990	         9.13177e+57
          1330.92620	         9.12323e+57
          1331.73250	         1.08670e+58
          1332.53880	         1.12851e+58
          1333.34510	         9.98900e+57
          1334.15140	         9.64603e+57
          1334.95770	         8.65451e+57
          1335.76400	         8.99421e+57
          1336.57030	         1.04960e+58
          1337.37660	         9.98514e+57
          1338.18290	         8.91559e+57
          1338.98920	         1.00266e+58
          1339.79550	         1.15846e+58
          1340.60180	         1.31899e+58
          1341.40810	         1.35119e+58
          1342.21440	         1.14125e+58
          1343.02070	         1.32304e+58
          1343.82700	         1.43726e+58
          1344.63330	         1.29222e+58
          1345.43960	         1.25325e+58
          1346.24590	         1.12438e+58
          1347.05220	         1.17526e+58
          1347.85850	         1.16477e+58
          1348.66480	         1.16009e+58
          1349.47110	         1.26523e+58
          1350.27740	         1.22298e+58
          1351.08370	         1.27063e+58
          1351.89000	         1.18262e+58
          1352.69630	         1.08816e+58
          1353.50260	         9.91575e+57
          1354.30890	         1.02261e+58
          1355.11520	         1.22292e+58
          1355.92150	         1.20629e+58
          1356.72780	         1.08797e+58
          1357.53410	         1.13617e+58
          1358.34040	         1.19152e+58
          1359.14670	         1.06791e+58
          1359.95300	         1.22945e+58
          1360.75930	         1.14712e+58
          1361.56560	         9.79227e+57
          1362.37190	         1.13085e+58
          1363.17820	         1.15966e+58
          1363.98450	         1.17535e+58
          1364.79080	         1.19798e+58
          1365.59710	         1.33821e+58
          1366.40340	         1.25175e+58
          1367.20970	         8.48190e+57
          1368.01600	         8.38411e+57
          1368.82230	         1.06180e+58
          1369.62860	         1.07925e+58
          1370.43490	         9.43516e+57
          1371.24120	         9.06209e+57
          1372.04750	         9.28049e+57
          1372.85380	         1.04237e+58
          1373.66010	         9.83701e+57
          1374.46640	         9.78196e+57
          1375.27270	         1.03016e+58
          1376.07900	         8.57079e+57
          1376.88530	         9.60741e+57
          1377.69160	         9.88120e+57
          1378.49790	         7.43830e+57
          1379.30420	         7.50246e+57
          1380.11050	         9.40562e+57
          1380.91680	         7.93595e+57
          1381.72310	         8.28388e+57
          1382.52940	         8.60353e+57
          1383.33570	         7.10528e+57
          1384.14200	         9.97451e+57
          1384.94830	         1.17183e+58
          1385.75460	         1.06800e+58
          1386.56090	         1.15290e+58
          1387.36720	         1.11655e+58
          1388.17350	         1.31132e+58
          1388.97980	         1.25661e+58
          1389.78610	         9.86764e+57
          1390.59240	         9.27571e+57
          1391.39870	         6.82853e+57
          1392.20500	         7.70998e+57
          1393.01130	         7.40930e+57
          1393.81760	         7.88685e+57
          1394.62390	         9.55754e+57
          1395.43020	         8.21344e+57
          1396.23650	         6.70119e+57
          1397.04280	         7.74383e+57
          1397.84910	         8.58761e+57
          1398.65540	         8.40923e+57
          1399.46170	         9.10694e+57
          1400.26800	         8.82751e+57
          1401.07430	         8.08108e+57
          1401.88060	         7.98293e+57
          1402.68690	         9.94269e+57
          1403.49320	         9.84197e+57
          1404.29950	         9.44017e+57
          1405.10580	         1.01733e+58
          1405.91210	         1.02390e+58
          1406.71840	         1.07542e+58
          1407.52470	         9.52268e+57
          1408.33100	         9.72234e+57
          1409.13730	         1.20197e+58
          1409.94360	         1.13130e+58
          1410.74990	         1.11925e+58
          1411.55620	         1.03652e+58
          1412.36250	         9.93182e+57
          1413.16880	         8.76860e+57
          1413.97510	         7.25247e+57
          1414.78140	         8.16916e+57
          1415.58770	         1.06229e+58
          1416.39400	         1.14102e+58
          1417.20030	         1.14808e+58
          1418.00660	         9.17825e+57
          1418.81290	         9.56625e+57
          1419.61920	         1.07147e+58
          1420.42550	         1.25399e+58
          1421.23180	         1.44271e+58
          1422.03810	         1.33333e+58
          1422.84440	         1.17632e+58
          1423.65070	         1.15676e+58
          1424.45700	         1.07995e+58
          1425.26330	         9.82574e+57
          1426.06960	         9.43394e+57
          1426.87590	         1.12753e+58
          1427.68220	         1.06498e+58
          1428.48850	         1.03240e+58
          1429.29480	         9.95065e+57
          1430.10110	         9.08688e+57
          1430.90740	         7.78767e+57
          1431.71370	         8.89802e+57
          1432.52000	         8.21400e+57
          1433.32630	         8.05976e+57
          1434.13260	         9.58478e+57
          1434.93890	         9.23630e+57
          1435.74520	         9.06260e+57
          1436.55150	         9.94866e+57
          1437.35780	         9.52087e+57
          1438.16410	         9.10407e+57
          1438.97040	         8.39505e+57
          1439.77670	         8.62567e+57
          1440.58300	         9.21009e+57
          1441.38930	         9.81585e+57
          1442.19560	         9.44461e+57
          1443.00190	         9.75809e+57
          1443.80820	         1.18483e+58
          1444.61450	         1.07241e+58
          1445.42080	         8.87512e+57
          1446.22710	         1.05767e+58
          1447.03340	         1.06149e+58
          1447.83970	         1.05506e+58
          1448.64600	         1.02443e+58
          1449.45230	         9.51787e+57
          1450.25860	         9.29132e+57
          1451.06490	         8.31289e+57
          1451.87120	         7.98115e+57
          1452.67750	         7.48241e+57
          1453.48380	         8.40002e+57
          1454.29010	         8.51518e+57
          1455.09640	         7.65638e+57
          1455.90270	         8.17407e+57
          1456.70900	         7.76976e+57
          1457.51530	         8.53636e+57
          1458.32160	         1.16824e+58
          1459.12790	         1.11405e+58
          1459.93420	         9.86744e+57
          1460.74050	         8.31636e+57
          1461.54680	         8.98428e+57
          1462.35310	         8.74933e+57
          1463.15940	         9.37065e+57
          1463.96570	         1.01590e+58
          1464.77200	         1.01837e+58
          1465.57830	         9.82980e+57
          1466.38460	         9.27661e+57
          1467.19090	         9.28854e+57
          1467.99720	         9.40542e+57
          1468.80350	         9.59852e+57
          1469.60980	         9.86606e+57
          1470.41610	         1.09319e+58
          1471.22240	         1.05744e+58
          1472.02870	         9.65313e+57
          1472.83500	         9.31623e+57
          1473.64130	         1.00490e+58
          1474.44760	         9.73263e+57
          1475.25390	         9.15274e+57
          1476.06020	         9.74014e+57
          1476.86650	         9.07078e+57
          1477.67280	         7.69357e+57
          1478.47910	         6.74003e+57
          1479.28540	         7.15438e+57
          1480.09170	         8.38053e+57
          1480.89800	         8.45521e+57
          1481.70430	         8.70779e+57
          1482.51060	         9.10381e+57
          1483.31690	         8.30179e+57
          1484.12320	         7.52420e+57
          1484.92950	         7.52064e+57
          1485.73580	         8.16765e+57
          1486.54210	         8.58559e+57
          1487.34840	         9.07362e+57
          1488.15470	         8.71470e+57
          1488.96100	         8.85091e+57
          1489.76730	         9.00043e+57
          1490.57360	         7.90752e+57
          1491.37990	         7.86304e+57
          1492.18620	         9.10069e+57
          1492.99250	         8.45600e+57
          1493.79880	         8.52470e+57
          1494.60510	         7.84818e+57
          1495.41140	         6.13455e+57
          1496.21770	         8.37998e+57
          1497.02400	         1.08458e+58
          1497.83030	         9.11191e+57
          1498.63660	         8.49694e+57
          1499.44290	         8.14850e+57
          1500.24920	         7.49839e+57
          1501.05550	         8.93150e+57
          1501.86180	         8.76851e+57
          1502.66810	         9.27818e+57
          1503.47440	         9.02261e+57
          1504.28070	         8.43552e+57
          1505.08700	         9.12793e+57
          1505.89330	         9.02728e+57
          1506.69960	         8.08030e+57
          1507.50590	         8.17984e+57
          1508.31220	         8.54925e+57
          1509.11850	         8.86436e+57
          1509.92480	         9.35518e+57
          1510.73110	         9.44050e+57
          1511.53740	         8.13682e+57
          1512.34370	         8.02551e+57
          1513.15000	         9.53446e+57
          1513.95630	         1.02998e+58
          1514.76260	         8.92813e+57
          1515.56890	         8.58496e+57
          1516.37520	         8.98156e+57
          1517.18150	         8.25482e+57
          1517.98780	         7.57867e+57
          1518.79410	         7.11205e+57
          1519.60040	         7.76659e+57
          1520.40670	         9.74299e+57
          1521.21300	         1.04604e+58
          1522.01930	         8.72874e+57
          1522.82560	         8.27411e+57
          1523.63190	         9.55922e+57
          1524.43820	         8.29121e+57
          1525.24450	         5.99097e+57
          1526.05080	         5.78273e+57
          1526.85710	         5.82531e+57
          1527.66340	         6.32188e+57
          1528.46970	         7.68802e+57
          1529.27600	         7.54220e+57
          1530.08230	         7.48553e+57
          1530.88860	         8.14767e+57
          1531.69490	         7.55347e+57
          1532.50120	         8.12080e+57
          1533.30750	         9.24197e+57
          1534.11380	         9.15608e+57
          1534.92010	         9.17261e+57
          1535.72640	         9.37297e+57
          1536.53270	         9.31471e+57
          1537.33900	         8.35327e+57
          1538.14530	         8.92086e+57
          1538.95160	         9.43879e+57
          1539.75790	         9.32305e+57
          1540.56420	         8.86260e+57
          1541.37050	         7.53853e+57
          1542.17680	         7.65633e+57
          1542.98310	         7.18822e+57
          1543.78940	         6.95252e+57
          1544.59570	         6.04307e+57
          1545.40200	         6.86741e+57
          1546.20830	         9.68655e+57
          1547.01460	         1.18099e+58
          1547.82090	         1.14349e+58
          1548.62720	         1.17652e+58
          1549.43350	         1.15763e+58
          1550.23980	         1.12739e+58
          1551.04610	         1.21546e+58
          1551.85240	         1.26339e+58
          1552.65870	         1.23832e+58
          1553.46500	         1.02390e+58
          1554.27130	         9.48264e+57
          1555.07760	         9.92659e+57
          1555.88390	         8.44707e+57
          1556.69020	         7.96026e+57
          1557.49650	         8.45262e+57
          1558.30280	         8.08897e+57
          1559.10910	         7.96634e+57
          1559.91540	         8.37544e+57
          1560.72170	         7.98250e+57
          1561.52800	         7.56316e+57
          1562.33430	         8.58015e+57
          1563.14060	         7.96364e+57
          1563.94690	         7.45561e+57
          1564.75320	         7.63212e+57
          1565.55950	         7.23813e+57
          1566.36580	         8.06543e+57
          1567.17210	         9.51598e+57
          1567.97840	         9.19012e+57
          1568.78470	         8.15411e+57
          1569.59100	         7.88560e+57
          1570.39730	         8.09767e+57
          1571.20360	         7.97128e+57
          1572.00990	         8.12061e+57
          1572.81620	         8.80842e+57
          1573.62250	         1.01027e+58
          1574.42880	         9.70662e+57
          1575.23510	         7.95704e+57
          1576.04140	         8.99160e+57
          1576.84770	         9.73668e+57
          1577.65400	         9.31652e+57
          1578.46030	         9.88185e+57
          1579.26660	         1.05332e+58
          1580.07290	         9.00088e+57
          1580.87920	         7.26140e+57
          1581.68550	         7.70837e+57
          1582.49180	         8.72537e+57
          1583.29810	         8.09093e+57
          1584.10440	         8.74110e+57
          1584.91070	         9.23611e+57
          1585.71700	         9.26003e+57
          1586.52330	         9.26213e+57
          1587.32960	         8.78287e+57
          1588.13590	         8.36097e+57
          1588.94220	         8.18501e+57
          1589.74850	         8.21813e+57
          1590.55480	         8.84878e+57
          1591.36110	         8.56741e+57
          1592.16740	         8.73696e+57
          1592.97370	         7.71445e+57
          1593.78000	         7.35420e+57
          1594.58630	         8.14037e+57
          1595.39260	         8.31008e+57
          1596.19890	         8.41733e+57
          1597.00520	         9.46467e+57
          1597.81150	         8.71707e+57
          1598.61780	         7.38868e+57
          1599.42410	         6.62545e+57
          1600.23040	         6.21035e+57
          1601.03670	         7.88846e+57
          1601.84300	         7.76692e+57
          1602.64930	         8.39635e+57
          1603.45560	         9.57462e+57
          1604.26190	         8.39871e+57
          1605.06820	         7.74813e+57
          1605.87450	         7.48900e+57
          1606.68080	         7.45610e+57
          1607.48710	         6.72870e+57
          1608.29340	         5.72339e+57
          1609.09970	         6.38509e+57
          1609.90600	         6.91978e+57
          1610.71230	         6.10186e+57
          1611.51860	         7.28423e+57
          1612.32490	         7.50049e+57
          1613.13120	         7.64615e+57
          1613.93750	         8.38331e+57
          1614.74380	         8.70022e+57
          1615.55010	         8.68729e+57
          1616.35640	         9.52024e+57
          1617.16270	         1.01527e+58
          1617.96900	         9.99490e+57
          1618.77530	         8.76265e+57
          1619.58160	         9.09881e+57
          1620.38790	         8.78862e+57
          1621.19420	         7.94320e+57
          1622.00050	         7.34693e+57
          1622.80680	         7.92559e+57
          1623.61310	         8.96738e+57
          1624.41940	         9.22801e+57
          1625.22570	         1.00053e+58
          1626.03200	         9.48208e+57
          1626.83830	         8.62702e+57
          1627.64460	         7.03323e+57
          1628.45090	         6.27240e+57
          1629.25720	         8.18293e+57
          1630.06350	         8.65815e+57
          1630.86980	         5.80108e+57
          1631.67610	         6.97413e+57
          1632.48240	         7.71339e+57
          1633.28870	         7.61818e+57
          1634.09500	         8.50546e+57
          1634.90130	         1.05335e+58
          1635.70760	         9.17485e+57
          1636.51390	         7.78831e+57
          1637.32020	         7.38164e+57
          1638.12650	         9.14730e+57
          1638.93280	         9.72170e+57
          1639.73910	         1.06167e+58
          1640.54540	         1.10998e+58
          1641.35170	         9.62642e+57
          1642.15800	         9.70974e+57
          1642.96430	         1.00899e+58
          1643.77060	         8.17386e+57
          1644.57690	         7.68883e+57
          1645.38320	         8.86240e+57
          1646.18950	         6.69447e+57
          1646.99580	         7.84973e+57
          1647.80210	         8.35601e+57
          1648.60840	         7.99401e+57
          1649.41470	         8.59371e+57
          1650.22100	         6.87631e+57
          1651.02730	         6.76133e+57
          1651.83360	         7.52182e+57
          1652.63990	         8.18567e+57
          1653.44620	         9.38813e+57
          1654.25250	         8.88611e+57
          1655.05880	         7.16433e+57
          1655.86510	         8.27470e+57
          1656.67140	         8.72419e+57
          1657.47770	         7.49598e+57
          1658.28400	         8.26775e+57
          1659.09030	         9.36456e+57
          1659.89660	         9.16398e+57
          1660.70290	         9.23911e+57
          1661.50920	         9.31121e+57
          1662.31550	         8.32096e+57
          1663.12180	         8.66299e+57
          1663.92810	         1.01248e+58
          1664.73440	         1.09300e+58
          1665.54070	         1.13787e+58
          1666.34700	         1.16202e+58
          1667.15330	         1.14890e+58
          1667.95960	         8.96980e+57
          1668.76590	         7.39795e+57
          1669.57220	         7.27913e+57
          1670.37850	         6.69423e+57
          1671.18480	         6.97253e+57
          1671.99110	         7.03691e+57
          1672.79740	         5.99613e+57
          1673.60370	         6.26271e+57
          1674.41000	         6.74495e+57
          1675.21630	         6.76728e+57
          1676.02260	         6.55697e+57
          1676.82890	         6.76726e+57
          1677.63520	         7.03604e+57
          1678.44150	         7.43586e+57
          1679.24780	         9.30446e+57
          1680.05410	         7.77085e+57
          1680.86040	         5.72494e+57
          1681.66670	         7.40310e+57
          1682.47300	         9.18706e+57
          1683.27930	         8.72817e+57
          1684.08560	         8.50987e+57
          1684.89190	         7.40331e+57
          1685.69820	         5.81930e+57
          1686.50450	         5.61885e+57
          1687.31080	         6.76408e+57
          1688.11710	         7.31834e+57
          1688.92340	         6.72060e+57
          1689.72970	         6.47711e+57
          1690.53600	         6.70928e+57
          1691.34230	         6.80433e+57
          1692.14860	         8.29852e+57
          1692.95490	         8.56105e+57
          1693.76120	         7.69456e+57
          1694.56750	         7.32204e+57
          1695.37380	         9.31325e+57
          1696.18010	         8.64195e+57
          1696.98640	         7.21704e+57
          1697.79270	         7.30288e+57
          1698.59900	         7.36931e+57
          1699.40530	         7.50290e+57
          1700.21160	         8.92910e+57
          1701.01790	         9.87890e+57
          1701.82420	         7.33957e+57
          1702.63050	         7.71904e+57
          1703.43680	         8.62218e+57
          1704.24310	         7.98993e+57
          1705.04940	         7.32277e+57
          1705.85570	         7.87689e+57
          1706.66200	         9.41465e+57
          1707.46830	         8.52562e+57
          1708.27460	         7.52252e+57
          1709.08090	         6.69958e+57
          1709.88720	         6.27291e+57
          1710.69350	         6.88841e+57
          1711.49980	         7.36788e+57
          1712.30610	         7.39429e+57
          1713.11240	         8.97886e+57
          1713.91870	         8.79298e+57
          1714.72500	         7.37102e+57
          1715.53130	         7.70087e+57
          1716.33760	         7.57525e+57
          1717.14390	         7.03130e+57
          1717.95020	         7.50753e+57
          1718.75650	         8.57791e+57
          1719.56280	         7.97202e+57
          1720.36910	         6.64575e+57
          1721.17540	         7.91777e+57
          1721.98170	         6.24068e+57
          1722.78800	         5.78192e+57
          1723.59430	         7.13052e+57
          1724.40060	         8.06389e+57
          1725.20690	         7.54321e+57
          1726.01320	         7.23719e+57
          1726.81950	         7.46080e+57
          1727.62580	         7.40502e+57
          1728.43210	         6.60427e+57
          1729.23840	         7.52132e+57
          1730.04470	         7.70203e+57
          1730.85100	         8.10911e+57
          1731.65730	         7.67722e+57
          1732.46360	         7.51084e+57
          1733.26990	         7.74920e+57
          1734.07620	         6.99135e+57
          1734.88250	         7.15396e+57
          1735.68880	         7.71609e+57
          1736.49510	         8.43958e+57
          1737.30140	         7.86463e+57
          1738.10770	         6.71512e+57
          1738.91400	         7.26941e+57
          1739.72030	         6.58359e+57
          1740.52660	         6.39832e+57
          1741.33290	         6.16619e+57
          1742.13920	         6.44891e+57
          1742.94550	         7.43447e+57
          1743.75180	         7.34060e+57
          1744.55810	         6.91268e+57
          1745.36440	         6.55606e+57
          1746.17070	         5.32670e+57
          1746.97700	         5.46743e+57
          1747.78330	         6.73082e+57
          1748.58960	         7.40664e+57
          1749.39590	         6.33898e+57
          1750.20220	         6.86075e+57
          1751.00850	         5.70993e+57
          1751.81480	         5.78285e+57
          1752.62110	         6.81926e+57
          1753.42740	         7.96754e+57
          1754.23370	         8.24019e+57
          1755.04000	         8.56272e+57
          1755.84630	         7.30819e+57
          1756.65260	         8.03960e+57
          1757.45890	         9.10859e+57
          1758.26520	         7.89746e+57
          1759.07150	         8.91006e+57
          1759.87780	         8.15226e+57
          1760.68410	         7.73645e+57
          1761.49040	         8.24153e+57
          1762.29670	         6.97517e+57
          1763.10300	         6.93124e+57
          1763.90930	         7.53255e+57
          1764.71560	         8.15895e+57
          1765.52190	         7.89796e+57
          1766.32820	         8.44697e+57
          1767.13450	         8.58905e+57
          1767.94080	         6.64113e+57
          1768.74710	         7.32252e+57
          1769.55340	         6.57527e+57
          1770.35970	         6.48236e+57
          1771.16600	         7.81702e+57
          1771.97230	         7.68751e+57
          1772.77860	         7.36840e+57
          1773.58490	         6.51128e+57
          1774.39120	         5.41119e+57
          1775.19750	         4.75687e+57
          1776.00380	         5.51219e+57
          1776.81010	         6.04673e+57
          1777.61640	         6.64241e+57
          1778.42270	         7.27960e+57
          1779.22900	         7.47553e+57
          1780.03530	         7.65160e+57
          1780.84160	         7.45165e+57
          1781.64790	         8.17841e+57
          1782.45420	         7.87557e+57
          1783.26050	         6.97228e+57
          1784.06680	         6.27870e+57
          1784.87310	         6.90537e+57
          1785.67940	         6.39922e+57
          1786.48570	         6.50708e+57
          1787.29200	         6.33536e+57
          1788.09830	         5.62604e+57
          1788.90460	         5.46684e+57
          1789.71090	         6.38529e+57
          1790.51720	         6.24960e+57
          1791.32350	         6.83929e+57
          1792.12980	         8.62776e+57
          1792.93610	         8.60638e+57
          1793.74240	         8.19567e+57
          1794.54870	         8.92740e+57
          1795.35500	         7.79682e+57
          1796.16130	         7.08089e+57
          1796.96760	         6.85299e+57
          1797.77390	         6.89964e+57
          1798.58020	         6.98787e+57
          1799.38650	         7.80395e+57
          1800.19280	         7.86414e+57
          1800.99910	         7.59497e+57
          1801.80540	         7.33183e+57
          1802.61170	         9.42942e+57
          1803.41800	         8.43334e+57
          1804.22430	         7.38370e+57
          1805.03060	         7.03288e+57
          1805.83690	         7.62619e+57
          1806.64320	         7.02834e+57
          1807.44950	         7.60895e+57
          1808.25580	         7.29469e+57
          1809.06210	         7.35488e+57
          1809.86840	         7.07508e+57
          1810.67470	         7.41889e+57
          1811.48100	         8.02209e+57
          1812.28730	         7.35020e+57
          1813.09360	         7.80535e+57
          1813.89990	         8.71788e+57
          1814.70620	         7.32702e+57
          1815.51250	         8.61990e+57
          1816.31880	         8.13307e+57
          1817.12510	         7.33392e+57
          1817.93140	         7.12151e+57
          1818.73770	         6.87483e+57
          1819.54400	         8.42781e+57
          1820.35030	         7.83466e+57
          1821.15660	         6.32350e+57
          1821.96290	         6.71671e+57
          1822.76920	         7.18909e+57
          1823.57550	         7.81297e+57
          1824.38180	         7.77829e+57
          1825.18810	         7.69111e+57
          1825.99440	         7.88938e+57
          1826.80070	         7.11335e+57
          1827.60700	         6.36013e+57
          1828.41330	         5.99561e+57
          1829.21960	         6.60290e+57
          1830.02590	         7.50709e+57
          1830.83220	         7.83686e+57
          1831.63850	         7.06322e+57
          1832.44480	         6.21062e+57
          1833.25110	         7.78575e+57
          1834.05740	         8.22180e+57
          1834.86370	         7.45371e+57
          1835.67000	         6.25600e+57
          1836.47630	         7.82660e+57
          1837.28260	         9.60556e+57
          1838.08890	         9.04293e+57
          1838.89520	         8.35107e+57
          1839.70150	         8.17423e+57
          1840.50780	         7.64741e+57
          1841.31410	         6.95544e+57
          1842.12040	         6.93757e+57
          1842.92670	         7.46055e+57
          1843.73300	         7.11048e+57
          1844.53930	         7.27096e+57
          1845.34560	         6.69315e+57
          1846.15190	         6.94947e+57
          1846.95820	         7.31433e+57
          1847.76450	         6.68273e+57
          1848.57080	         5.54312e+57
          1849.37710	         5.64901e+57
          1850.18340	         5.85005e+57
          1850.98970	         7.24094e+57
          1851.79600	         8.44586e+57
          1852.60230	         7.12266e+57
          1853.40860	         7.23439e+57
          1854.21490	         7.74656e+57
          1855.02120	         6.82762e+57
          1855.82750	         4.30323e+57
          1856.63380	         5.24446e+57
          1857.44010	         6.90451e+57
          1858.24640	         7.96352e+57
          1859.05270	         6.46148e+57
          1859.85900	         5.16882e+57
          1860.66530	         6.03652e+57
          1861.47160	         6.34610e+57
          1862.27790	         6.17840e+57
          1863.08420	         7.48084e+57
          1863.89050	         7.82803e+57
          1864.69680	         7.31851e+57
          1865.50310	         7.80408e+57
          1866.30940	         6.73778e+57
          1867.11570	         5.29781e+57
          1867.92200	         6.47271e+57
          1868.72830	         7.70180e+57
          1869.53460	         7.31074e+57
          1870.34090	         7.91038e+57
          1871.14720	         8.48550e+57
          1871.95350	         7.88821e+57
          1872.75980	         7.10559e+57
          1873.56610	         6.58833e+57
          1874.37240	         5.67889e+57
          1875.17870	         6.23973e+57
          1875.98500	         7.91976e+57
          1876.79130	         7.35342e+57
          1877.59760	         7.12056e+57
          1878.40390	         6.81015e+57
          1879.21020	         6.13837e+57
          1880.01650	         7.47562e+57
          1880.82280	         8.97825e+57
          1881.62910	         9.59351e+57
          1882.43540	         9.69636e+57
          1883.24170	         8.74992e+57
          1884.04800	         8.21925e+57
          1884.85430	         7.97795e+57
          1885.66060	         8.28955e+57
          1886.46690	         8.52637e+57
          1887.27320	         7.79787e+57
          1888.07950	         6.54677e+57
          1888.88580	         6.40809e+57
          1889.69210	         8.88186e+57
          1890.49840	         8.66105e+57
          1891.30470	         8.03405e+57
          1892.11100	         8.22043e+57
          1892.91730	         6.93510e+57
          1893.72360	         6.87264e+57
          1894.52990	         7.41558e+57
          1895.33620	         8.58701e+57
          1896.14250	         6.98655e+57
          1896.94880	         6.42820e+57
          1897.75510	         6.11289e+57
          1898.56140	         6.32063e+57
          1899.36770	         8.53458e+57
          1900.17400	         7.41456e+57
          1900.98030	         6.83358e+57
          1901.78660	         7.93457e+57
          1902.59290	         7.41990e+57
          1903.39920	         8.96678e+57
          1904.20550	         9.58826e+57
          1905.01180	         8.82523e+57
          1905.81810	         1.02340e+58
          1906.62440	         1.20143e+58
          1907.43070	         1.50880e+58
          1908.23700	         1.61704e+58
          1909.04330	         1.35726e+58
          1909.84960	         1.10270e+58
          1910.65590	         1.05940e+58
          1911.46220	         1.06961e+58
          1912.26850	         7.92474e+57
          1913.07480	         5.49525e+57
          1913.88110	         5.73375e+57
          1914.68740	         6.48169e+57
          1915.49370	         6.52499e+57
          1916.30000	         6.35059e+57
          1917.10630	         7.21340e+57
          1917.91260	         6.68127e+57
          1918.71890	         6.64759e+57
          1919.52520	         6.22735e+57
          1920.33150	         5.01758e+57
          1921.13780	         6.37588e+57
          1921.94410	         7.43398e+57
          1922.75040	         7.44752e+57
          1923.55670	         7.74290e+57
          1924.36300	         7.85907e+57
          1925.16930	         4.77071e+57
          1925.97560	         5.06156e+57
          1926.78190	         4.81390e+57
          1927.58820	         5.25910e+57
          1928.39450	         6.43625e+57
          1929.20080	         6.00578e+57
          1930.00710	         6.50399e+57
          1930.81340	         7.92725e+57
          1931.61970	         6.63472e+57
          1932.42600	         7.22235e+57
          1933.23230	         7.92173e+57
          1934.03860	         6.74716e+57
          1934.84490	         6.15780e+57
          1935.65120	         6.57885e+57
          1936.45750	         7.49842e+57
          1937.26380	         7.29671e+57
          1938.07010	         7.15269e+57
          1938.87640	         6.70767e+57
          1939.68270	         6.81000e+57
          1940.48900	         8.16708e+57
          1941.29530	         7.70722e+57
          1942.10160	         7.18767e+57
          1942.90790	         6.67142e+57
          1943.71420	         7.03042e+57
          1944.52050	         6.78721e+57
          1945.32680	         5.85556e+57
          1946.13310	         6.49243e+57
          1946.93940	         7.48712e+57
          1947.74570	         7.84629e+57
          1948.55200	         6.48053e+57
          1949.35830	         6.30881e+57
          1950.16460	         5.95334e+57
          1950.97090	         6.37072e+57
          1951.77720	         7.04591e+57
          1952.58350	         7.25608e+57
          1953.38980	         6.06907e+57
          1954.19610	         4.96778e+57
          1955.00240	         5.49361e+57
          1955.80870	         5.55030e+57
          1956.61500	         5.91401e+57
          1957.42130	         5.60096e+57
          1958.22760	         7.37569e+57
          1959.03390	         7.70285e+57
          1959.84020	         7.49905e+57
          1960.64650	         6.21551e+57
          1961.45280	         5.19592e+57
          1962.25910	         5.85483e+57
          1963.06540	         6.52594e+57
          1963.87170	         6.05415e+57
          1964.67800	         6.85681e+57
          1965.48430	         6.06233e+57
          1966.29060	         5.75798e+57
          1967.09690	         7.12446e+57
          1967.90320	         6.75979e+57
          1968.70950	         6.55266e+57
          1969.51580	         7.21046e+57
          1970.32210	         7.72422e+57
          1971.12840	         6.93347e+57
          1971.93470	         4.32105e+57
          1972.74100	         4.61285e+57
          1973.54730	         6.85914e+57
          1974.35360	         6.73867e+57
          1975.15990	         7.18477e+57
          1975.96620	         7.23806e+57
          1976.77250	         7.83460e+57
          1977.57880	         7.83797e+57
          1978.38510	         6.43216e+57
          1979.19140	         6.59012e+57
          1979.99770	         7.86251e+57
          1980.80400	         7.73408e+57
          1981.61030	         6.49861e+57
          1982.41660	         6.52590e+57
          1983.22290	         6.39271e+57
          1984.02920	         6.16767e+57
          1984.83550	         5.91230e+57
          1985.64180	         5.46315e+57
          1986.44810	         6.08735e+57
          1987.25440	         5.75510e+57
          1988.06070	         6.24305e+57
          1988.86700	         5.60362e+57
          1989.67330	         6.54301e+57
          1990.47960	         6.86443e+57
          1991.28590	         6.66344e+57
          1992.09220	         6.53726e+57
          1992.89850	         5.72289e+57
          1993.70480	         5.57245e+57
          1994.51110	         5.21748e+57
          1995.31740	         4.45389e+57
          1996.12370	         4.30988e+57
          1996.93000	         5.83215e+57
          1997.73630	         7.46105e+57
          1998.54260	         7.69736e+57
          1999.34890	         6.32001e+57
          2000.15520	         5.82098e+57
          2000.96150	         7.01151e+57
          2001.76780	         5.55243e+57
          2002.57410	         5.19287e+57
          2003.38040	         6.26602e+57
          2004.18670	         6.20224e+57
          2004.99300	         5.79360e+57
          2005.79930	         7.22407e+57
          2006.60560	         7.22138e+57
          2007.41190	         5.92825e+57
          2008.21820	         5.84359e+57
          2009.02450	         6.74956e+57
          2009.83080	         5.49208e+57
          2010.63710	         5.96878e+57
          2011.44340	         6.81987e+57
          2012.24970	         7.51873e+57
          2013.05600	         7.16475e+57
          2013.86230	         7.24156e+57
          2014.66860	         4.76735e+57
          2015.47490	         6.33656e+57
          2016.28120	         6.66254e+57
          2017.08750	         6.13168e+57
          2017.89380	         7.18160e+57
          2018.70010	         5.87758e+57
          2019.50640	         4.80394e+57
          2020.31270	         5.11516e+57
          2021.11900	         7.06499e+57
          2021.92530	         6.95064e+57
          2022.73160	         7.06021e+57
          2023.53790	         7.60823e+57
          2024.34420	         6.61726e+57
          2025.15050	         4.86132e+57
          2025.95680	         4.14802e+57
          2026.76310	         6.32820e+57
          2027.56940	         6.12015e+57
          2028.37570	         6.56047e+57
          2029.18200	         5.82051e+57
          2029.98830	         5.21952e+57
          2030.79460	         5.02827e+57
          2031.60090	         5.59549e+57
          2032.40720	         5.80380e+57
          2033.21350	         5.95481e+57
          2034.01980	         6.57794e+57
          2034.82610	         4.51600e+57
          2035.63240	         6.29889e+57
          2036.43870	         5.99810e+57
          2037.24500	         5.65200e+57
          2038.05130	         7.14502e+57
          2038.85760	         6.08965e+57
          2039.66390	         5.48697e+57
          2040.47020	         4.77277e+57
          2041.27650	         5.50763e+57
          2042.08280	         5.61461e+57
          2042.88910	         6.31525e+57
          2043.69540	         7.60414e+57
          2044.50170	         6.38802e+57
          2045.30800	         5.10152e+57
          2046.11430	         3.98017e+57
          2046.92060	         5.81634e+57
          2047.72690	         6.49044e+57
          2048.53320	         5.31441e+57
          2049.33950	         3.60802e+57
          2050.14580	         4.68803e+57
          2050.95210	         6.21850e+57
          2051.75840	         7.89735e+57
          2052.56470	         6.32033e+57
          2053.37100	         4.75161e+57
          2054.17730	         5.10512e+57
          2054.98360	         6.50115e+57
          2055.78990	         4.54036e+57
          2056.59620	         1.86779e+57
          2057.40250	         5.38420e+57
          2058.20880	         6.42726e+57
          2059.01510	         5.69759e+57
          2059.82140	         6.84461e+57
          2060.62770	         1.07087e+58
          2061.43400	         1.30592e+58
          2062.24030	         9.09189e+57
          2063.04660	         2.45691e+57
          2063.85290	         2.06127e+57
          2064.65920	        -6.13068e+56
          2065.46550	        -9.02523e+57
          2066.27180	        -7.65480e+57
          2067.07810	         2.48654e+57
          2067.88440	         5.42841e+57
          2068.69070	         6.21630e+57
          2069.49700	         5.58900e+57
          2070.30330	         3.67226e+57
          2071.10960	         6.31226e+57
          2071.91590	         6.79171e+57
          2072.72220	         3.93342e+57
          2073.52850	         5.40915e+57
          2074.33480	         5.47572e+57
          2075.14110	         4.61110e+57
          2075.94740	         4.59184e+57
          2076.75370	         6.24414e+57
          2077.56000	         4.96295e+57
          2078.36630	         5.94934e+57
          2079.17260	         5.66511e+57
          2079.97890	         5.56443e+57
          2080.78520	         5.96239e+57
          2081.59150	         5.66415e+57
          2082.39780	         4.47228e+57
          2083.20410	         2.59752e+57
          2084.01040	         2.29137e+57
          2084.81670	         2.98698e+57
          2085.62300	         3.38216e+57
          2086.42930	         4.94155e+57
          2087.23560	         3.11435e+57
          2088.04190	         2.02597e+57
          2088.84820	         3.71643e+57
          2089.65450	         1.72804e+57
          2090.46080	         4.63727e+55
          2091.26710	         1.52390e+57
          2092.07340	         3.02761e+57
          2092.87970	         2.18581e+57
          2093.68600	        -1.26753e+57
          2094.49230	        -3.68369e+55
          2095.29860	         4.49413e+57
          2096.10490	         3.93367e+57
          2096.91120	         5.07736e+57
          2097.71750	         1.59335e+57
          2098.52380	         4.81426e+56
          2099.33010	         1.46404e+57
          2100.13640	         1.95510e+57
          2100.94270	         1.72460e+57
          2101.74900	         3.67285e+57
          2102.55530	         4.11215e+57
          2103.36160	         5.69274e+57
          2104.16790	         3.73560e+57
          2104.97420	         3.66140e+56
          2105.78050	         1.83091e+57
          2106.58680	         5.92047e+56
          2107.39310	        -1.22743e+57
          2108.19940	         9.38526e+56
          2109.00570	        -9.77231e+56
          2109.81200	        -3.27161e+56
          2110.61830	         2.35373e+57
          2111.42460	         2.21955e+57
          2112.23090	         1.20076e+56
          2113.03720	        -1.32292e+57
          2113.84350	        -8.07801e+56
          2114.64980	         1.20663e+57
          2115.45610	         2.12398e+57
          2116.26240	         9.65983e+55
          2117.06870	         4.14274e+57
          2117.87500	         9.67189e+56
          2118.68130	         2.51615e+57
          2119.48760	         4.14262e+57
          2120.29390	        -2.08082e+57
          2121.10020	        -3.14133e+57
          2121.90650	        -9.59221e+56
          2122.71280	         1.43928e+56
          2123.51910	         3.45933e+57
          2124.32540	         1.44053e+57
          2125.13170	        -4.33664e+56
          2125.93800	         3.86637e+57
          2126.74430	        -3.94807e+57
          2127.55060	        -8.56130e+57
          2128.35690	        -7.57763e+57
          2129.16320	        -5.71745e+56
          2129.96950	        -3.77489e+57
          2130.77580	        -1.79212e+57
          2131.58210	         2.22386e+57
          2132.38840	         1.96851e+56
          2133.19470	         1.46235e+57
          2134.00100	        -1.45848e+57
          2134.80730	         1.16572e+56
          2135.61360	         4.34086e+57
          2136.41990	         6.39972e+57
          2137.22620	        -3.10167e+57
          2138.03250	         3.26723e+57
          2138.83880	        -7.94580e+57
          2139.64510	         4.74201e+57
          2140.45140	        -2.20736e+57
          2141.25770	        -1.36499e+58
          2142.06400	        -1.56680e+57
          2142.87030	         9.01771e+57
          2143.67660	         5.39612e+57
          2144.48290	         7.20666e+57
          2145.28920	         1.03127e+58
          2146.09550	        -2.40320e+57
          2146.90180	        -9.02620e+57
          2147.70810	        -2.41722e+57
          2148.51440	         1.80909e+56
          2149.32070	        -4.34415e+57
          2150.12700	        -9.13079e+57
          2150.93330	        -1.56194e+57
          2151.73960	        -1.42216e+57
          2152.54590	        -4.30375e+57
          2153.35220	        -5.10509e+57
          2154.15850	         5.78164e+57
          2154.96480	         8.21018e+57
          2155.77110	         6.03003e+56
          2156.57740	        -4.75996e+57
          2157.38370	        -1.07426e+58
          2158.19000	        -6.06456e+57
          2158.99630	        -2.42658e+57
          2159.80260	        -9.59765e+57
          2160.60890	        -1.28161e+58
          2161.41520	        -7.10583e+56
          2162.22150	         2.83428e+57
          2163.02780	         1.97512e+57
          2163.83410	        -1.82225e+57
          2164.64040	        -7.45163e+57
          2165.44670	        -1.06414e+58
          2166.25300	        -9.92542e+57
          2167.05930	        -5.45108e+57
          2167.86560	        -8.43342e+57
          2168.67190	        -1.28879e+58
          2169.47820	        -1.93382e+58
          2170.28450	        -1.56820e+58
          2171.09080	         2.52278e+56
          2171.89710	        -4.57607e+57
          2172.70340	        -2.25729e+57
          2173.50970	        -9.87034e+57
          2174.31600	        -4.29529e+57
          2175.12230	        -3.93018e+57
          2175.92860	        -5.89953e+57
          2176.73490	        -7.52952e+57
          2177.54120	        -6.92352e+57
          2178.34750	        -3.34059e+57
          2179.15380	                 nan
          2179.96010	                 nan
          2180.76640	                 nan
          2181.57270	                 nan
          2182.37900	                 nan
          2183.18530	                 nan
          2183.99160	                 nan
          2184.79790	                 nan
          2185.60420	                 nan
          2186.41050	                 nan
          2187.21680	                 nan
          2188.02310	                 nan
          2188.82940	                 nan
          2189.63570	                 nan
          2190.44200	                 nan
          2191.24830	                 nan
          2192.05460	                 nan
          2192.86090	                 nan
          2193.66720	                 nan
          2194.47350	                 nan
          2195.27980	                 nan
          2196.08610	                 nan
          2196.89240	                 nan
          2197.69870	                 nan
          2198.50500	                 nan
          2199.31130	                 nan
          2200.11760	                 nan
          2200.92390	                 nan
          2201.73020	                 nan
          2202.53650	                 nan
          2203.34280	                 nan
          2204.14910	                 nan
          2204.95540	                 nan
          2205.76170	                 nan
          2206.56800	                 nan
          2207.37430	                 nan
          2208.18060	                 nan
          2208.98690	                 nan
          2209.79320	                 nan
          2210.59950	                 nan
          2211.40580	                 nan
          2212.21210	                 nan
          2213.01840	                 nan
          2213.82470	                 nan
          2214.63100	                 nan
          2215.43730	         0.00000e+00
