#sample_146_stacked_spectrum_rest_UV-bands_median_H-alpha_noDC.txt
#median Lum: 1.73392e+42
#Rest-frame wavelength (A) | Luminosity (erg/s/A)
#
          1110.00000	         0.00000e+00
          1110.80630	         3.02612e+59
          1111.61260	        -3.23854e+58
          1112.41890	        -8.65823e+58
          1113.22520	        -3.74022e+58
          1114.03150	        -6.57868e+58
          1114.83780	         2.50925e+59
          1115.64410	        -1.36694e+57
          1116.45040	        -1.40107e+58
          1117.25670	         3.04547e+58
          1118.06300	         2.22859e+59
          1118.86930	        -9.17795e+57
          1119.67560	         1.46626e+59
          1120.48190	        -5.58501e+57
          1121.28820	        -1.19711e+59
          1122.09450	        -1.00215e+59
          1122.90080	         5.94669e+57
          1123.70710	         8.71410e+58
          1124.51340	         1.22027e+59
          1125.31970	         4.55961e+58
          1126.12600	         3.06880e+58
          1126.93230	         1.98293e+56
          1127.73860	        -5.34655e+58
          1128.54490	        -1.05814e+58
          1129.35120	         2.29652e+58
          1130.15750	        -4.17451e+58
          1130.96380	        -6.01980e+58
          1131.77010	         6.12935e+58
          1132.57640	        -1.38881e+58
          1133.38270	         2.93934e+58
          1134.18900	         4.86931e+58
          1134.99530	         3.70918e+58
          1135.80160	         2.58156e+58
          1136.60790	         1.37736e+57
          1137.41420	        -6.69659e+57
          1138.22050	         4.76777e+58
          1139.02680	         4.24777e+58
          1139.83310	         2.94785e+58
          1140.63940	         1.88559e+58
          1141.44570	         2.89568e+57
          1142.25200	         1.57691e+58
          1143.05830	        -4.46700e+57
          1143.86460	         1.16749e+58
          1144.67090	         3.46438e+58
          1145.47720	         1.46330e+58
          1146.28350	         5.27243e+57
          1147.08980	         1.37949e+58
          1147.89610	         1.54454e+58
          1148.70240	         1.70839e+58
          1149.50870	         2.63626e+58
          1150.31500	         2.59001e+58
          1151.12130	         1.08335e+58
          1151.92760	         4.73114e+57
          1152.73390	        -7.08035e+56
          1153.54020	         7.18244e+57
          1154.34650	         2.82108e+58
          1155.15280	         1.88636e+58
          1155.95910	         1.06308e+58
          1156.76540	         6.89261e+57
          1157.57170	        -1.36486e+57
          1158.37800	         2.49202e+57
          1159.18430	        -3.39021e+57
          1159.99060	        -2.62066e+57
          1160.79690	        -1.22071e+57
          1161.60320	         1.54789e+58
          1162.40950	         1.54200e+58
          1163.21580	         1.93821e+58
          1164.02210	         6.12011e+57
          1164.82840	         7.38601e+57
          1165.63470	         1.93842e+58
          1166.44100	         2.63505e+58
          1167.24730	         1.37762e+58
          1168.05360	         8.95302e+57
          1168.85990	         7.67102e+57
          1169.66620	         9.44956e+57
          1170.47250	         7.28251e+57
          1171.27880	         7.81680e+57
          1172.08510	         1.17442e+58
          1172.89140	         3.30619e+57
          1173.69770	         7.44378e+57
          1174.50400	         6.80965e+57
          1175.31030	         1.16946e+58
          1176.11660	         1.97992e+58
          1176.92290	         1.59811e+58
          1177.72920	         1.04099e+58
          1178.53550	         1.22314e+58
          1179.34180	         5.57595e+57
          1180.14810	         1.10002e+58
          1180.95440	         1.40658e+58
          1181.76070	         1.10314e+58
          1182.56700	         8.23910e+57
          1183.37330	         4.99246e+57
          1184.17960	         1.02430e+58
          1184.98590	         1.27356e+58
          1185.79220	         4.95642e+57
          1186.59850	         9.39239e+57
          1187.40480	         1.48267e+58
          1188.21110	         1.61156e+58
          1189.01740	         1.09784e+58
          1189.82370	         8.33300e+57
          1190.63000	         8.67088e+57
          1191.43630	         1.51961e+58
          1192.24260	         1.20794e+58
          1193.04890	         1.14645e+58
          1193.85520	         1.36464e+58
          1194.66150	         1.19671e+57
          1195.46780	         7.86324e+57
          1196.27410	         1.91663e+58
          1197.08040	         1.24207e+58
          1197.88670	         1.09951e+58
          1198.69300	         1.41638e+58
          1199.49930	         1.52998e+58
          1200.30560	         7.11825e+57
          1201.11190	         1.04583e+58
          1201.91820	         8.22910e+57
          1202.72450	         4.81257e+57
          1203.53080	         1.39829e+58
          1204.33710	         6.55198e+57
          1205.14340	         4.13839e+57
          1205.94970	         8.28282e+57
          1206.75600	         9.46165e+57
          1207.56230	         6.57829e+57
          1208.36860	         6.10618e+57
          1209.17490	         4.02566e+57
          1209.98120	         7.88568e+57
          1210.78750	         1.36299e+58
          1211.59380	         1.35338e+58
          1212.40010	         1.59591e+58
          1213.20640	         2.24693e+58
          1214.01270	         2.12530e+58
          1214.81900	         2.76881e+58
          1215.62530	         4.63209e+58
          1216.43160	         9.08058e+58
          1217.23790	         1.49790e+59
          1218.04420	         1.16084e+59
          1218.85050	         8.79228e+58
          1219.65680	         5.83554e+58
          1220.46310	         3.42885e+58
          1221.26940	         2.02728e+58
          1222.07570	         1.05925e+58
          1222.88200	         7.17590e+57
          1223.68830	         6.67982e+57
          1224.49460	         7.49408e+57
          1225.30090	         7.86577e+57
          1226.10720	         6.06772e+57
          1226.91350	         6.68822e+57
          1227.71980	         1.00989e+58
          1228.52610	         1.12348e+58
          1229.33240	         9.07726e+57
          1230.13870	         1.04150e+58
          1230.94500	         1.04411e+58
          1231.75130	         6.93496e+57
          1232.55760	         7.71792e+57
          1233.36390	         6.16582e+57
          1234.17020	         9.60277e+57
          1234.97650	         1.08388e+58
          1235.78280	         1.02174e+58
          1236.58910	         8.48276e+57
          1237.39540	         9.31546e+57
          1238.20170	         1.14685e+58
          1239.00800	         1.18971e+58
          1239.81430	         1.39073e+58
          1240.62060	         1.24386e+58
          1241.42690	         1.12801e+58
          1242.23320	         9.91823e+57
          1243.03950	         7.12855e+57
          1243.84580	         8.55609e+57
          1244.65210	         8.00899e+57
          1245.45840	         7.37923e+57
          1246.26470	         9.30470e+57
          1247.07100	         5.59931e+57
          1247.87730	         5.23315e+57
          1248.68360	         4.70234e+57
          1249.48990	         8.41802e+57
          1250.29620	         6.96974e+57
          1251.10250	         5.99647e+57
          1251.90880	         6.40371e+57
          1252.71510	         5.60808e+57
          1253.52140	         6.57913e+57
          1254.32770	         1.02492e+58
          1255.13400	         1.26412e+58
          1255.94030	         1.32425e+58
          1256.74660	         1.18137e+58
          1257.55290	         1.10283e+58
          1258.35920	         8.36597e+57
          1259.16550	         7.04718e+57
          1259.97180	         6.28472e+57
          1260.77810	         9.12016e+57
          1261.58440	         1.30952e+58
          1262.39070	         8.90757e+57
          1263.19700	         8.11915e+57
          1264.00330	         8.36813e+57
          1264.80960	         9.59578e+57
          1265.61590	         1.22594e+58
          1266.42220	         1.26528e+58
          1267.22850	         1.07823e+58
          1268.03480	         1.25884e+58
          1268.84110	         1.51932e+58
          1269.64740	         1.41105e+58
          1270.45370	         1.21735e+58
          1271.26000	         1.00659e+58
          1272.06630	         1.12170e+58
          1272.87260	         1.35056e+58
          1273.67890	         1.45612e+58
          1274.48520	         1.19602e+58
          1275.29150	         1.28048e+58
          1276.09780	         1.39991e+58
          1276.90410	         1.50166e+58
          1277.71040	         1.12385e+58
          1278.51670	         1.12855e+58
          1279.32300	         1.26393e+58
          1280.12930	         1.19559e+58
          1280.93560	         1.02255e+58
          1281.74190	         1.13450e+58
          1282.54820	         1.29773e+58
          1283.35450	         1.10566e+58
          1284.16080	         1.30169e+58
          1284.96710	         1.53976e+58
          1285.77340	         1.18865e+58
          1286.57970	         9.95067e+57
          1287.38600	         1.50747e+58
          1288.19230	         1.76638e+58
          1288.99860	         1.58017e+58
          1289.80490	         1.28224e+58
          1290.61120	         1.52203e+58
          1291.41750	         1.61627e+58
          1292.22380	         1.34655e+58
          1293.03010	         1.29292e+58
          1293.83640	         1.21660e+58
          1294.64270	         8.18085e+57
          1295.44900	         5.75393e+57
          1296.25530	         9.33848e+57
          1297.06160	         1.09809e+58
          1297.86790	         1.08534e+58
          1298.67420	         1.00512e+58
          1299.48050	         1.05591e+58
          1300.28680	         1.05800e+58
          1301.09310	         8.37998e+57
          1301.89940	         4.32742e+57
          1302.70570	         6.43961e+57
          1303.51200	         7.67114e+57
          1304.31830	         1.00814e+58
          1305.12460	         1.02869e+58
          1305.93090	         1.03533e+58
          1306.73720	         1.13467e+58
          1307.54350	         1.25316e+58
          1308.34980	         1.42532e+58
          1309.15610	         1.50730e+58
          1309.96240	         1.50740e+58
          1310.76870	         1.30387e+58
          1311.57500	         1.17973e+58
          1312.38130	         1.10554e+58
          1313.18760	         1.06230e+58
          1313.99390	         1.42990e+58
          1314.80020	         1.83418e+58
          1315.60650	         1.78677e+58
          1316.41280	         1.36013e+58
          1317.21910	         1.09524e+58
          1318.02540	         1.21417e+58
          1318.83170	         1.44999e+58
          1319.63800	         1.24124e+58
          1320.44430	         1.30708e+58
          1321.25060	         1.46895e+58
          1322.05690	         1.40621e+58
          1322.86320	         1.24151e+58
          1323.66950	         1.07811e+58
          1324.47580	         8.76718e+57
          1325.28210	         1.00043e+58
          1326.08840	         1.17505e+58
          1326.89470	         1.36533e+58
          1327.70100	         1.17442e+58
          1328.50730	         7.80201e+57
          1329.31360	         8.33351e+57
          1330.11990	         9.11480e+57
          1330.92620	         8.52319e+57
          1331.73250	         1.05518e+58
          1332.53880	         9.84228e+57
          1333.34510	         8.06179e+57
          1334.15140	         9.23425e+57
          1334.95770	         8.97300e+57
          1335.76400	         9.09955e+57
          1336.57030	         9.17155e+57
          1337.37660	         9.06957e+57
          1338.18290	         1.00755e+58
          1338.98920	         1.10850e+58
          1339.79550	         1.12538e+58
          1340.60180	         1.23591e+58
          1341.40810	         1.39384e+58
          1342.21440	         1.21754e+58
          1343.02070	         1.17496e+58
          1343.82700	         1.46048e+58
          1344.63330	         1.37191e+58
          1345.43960	         1.34461e+58
          1346.24590	         1.20771e+58
          1347.05220	         1.27082e+58
          1347.85850	         1.03688e+58
          1348.66480	         1.05201e+58
          1349.47110	         1.17997e+58
          1350.27740	         1.07852e+58
          1351.08370	         1.22776e+58
          1351.89000	         1.21965e+58
          1352.69630	         1.31007e+58
          1353.50260	         1.25366e+58
          1354.30890	         1.27881e+58
          1355.11520	         1.20784e+58
          1355.92150	         1.13763e+58
          1356.72780	         1.07236e+58
          1357.53410	         1.05397e+58
          1358.34040	         1.15600e+58
          1359.14670	         1.00222e+58
          1359.95300	         1.05487e+58
          1360.75930	         1.16027e+58
          1361.56560	         1.14732e+58
          1362.37190	         1.19560e+58
          1363.17820	         1.16263e+58
          1363.98450	         1.27763e+58
          1364.79080	         1.44600e+58
          1365.59710	         1.40716e+58
          1366.40340	         1.29130e+58
          1367.20970	         1.13759e+58
          1368.01600	         1.13992e+58
          1368.82230	         9.65388e+57
          1369.62860	         8.16120e+57
          1370.43490	         7.26139e+57
          1371.24120	         8.15931e+57
          1372.04750	         7.03727e+57
          1372.85380	         1.02472e+58
          1373.66010	         1.15860e+58
          1374.46640	         1.15320e+58
          1375.27270	         1.00111e+58
          1376.07900	         8.72771e+57
          1376.88530	         8.07879e+57
          1377.69160	         8.02731e+57
          1378.49790	         6.62030e+57
          1379.30420	         6.51769e+57
          1380.11050	         8.66071e+57
          1380.91680	         8.47300e+57
          1381.72310	         7.80209e+57
          1382.52940	         8.64748e+57
          1383.33570	         8.61990e+57
          1384.14200	         8.79767e+57
          1384.94830	         1.14108e+58
          1385.75460	         1.25143e+58
          1386.56090	         1.11016e+58
          1387.36720	         1.07895e+58
          1388.17350	         1.15119e+58
          1388.97980	         1.08950e+58
          1389.78610	         8.88493e+57
          1390.59240	         8.74106e+57
          1391.39870	         8.73600e+57
          1392.20500	         9.09522e+57
          1393.01130	         8.55429e+57
          1393.81760	         7.24860e+57
          1394.62390	         6.75751e+57
          1395.43020	         5.87795e+57
          1396.23650	         6.45109e+57
          1397.04280	         7.32587e+57
          1397.84910	         9.50997e+57
          1398.65540	         9.32404e+57
          1399.46170	         9.50741e+57
          1400.26800	         9.20621e+57
          1401.07430	         7.04437e+57
          1401.88060	         6.43973e+57
          1402.68690	         8.83147e+57
          1403.49320	         9.92454e+57
          1404.29950	         9.15203e+57
          1405.10580	         1.07924e+58
          1405.91210	         1.16168e+58
          1406.71840	         1.09591e+58
          1407.52470	         9.62435e+57
          1408.33100	         9.37172e+57
          1409.13730	         1.14953e+58
          1409.94360	         1.26300e+58
          1410.74990	         1.20563e+58
          1411.55620	         1.00625e+58
          1412.36250	         9.05375e+57
          1413.16880	         9.93845e+57
          1413.97510	         8.77395e+57
          1414.78140	         8.44908e+57
          1415.58770	         1.13050e+58
          1416.39400	         1.12678e+58
          1417.20030	         1.10510e+58
          1418.00660	         1.08154e+58
          1418.81290	         1.19429e+58
          1419.61920	         1.14791e+58
          1420.42550	         1.13124e+58
          1421.23180	         1.32989e+58
          1422.03810	         1.24685e+58
          1422.84440	         1.16993e+58
          1423.65070	         1.18143e+58
          1424.45700	         1.08383e+58
          1425.26330	         8.90974e+57
          1426.06960	         8.96867e+57
          1426.87590	         1.02634e+58
          1427.68220	         9.42614e+57
          1428.48850	         1.05723e+58
          1429.29480	         1.10328e+58
          1430.10110	         1.02264e+58
          1430.90740	         9.09501e+57
          1431.71370	         9.54059e+57
          1432.52000	         9.39731e+57
          1433.32630	         8.57125e+57
          1434.13260	         7.57191e+57
          1434.93890	         8.32731e+57
          1435.74520	         9.90979e+57
          1436.55150	         9.99725e+57
          1437.35780	         9.99358e+57
          1438.16410	         9.27537e+57
          1438.97040	         9.37006e+57
          1439.77670	         8.71363e+57
          1440.58300	         8.78991e+57
          1441.38930	         8.78156e+57
          1442.19560	         1.00104e+58
          1443.00190	         1.01505e+58
          1443.80820	         1.07818e+58
          1444.61450	         9.30476e+57
          1445.42080	         8.34516e+57
          1446.22710	         1.00384e+58
          1447.03340	         9.83174e+57
          1447.83970	         1.07487e+58
          1448.64600	         1.02532e+58
          1449.45230	         9.37891e+57
          1450.25860	         1.01374e+58
          1451.06490	         8.65902e+57
          1451.87120	         7.09265e+57
          1452.67750	         7.47143e+57
          1453.48380	         9.01655e+57
          1454.29010	         9.21319e+57
          1455.09640	         7.84797e+57
          1455.90270	         9.78982e+57
          1456.70900	         9.21070e+57
          1457.51530	         8.62000e+57
          1458.32160	         1.25253e+58
          1459.12790	         1.26637e+58
          1459.93420	         1.06515e+58
          1460.74050	         8.78911e+57
          1461.54680	         7.59706e+57
          1462.35310	         6.44041e+57
          1463.15940	         9.65445e+57
          1463.96570	         1.23857e+58
          1464.77200	         1.18347e+58
          1465.57830	         1.08026e+58
          1466.38460	         1.08510e+58
          1467.19090	         9.55194e+57
          1467.99720	         8.83308e+57
          1468.80350	         9.39000e+57
          1469.60980	         1.05721e+58
          1470.41610	         1.11474e+58
          1471.22240	         1.01257e+58
          1472.02870	         1.02021e+58
          1472.83500	         1.07096e+58
          1473.64130	         9.69928e+57
          1474.44760	         7.90415e+57
          1475.25390	         7.13031e+57
          1476.06020	         8.36102e+57
          1476.86650	         1.06023e+58
          1477.67280	         9.70891e+57
          1478.47910	         7.44823e+57
          1479.28540	         7.32166e+57
          1480.09170	         7.77539e+57
          1480.89800	         8.75421e+57
          1481.70430	         8.15890e+57
          1482.51060	         7.36571e+57
          1483.31690	         8.81649e+57
          1484.12320	         8.92020e+57
          1484.92950	         7.99329e+57
          1485.73580	         9.06209e+57
          1486.54210	         9.54458e+57
          1487.34840	         8.81882e+57
          1488.15470	         9.03087e+57
          1488.96100	         8.79653e+57
          1489.76730	         8.67718e+57
          1490.57360	         9.11613e+57
          1491.37990	         7.64664e+57
          1492.18620	         8.26528e+57
          1492.99250	         9.60235e+57
          1493.79880	         9.43205e+57
          1494.60510	         8.68270e+57
          1495.41140	         7.11894e+57
          1496.21770	         7.47080e+57
          1497.02400	         9.83233e+57
          1497.83030	         9.86223e+57
          1498.63660	         7.96367e+57
          1499.44290	         7.08076e+57
          1500.24920	         7.44004e+57
          1501.05550	         7.95482e+57
          1501.86180	         7.91569e+57
          1502.66810	         9.31102e+57
          1503.47440	         8.82732e+57
          1504.28070	         8.16517e+57
          1505.08700	         1.05819e+58
          1505.89330	         9.24012e+57
          1506.69960	         8.78693e+57
          1507.50590	         8.92158e+57
          1508.31220	         7.85081e+57
          1509.11850	         7.59351e+57
          1509.92480	         9.35052e+57
          1510.73110	         9.18067e+57
          1511.53740	         6.72866e+57
          1512.34370	         7.12493e+57
          1513.15000	         8.22384e+57
          1513.95630	         8.65554e+57
          1514.76260	         8.45526e+57
          1515.56890	         9.19165e+57
          1516.37520	         9.63025e+57
          1517.18150	         8.63737e+57
          1517.98780	         8.21862e+57
          1518.79410	         7.50918e+57
          1519.60040	         8.00734e+57
          1520.40670	         1.02033e+58
          1521.21300	         9.50721e+57
          1522.01930	         7.81468e+57
          1522.82560	         9.46094e+57
          1523.63190	         1.04105e+58
          1524.43820	         8.90576e+57
          1525.24450	         7.06557e+57
          1526.05080	         6.70826e+57
          1526.85710	         6.91960e+57
          1527.66340	         6.95408e+57
          1528.46970	         8.35124e+57
          1529.27600	         8.33853e+57
          1530.08230	         7.61008e+57
          1530.88860	         7.28367e+57
          1531.69490	         8.34903e+57
          1532.50120	         9.58470e+57
          1533.30750	         9.81889e+57
          1534.11380	         8.84030e+57
          1534.92010	         8.52403e+57
          1535.72640	         8.69696e+57
          1536.53270	         9.10642e+57
          1537.33900	         8.05303e+57
          1538.14530	         9.06906e+57
          1538.95160	         9.46376e+57
          1539.75790	         8.79757e+57
          1540.56420	         9.12835e+57
          1541.37050	         8.18036e+57
          1542.17680	         6.91282e+57
          1542.98310	         6.17301e+57
          1543.78940	         6.89744e+57
          1544.59570	         7.53619e+57
          1545.40200	         8.12733e+57
          1546.20830	         9.93780e+57
          1547.01460	         1.11863e+58
          1547.82090	         1.12697e+58
          1548.62720	         1.25376e+58
          1549.43350	         1.17245e+58
          1550.23980	         1.05700e+58
          1551.04610	         1.15690e+58
          1551.85240	         1.12234e+58
          1552.65870	         1.10111e+58
          1553.46500	         1.06774e+58
          1554.27130	         9.74120e+57
          1555.07760	         9.58219e+57
          1555.88390	         9.46164e+57
          1556.69020	         8.16483e+57
          1557.49650	         8.70515e+57
          1558.30280	         8.48927e+57
          1559.10910	         8.55074e+57
          1559.91540	         9.65341e+57
          1560.72170	         8.83582e+57
          1561.52800	         8.42262e+57
          1562.33430	         8.56862e+57
          1563.14060	         7.43306e+57
          1563.94690	         7.84759e+57
          1564.75320	         8.88075e+57
          1565.55950	         7.35196e+57
          1566.36580	         7.35341e+57
          1567.17210	         8.34869e+57
          1567.97840	         8.80771e+57
          1568.78470	         8.85450e+57
          1569.59100	         9.32940e+57
          1570.39730	         7.65601e+57
          1571.20360	         7.44659e+57
          1572.00990	         7.38565e+57
          1572.81620	         8.03134e+57
          1573.62250	         9.77344e+57
          1574.42880	         9.99915e+57
          1575.23510	         8.33389e+57
          1576.04140	         8.33077e+57
          1576.84770	         9.00049e+57
          1577.65400	         8.89729e+57
          1578.46030	         1.00310e+58
          1579.26660	         1.05335e+58
          1580.07290	         9.65484e+57
          1580.87920	         7.45384e+57
          1581.68550	         7.66465e+57
          1582.49180	         9.27484e+57
          1583.29810	         8.44234e+57
          1584.10440	         8.35980e+57
          1584.91070	         8.37320e+57
          1585.71700	         8.40863e+57
          1586.52330	         8.63469e+57
          1587.32960	         8.55097e+57
          1588.13590	         8.42063e+57
          1588.94220	         7.88039e+57
          1589.74850	         8.95982e+57
          1590.55480	         9.72704e+57
          1591.36110	         7.92601e+57
          1592.16740	         7.76062e+57
          1592.97370	         8.40242e+57
          1593.78000	         8.30348e+57
          1594.58630	         8.06930e+57
          1595.39260	         7.75004e+57
          1596.19890	         9.45011e+57
          1597.00520	         1.01449e+58
          1597.81150	         9.06390e+57
          1598.61780	         7.30894e+57
          1599.42410	         6.15473e+57
          1600.23040	         6.91967e+57
          1601.03670	         7.99053e+57
          1601.84300	         7.39879e+57
          1602.64930	         7.65500e+57
          1603.45560	         9.30620e+57
          1604.26190	         8.51290e+57
          1605.06820	         7.61142e+57
          1605.87450	         6.83663e+57
          1606.68080	         6.68561e+57
          1607.48710	         6.02912e+57
          1608.29340	         5.60343e+57
          1609.09970	         6.59735e+57
          1609.90600	         7.37228e+57
          1610.71230	         7.71545e+57
          1611.51860	         7.80675e+57
          1612.32490	         7.90765e+57
          1613.13120	         9.09438e+57
          1613.93750	         8.97570e+57
          1614.74380	         8.07130e+57
          1615.55010	         8.07361e+57
          1616.35640	         8.51609e+57
          1617.16270	         9.76286e+57
          1617.96900	         1.05409e+58
          1618.77530	         8.82548e+57
          1619.58160	         7.29598e+57
          1620.38790	         8.61715e+57
          1621.19420	         9.94826e+57
          1622.00050	         9.53067e+57
          1622.80680	         9.24720e+57
          1623.61310	         8.49106e+57
          1624.41940	         8.02172e+57
          1625.22570	         9.10098e+57
          1626.03200	         9.41346e+57
          1626.83830	         8.39833e+57
          1627.64460	         7.66054e+57
          1628.45090	         6.96219e+57
          1629.25720	         9.20306e+57
          1630.06350	         9.53077e+57
          1630.86980	         6.27250e+57
          1631.67610	         8.01000e+57
          1632.48240	         9.60776e+57
          1633.28870	         8.80623e+57
          1634.09500	         9.16004e+57
          1634.90130	         1.11585e+58
          1635.70760	         9.43389e+57
          1636.51390	         7.86510e+57
          1637.32020	         7.39766e+57
          1638.12650	         8.83238e+57
          1638.93280	         9.65175e+57
          1639.73910	         1.06403e+58
          1640.54540	         1.12752e+58
          1641.35170	         8.16782e+57
          1642.15800	         9.13443e+57
          1642.96430	         9.09554e+57
          1643.77060	         8.35401e+57
          1644.57690	         8.65486e+57
          1645.38320	         8.49607e+57
          1646.18950	         6.70317e+57
          1646.99580	         7.74957e+57
          1647.80210	         8.28415e+57
          1648.60840	         7.57249e+57
          1649.41470	         7.53766e+57
          1650.22100	         7.17010e+57
          1651.02730	         6.92302e+57
          1651.83360	         7.20103e+57
          1652.63990	         9.05215e+57
          1653.44620	         9.54510e+57
          1654.25250	         7.75040e+57
          1655.05880	         8.13875e+57
          1655.86510	         9.12285e+57
          1656.67140	         8.95359e+57
          1657.47770	         8.00000e+57
          1658.28400	         8.31684e+57
          1659.09030	         9.11864e+57
          1659.89660	         9.31973e+57
          1660.70290	         1.07595e+58
          1661.50920	         1.02825e+58
          1662.31550	         8.10953e+57
          1663.12180	         7.83977e+57
          1663.92810	         8.94584e+57
          1664.73440	         1.12173e+58
          1665.54070	         1.23466e+58
          1666.34700	         1.27712e+58
          1667.15330	         1.19626e+58
          1667.95960	         9.14468e+57
          1668.76590	         7.71472e+57
          1669.57220	         6.70254e+57
          1670.37850	         7.00134e+57
          1671.18480	         7.40930e+57
          1671.99110	         7.30437e+57
          1672.79740	         6.96317e+57
          1673.60370	         7.33414e+57
          1674.41000	         7.81255e+57
          1675.21630	         7.48871e+57
          1676.02260	         6.05872e+57
          1676.82890	         5.96244e+57
          1677.63520	         6.66267e+57
          1678.44150	         7.70510e+57
          1679.24780	         9.69023e+57
          1680.05410	         8.86539e+57
          1680.86040	         6.56759e+57
          1681.66670	         7.39715e+57
          1682.47300	         8.39768e+57
          1683.27930	         8.23770e+57
          1684.08560	         9.06447e+57
          1684.89190	         7.32281e+57
          1685.69820	         5.21320e+57
          1686.50450	         4.84444e+57
          1687.31080	         7.06759e+57
          1688.11710	         8.10805e+57
          1688.92340	         5.93824e+57
          1689.72970	         5.29878e+57
          1690.53600	         7.33648e+57
          1691.34230	         7.58093e+57
          1692.14860	         7.14539e+57
          1692.95490	         8.29306e+57
          1693.76120	         7.88970e+57
          1694.56750	         6.91983e+57
          1695.37380	         7.96556e+57
          1696.18010	         8.28577e+57
          1696.98640	         8.62395e+57
          1697.79270	         8.82555e+57
          1698.59900	         9.03404e+57
          1699.40530	         7.58208e+57
          1700.21160	         7.11254e+57
          1701.01790	         7.93666e+57
          1701.82420	         7.17025e+57
          1702.63050	         8.44547e+57
          1703.43680	         9.43632e+57
          1704.24310	         8.97431e+57
          1705.04940	         7.98518e+57
          1705.85570	         8.06351e+57
          1706.66200	         8.90149e+57
          1707.46830	         9.24816e+57
          1708.27460	         7.70212e+57
          1709.08090	         5.68807e+57
          1709.88720	         5.75968e+57
          1710.69350	         5.76337e+57
          1711.49980	         6.65680e+57
          1712.30610	         7.16978e+57
          1713.11240	         8.77463e+57
          1713.91870	         7.14993e+57
          1714.72500	         6.84092e+57
          1715.53130	         8.09037e+57
          1716.33760	         7.18640e+57
          1717.14390	         7.25449e+57
          1717.95020	         8.50817e+57
          1718.75650	         8.72789e+57
          1719.56280	         8.99148e+57
          1720.36910	         7.94777e+57
          1721.17540	         7.10037e+57
          1721.98170	         6.41389e+57
          1722.78800	         6.23957e+57
          1723.59430	         6.61561e+57
          1724.40060	         8.04031e+57
          1725.20690	         8.52597e+57
          1726.01320	         7.33854e+57
          1726.81950	         7.30310e+57
          1727.62580	         6.81615e+57
          1728.43210	         6.92316e+57
          1729.23840	         7.54071e+57
          1730.04470	         8.48020e+57
          1730.85100	         9.73952e+57
          1731.65730	         8.70566e+57
          1732.46360	         7.67473e+57
          1733.26990	         7.58474e+57
          1734.07620	         7.65043e+57
          1734.88250	         8.54557e+57
          1735.68880	         8.32218e+57
          1736.49510	         7.95535e+57
          1737.30140	         8.17157e+57
          1738.10770	         6.64677e+57
          1738.91400	         6.54382e+57
          1739.72030	         6.83921e+57
          1740.52660	         6.37529e+57
          1741.33290	         6.01749e+57
          1742.13920	         6.14742e+57
          1742.94550	         7.49735e+57
          1743.75180	         7.70197e+57
          1744.55810	         7.48667e+57
          1745.36440	         6.22018e+57
          1746.17070	         4.98044e+57
          1746.97700	         4.87937e+57
          1747.78330	         6.61858e+57
          1748.58960	         7.02115e+57
          1749.39590	         7.08671e+57
          1750.20220	         7.14747e+57
          1751.00850	         6.05083e+57
          1751.81480	         6.48200e+57
          1752.62110	         7.90300e+57
          1753.42740	         8.48910e+57
          1754.23370	         7.15934e+57
          1755.04000	         7.92192e+57
          1755.84630	         8.08454e+57
          1756.65260	         8.15960e+57
          1757.45890	         8.72320e+57
          1758.26520	         7.31182e+57
          1759.07150	         8.45443e+57
          1759.87780	         7.38457e+57
          1760.68410	         6.61559e+57
          1761.49040	         8.09724e+57
          1762.29670	         7.05653e+57
          1763.10300	         7.10250e+57
          1763.90930	         7.69060e+57
          1764.71560	         7.48593e+57
          1765.52190	         7.95633e+57
          1766.32820	         8.00744e+57
          1767.13450	         6.49757e+57
          1767.94080	         6.16472e+57
          1768.74710	         6.48929e+57
          1769.55340	         6.48656e+57
          1770.35970	         6.03453e+57
          1771.16600	         8.33261e+57
          1771.97230	         9.39112e+57
          1772.77860	         8.64861e+57
          1773.58490	         7.39586e+57
          1774.39120	         7.00109e+57
          1775.19750	         6.51658e+57
          1776.00380	         5.67363e+57
          1776.81010	         6.11922e+57
          1777.61640	         6.61458e+57
          1778.42270	         7.32507e+57
          1779.22900	         7.16909e+57
          1780.03530	         6.37362e+57
          1780.84160	         7.42519e+57
          1781.64790	         8.12861e+57
          1782.45420	         7.05663e+57
          1783.26050	         6.94479e+57
          1784.06680	         6.64377e+57
          1784.87310	         7.13941e+57
          1785.67940	         8.58713e+57
          1786.48570	         7.72957e+57
          1787.29200	         6.58988e+57
          1788.09830	         6.02790e+57
          1788.90460	         5.77507e+57
          1789.71090	         5.53103e+57
          1790.51720	         6.19011e+57
          1791.32350	         7.68390e+57
          1792.12980	         7.93078e+57
          1792.93610	         7.74418e+57
          1793.74240	         7.04590e+57
          1794.54870	         7.38195e+57
          1795.35500	         8.62434e+57
          1796.16130	         8.62982e+57
          1796.96760	         6.76140e+57
          1797.77390	         6.88563e+57
          1798.58020	         7.45508e+57
          1799.38650	         7.35316e+57
          1800.19280	         7.80421e+57
          1800.99910	         8.14298e+57
          1801.80540	         7.66614e+57
          1802.61170	         8.48899e+57
          1803.41800	         8.49214e+57
          1804.22430	         7.51828e+57
          1805.03060	         6.94518e+57
          1805.83690	         6.53012e+57
          1806.64320	         7.28880e+57
          1807.44950	         8.26647e+57
          1808.25580	         6.04737e+57
          1809.06210	         6.92742e+57
          1809.86840	         7.46357e+57
          1810.67470	         7.84603e+57
          1811.48100	         8.79891e+57
          1812.28730	         7.97543e+57
          1813.09360	         7.55749e+57
          1813.89990	         7.98967e+57
          1814.70620	         7.25625e+57
          1815.51250	         7.19545e+57
          1816.31880	         6.97846e+57
          1817.12510	         6.95664e+57
          1817.93140	         6.77717e+57
          1818.73770	         6.99930e+57
          1819.54400	         8.31450e+57
          1820.35030	         7.76259e+57
          1821.15660	         6.65500e+57
          1821.96290	         6.20136e+57
          1822.76920	         7.15353e+57
          1823.57550	         8.19221e+57
          1824.38180	         7.92882e+57
          1825.18810	         7.17407e+57
          1825.99440	         8.64516e+57
          1826.80070	         7.77207e+57
          1827.60700	         6.59756e+57
          1828.41330	         6.44328e+57
          1829.21960	         6.82426e+57
          1830.02590	         7.26182e+57
          1830.83220	         7.75110e+57
          1831.63850	         7.93752e+57
          1832.44480	         7.26083e+57
          1833.25110	         8.36634e+57
          1834.05740	         8.98591e+57
          1834.86370	         7.35203e+57
          1835.67000	         5.60138e+57
          1836.47630	         8.25628e+57
          1837.28260	         9.59452e+57
          1838.08890	         8.35453e+57
          1838.89520	         8.13440e+57
          1839.70150	         8.27417e+57
          1840.50780	         7.13841e+57
          1841.31410	         7.38990e+57
          1842.12040	         7.11155e+57
          1842.92670	         7.17035e+57
          1843.73300	         6.10132e+57
          1844.53930	         5.54717e+57
          1845.34560	         7.09368e+57
          1846.15190	         8.28391e+57
          1846.95820	         8.48756e+57
          1847.76450	         6.93289e+57
          1848.57080	         5.68277e+57
          1849.37710	         6.42843e+57
          1850.18340	         7.03974e+57
          1850.98970	         7.50980e+57
          1851.79600	         7.75669e+57
          1852.60230	         7.10066e+57
          1853.40860	         6.92861e+57
          1854.21490	         6.98585e+57
          1855.02120	         5.60539e+57
          1855.82750	         5.68076e+57
          1856.63380	         6.49211e+57
          1857.44010	         6.51575e+57
          1858.24640	         6.90831e+57
          1859.05270	         6.95932e+57
          1859.85900	         6.03567e+57
          1860.66530	         5.85866e+57
          1861.47160	         6.96999e+57
          1862.27790	         6.93333e+57
          1863.08420	         6.59508e+57
          1863.89050	         7.25474e+57
          1864.69680	         7.85308e+57
          1865.50310	         7.83623e+57
          1866.30940	         6.47314e+57
          1867.11570	         6.45490e+57
          1867.92200	         7.33219e+57
          1868.72830	         7.07362e+57
          1869.53460	         6.62717e+57
          1870.34090	         7.61907e+57
          1871.14720	         8.14752e+57
          1871.95350	         7.04919e+57
          1872.75980	         7.12968e+57
          1873.56610	         6.38691e+57
          1874.37240	         5.68531e+57
          1875.17870	         6.25670e+57
          1875.98500	         7.04815e+57
          1876.79130	         7.94916e+57
          1877.59760	         7.62364e+57
          1878.40390	         6.58755e+57
          1879.21020	         6.74186e+57
          1880.01650	         7.66042e+57
          1880.82280	         7.61039e+57
          1881.62910	         9.11916e+57
          1882.43540	         9.93220e+57
          1883.24170	         9.56085e+57
          1884.04800	         7.53912e+57
          1884.85430	         7.28447e+57
          1885.66060	         7.95306e+57
          1886.46690	         8.25569e+57
          1887.27320	         7.67299e+57
          1888.07950	         5.78502e+57
          1888.88580	         5.57280e+57
          1889.69210	         7.25618e+57
          1890.49840	         7.71692e+57
          1891.30470	         8.38628e+57
          1892.11100	         8.91038e+57
          1892.91730	         8.95467e+57
          1893.72360	         8.75169e+57
          1894.52990	         8.14298e+57
          1895.33620	         7.85454e+57
          1896.14250	         6.87261e+57
          1896.94880	         6.65601e+57
          1897.75510	         4.91530e+57
          1898.56140	         5.96483e+57
          1899.36770	         8.47958e+57
          1900.17400	         7.21879e+57
          1900.98030	         5.30697e+57
          1901.78660	         6.77780e+57
          1902.59290	         7.02580e+57
          1903.39920	         7.65760e+57
          1904.20550	         8.85990e+57
          1905.01180	         1.00626e+58
          1905.81810	         1.01127e+58
          1906.62440	         1.28128e+58
          1907.43070	         1.41238e+58
          1908.23700	         1.68275e+58
          1909.04330	         1.39700e+58
          1909.84960	         1.17282e+58
          1910.65590	         1.00452e+58
          1911.46220	         9.19364e+57
          1912.26850	         8.04201e+57
          1913.07480	         6.39791e+57
          1913.88110	         6.03325e+57
          1914.68740	         5.14069e+57
          1915.49370	         5.42497e+57
          1916.30000	         6.84781e+57
          1917.10630	         7.02166e+57
          1917.91260	         6.17547e+57
          1918.71890	         5.67246e+57
          1919.52520	         5.64716e+57
          1920.33150	         5.35386e+57
          1921.13780	         6.03790e+57
          1921.94410	         8.43291e+57
          1922.75040	         7.82272e+57
          1923.55670	         6.98599e+57
          1924.36300	         6.99446e+57
          1925.16930	         6.46723e+57
          1925.97560	         5.75917e+57
          1926.78190	         4.10754e+57
          1927.58820	         5.71199e+57
          1928.39450	         6.84537e+57
          1929.20080	         5.77426e+57
          1930.00710	         7.11556e+57
          1930.81340	         7.61509e+57
          1931.61970	         7.44330e+57
          1932.42600	         7.99456e+57
          1933.23230	         7.87280e+57
          1934.03860	         7.56416e+57
          1934.84490	         5.96283e+57
          1935.65120	         8.39413e+57
          1936.45750	         8.57351e+57
          1937.26380	         7.15048e+57
          1938.07010	         7.29687e+57
          1938.87640	         7.14584e+57
          1939.68270	         7.11882e+57
          1940.48900	         7.86129e+57
          1941.29530	         8.37029e+57
          1942.10160	         7.70787e+57
          1942.90790	         6.31394e+57
          1943.71420	         6.73792e+57
          1944.52050	         6.43220e+57
          1945.32680	         4.93568e+57
          1946.13310	         6.78355e+57
          1946.93940	         8.95197e+57
          1947.74570	         8.24007e+57
          1948.55200	         5.77306e+57
          1949.35830	         6.41609e+57
          1950.16460	         5.11112e+57
          1950.97090	         5.48228e+57
          1951.77720	         6.19746e+57
          1952.58350	         6.70793e+57
          1953.38980	         6.93801e+57
          1954.19610	         5.30963e+57
          1955.00240	         4.14201e+57
          1955.80870	         5.93712e+57
          1956.61500	         6.56721e+57
          1957.42130	         6.12370e+57
          1958.22760	         6.45592e+57
          1959.03390	         6.94725e+57
          1959.84020	         7.10953e+57
          1960.64650	         6.65774e+57
          1961.45280	         6.48684e+57
          1962.25910	         5.72478e+57
          1963.06540	         6.69221e+57
          1963.87170	         5.89877e+57
          1964.67800	         6.46648e+57
          1965.48430	         6.88488e+57
          1966.29060	         6.71451e+57
          1967.09690	         7.57405e+57
          1967.90320	         5.62931e+57
          1968.70950	         5.26847e+57
          1969.51580	         5.35001e+57
          1970.32210	         8.05253e+57
          1971.12840	         7.86981e+57
          1971.93470	         4.87446e+57
          1972.74100	         4.57020e+57
          1973.54730	         6.32490e+57
          1974.35360	         6.80448e+57
          1975.15990	         7.58501e+57
          1975.96620	         7.04704e+57
          1976.77250	         8.12272e+57
          1977.57880	         8.40359e+57
          1978.38510	         6.77648e+57
          1979.19140	         6.86670e+57
          1979.99770	         7.65739e+57
          1980.80400	         7.50600e+57
          1981.61030	         6.63783e+57
          1982.41660	         4.67188e+57
          1983.22290	         5.77864e+57
          1984.02920	         5.51333e+57
          1984.83550	         5.54004e+57
          1985.64180	         5.74800e+57
          1986.44810	         6.74380e+57
          1987.25440	         5.90417e+57
          1988.06070	         4.62379e+57
          1988.86700	         5.85315e+57
          1989.67330	         6.39269e+57
          1990.47960	         6.26061e+57
          1991.28590	         5.65923e+57
          1992.09220	         5.17737e+57
          1992.89850	         5.46135e+57
          1993.70480	         5.63610e+57
          1994.51110	         4.91958e+57
          1995.31740	         4.40013e+57
          1996.12370	         3.67112e+57
          1996.93000	         5.52719e+57
          1997.73630	         7.96032e+57
          1998.54260	         7.34521e+57
          1999.34890	         7.37267e+57
          2000.15520	         7.20474e+57
          2000.96150	         6.49526e+57
          2001.76780	         5.58273e+57
          2002.57410	         5.46091e+57
          2003.38040	         6.28143e+57
          2004.18670	         6.82671e+57
          2004.99300	         5.08307e+57
          2005.79930	         7.14055e+57
          2006.60560	         7.77964e+57
          2007.41190	         6.33421e+57
          2008.21820	         6.19500e+57
          2009.02450	         5.71071e+57
          2009.83080	         5.69845e+57
          2010.63710	         6.80398e+57
          2011.44340	         7.04482e+57
          2012.24970	         8.02809e+57
          2013.05600	         6.96006e+57
          2013.86230	         5.81762e+57
          2014.66860	         5.29499e+57
          2015.47490	         4.96401e+57
          2016.28120	         5.95046e+57
          2017.08750	         6.28826e+57
          2017.89380	         6.70473e+57
          2018.70010	         5.57607e+57
          2019.50640	         5.06690e+57
          2020.31270	         5.32851e+57
          2021.11900	         6.86289e+57
          2021.92530	         8.24566e+57
          2022.73160	         8.11516e+57
          2023.53790	         6.85451e+57
          2024.34420	         6.18208e+57
          2025.15050	         5.66179e+57
          2025.95680	         4.78504e+57
          2026.76310	         5.77208e+57
          2027.56940	         7.01956e+57
          2028.37570	         7.30011e+57
          2029.18200	         6.50622e+57
          2029.98830	         5.22752e+57
          2030.79460	         5.84806e+57
          2031.60090	         5.54996e+57
          2032.40720	         5.30505e+57
          2033.21350	         6.34733e+57
          2034.01980	         5.65674e+57
          2034.82610	         4.67041e+57
          2035.63240	         5.07629e+57
          2036.43870	         5.81512e+57
          2037.24500	         6.61246e+57
          2038.05130	         6.45168e+57
          2038.85760	         5.54584e+57
          2039.66390	         5.47779e+57
          2040.47020	         5.24052e+57
          2041.27650	         5.69468e+57
          2042.08280	         5.51981e+57
          2042.88910	         6.00720e+57
          2043.69540	         6.21851e+57
          2044.50170	         6.24484e+57
          2045.30800	         5.41217e+57
          2046.11430	         4.64682e+57
          2046.92060	         5.49123e+57
          2047.72690	         5.99456e+57
          2048.53320	         6.52653e+57
          2049.33950	         5.12233e+57
          2050.14580	         5.11864e+57
          2050.95210	         6.41616e+57
          2051.75840	         7.14991e+57
          2052.56470	         5.60662e+57
          2053.37100	         4.88438e+57
          2054.17730	         4.37532e+57
          2054.98360	         4.34415e+57
          2055.78990	         3.63032e+57
          2056.59620	         3.07312e+57
          2057.40250	         4.63508e+57
          2058.20880	         7.03565e+57
          2059.01510	         6.64140e+57
          2059.82140	         6.03753e+57
          2060.62770	         8.96937e+57
          2061.43400	         1.48755e+58
          2062.24030	         1.08192e+58
          2063.04660	         3.05034e+57
          2063.85290	         1.27688e+56
          2064.65920	        -7.81635e+56
          2065.46550	        -4.85259e+57
          2066.27180	        -9.77381e+57
          2067.07810	         4.54082e+57
          2067.88440	         4.30680e+57
          2068.69070	         5.95963e+57
          2069.49700	         5.67098e+57
          2070.30330	         5.08983e+57
          2071.10960	         4.93284e+57
          2071.91590	         5.97924e+57
          2072.72220	         4.36323e+57
          2073.52850	         4.60535e+57
          2074.33480	         4.35733e+57
          2075.14110	         4.73778e+57
          2075.94740	         4.51884e+57
          2076.75370	         4.28113e+57
          2077.56000	         5.78037e+57
          2078.36630	         5.62065e+57
          2079.17260	         5.24376e+57
          2079.97890	         6.12215e+57
          2080.78520	         6.29967e+57
          2081.59150	         4.89290e+57
          2082.39780	         5.01356e+57
          2083.20410	         3.03965e+57
          2084.01040	         3.34039e+57
          2084.81670	         4.96407e+57
          2085.62300	         3.52033e+57
          2086.42930	         3.21238e+57
          2087.23560	         4.67163e+57
          2088.04190	         5.35727e+57
          2088.84820	         2.17588e+57
          2089.65450	         2.64942e+57
          2090.46080	         9.22194e+56
          2091.26710	         2.55837e+57
          2092.07340	         3.32435e+57
          2092.87970	         1.85917e+57
          2093.68600	        -1.29851e+57
          2094.49230	         5.19994e+56
          2095.29860	         4.24498e+57
          2096.10490	         4.76516e+57
          2096.91120	         2.87096e+57
          2097.71750	         1.07222e+57
          2098.52380	         3.51946e+56
          2099.33010	         2.31417e+57
          2100.13640	         2.32138e+57
          2100.94270	         2.49284e+57
          2101.74900	         3.21871e+57
          2102.55530	         1.58817e+57
          2103.36160	         5.28010e+56
          2104.16790	         4.54935e+57
          2104.97420	         1.14768e+57
          2105.78050	        -9.32344e+56
          2106.58680	         1.11925e+57
          2107.39310	         9.75130e+56
          2108.19940	         1.23606e+57
          2109.00570	         5.59052e+56
          2109.81200	         1.09107e+57
          2110.61830	         3.09736e+57
          2111.42460	        -2.19317e+57
          2112.23090	        -3.54567e+55
          2113.03720	         1.10989e+56
          2113.84350	         1.44701e+57
          2114.64980	         5.39129e+57
          2115.45610	         1.31146e+57
          2116.26240	        -1.69955e+57
          2117.06870	        -1.46513e+57
          2117.87500	        -5.61691e+57
          2118.68130	        -3.17413e+57
          2119.48760	        -3.13096e+57
          2120.29390	        -5.56724e+57
          2121.10020	        -2.98538e+57
          2121.90650	        -3.01048e+56
          2122.71280	         1.35761e+57
          2123.51910	        -6.02499e+56
          2124.32540	         1.37762e+57
          2125.13170	        -2.67252e+56
          2125.93800	         9.03788e+57
          2126.74430	        -2.72188e+56
          2127.55060	        -5.44847e+57
          2128.35690	        -3.17616e+57
          2129.16320	         7.00403e+56
          2129.96950	        -1.99713e+57
          2130.77580	        -5.40455e+57
          2131.58210	        -7.29311e+57
          2132.38840	        -1.19797e+56
          2133.19470	         1.82789e+57
          2134.00100	         1.57645e+57
          2134.80730	        -1.02884e+58
          2135.61360	        -1.94018e+57
          2136.41990	        -5.32361e+56
          2137.22620	        -6.63678e+57
          2138.03250	         8.72042e+57
          2138.83880	        -4.64709e+56
          2139.64510	        -2.88495e+57
          2140.45140	        -5.30323e+57
          2141.25770	        -8.26530e+57
          2142.06400	        -6.71014e+57
          2142.87030	         2.44251e+57
          2143.67660	         1.37298e+58
          2144.48290	        -1.14233e+57
          2145.28920	         7.90162e+57
          2146.09550	        -1.05401e+58
          2146.90180	        -5.76761e+57
          2147.70810	         2.85437e+57
          2148.51440	        -3.27980e+57
          2149.32070	        -4.56169e+57
          2150.12700	        -6.85725e+57
          2150.93330	         7.77969e+56
          2151.73960	         8.92872e+56
          2152.54590	        -7.21332e+57
          2153.35220	        -9.26109e+56
          2154.15850	        -3.14931e+57
          2154.96480	         1.02248e+57
          2155.77110	        -8.05836e+55
          2156.57740	         2.35127e+57
          2157.38370	         3.03016e+57
          2158.19000	        -7.00384e+56
          2158.99630	        -7.51486e+57
          2159.80260	        -2.32238e+58
          2160.60890	        -8.55793e+57
          2161.41520	         3.76229e+57
          2162.22150	        -1.54508e+57
          2163.02780	        -5.19155e+57
          2163.83410	         3.32361e+57
          2164.64040	        -3.34567e+57
          2165.44670	        -1.75404e+57
          2166.25300	        -2.21142e+58
          2167.05930	        -2.76935e+58
          2167.86560	        -1.44962e+58
          2168.67190	        -7.78835e+57
          2169.47820	        -2.20540e+57
          2170.28450	        -1.23906e+58
          2171.09080	        -4.71658e+55
          2171.89710	         5.41253e+56
          2172.70340	        -7.62393e+57
          2173.50970	        -9.16643e+57
          2174.31600	        -2.65227e+57
          2175.12230	        -1.06986e+57
          2175.92860	        -4.14912e+57
          2176.73490	        -9.10523e+57
          2177.54120	        -8.85146e+57
          2178.34750	        -4.49080e+57
          2179.15380	                 nan
          2179.96010	                 nan
          2180.76640	                 nan
          2181.57270	                 nan
          2182.37900	                 nan
          2183.18530	                 nan
          2183.99160	                 nan
          2184.79790	                 nan
          2185.60420	                 nan
          2186.41050	                 nan
          2187.21680	                 nan
          2188.02310	                 nan
          2188.82940	                 nan
          2189.63570	                 nan
          2190.44200	                 nan
          2191.24830	                 nan
          2192.05460	                 nan
          2192.86090	                 nan
          2193.66720	                 nan
          2194.47350	                 nan
          2195.27980	                 nan
          2196.08610	                 nan
          2196.89240	                 nan
          2197.69870	                 nan
          2198.50500	                 nan
          2199.31130	                 nan
          2200.11760	                 nan
          2200.92390	                 nan
          2201.73020	                 nan
          2202.53650	                 nan
          2203.34280	                 nan
          2204.14910	                 nan
          2204.95540	                 nan
          2205.76170	                 nan
          2206.56800	                 nan
          2207.37430	                 nan
          2208.18060	                 nan
          2208.98690	                 nan
          2209.79320	                 nan
          2210.59950	                 nan
          2211.40580	                 nan
          2212.21210	                 nan
          2213.01840	                 nan
          2213.82470	                 nan
          2214.63100	                 nan
          2215.43730	         0.00000e+00
