#sample_37_stacked_spectrum_rest_UV-bands_median_H-alpha_noDC.txt
#median Lum: 1.68679e+42
#Rest-frame wavelength (A) | Luminosity (erg/s/A)
#
          1110.00000	         0.00000e+00
          1110.80630	         3.15242e+59
          1111.61260	         4.30950e+59
          1112.41890	         3.24676e+59
          1113.22520	         1.23173e+59
          1114.03150	         1.06113e+58
          1114.83780	         1.28311e+59
          1115.64410	         3.74576e+58
          1116.45040	         2.97977e+58
          1117.25670	         8.51304e+58
          1118.06300	         1.22349e+59
          1118.86930	        -9.57264e+58
          1119.67560	         1.50014e+59
          1120.48190	         1.04580e+59
          1121.28820	        -8.34472e+58
          1122.09450	         4.69084e+58
          1122.90080	         5.48109e+58
          1123.70710	         8.90343e+58
          1124.51340	         1.13233e+59
          1125.31970	         6.17915e+58
          1126.12600	         7.16503e+57
          1126.93230	        -7.74630e+58
          1127.73860	        -7.51966e+58
          1128.54490	         9.22643e+57
          1129.35120	         9.21292e+57
          1130.15750	        -4.46000e+57
          1130.96380	        -2.62035e+58
          1131.77010	         3.17326e+58
          1132.57640	         2.03145e+58
          1133.38270	         2.75152e+58
          1134.18900	         3.17313e+58
          1134.99530	         2.82612e+58
          1135.80160	         2.01412e+58
          1136.60790	         1.44552e+58
          1137.41420	         7.70578e+57
          1138.22050	         2.72294e+58
          1139.02680	         3.41729e+58
          1139.83310	         2.56658e+58
          1140.63940	         2.27210e+58
          1141.44570	        -1.50353e+58
          1142.25200	        -1.61968e+57
          1143.05830	         1.24722e+58
          1143.86460	         7.53398e+57
          1144.67090	         1.33398e+58
          1145.47720	         1.60000e+58
          1146.28350	         1.83652e+58
          1147.08980	         1.94454e+58
          1147.89610	         2.58748e+58
          1148.70240	         2.48160e+58
          1149.50870	         3.00344e+58
          1150.31500	         1.69319e+58
          1151.12130	         1.30610e+58
          1151.92760	         6.34377e+57
          1152.73390	         9.14450e+57
          1153.54020	         1.33232e+58
          1154.34650	         2.22883e+58
          1155.15280	         2.89336e+58
          1155.95910	         1.01202e+58
          1156.76540	         1.73776e+58
          1157.57170	         9.90170e+57
          1158.37800	        -2.42223e+57
          1159.18430	        -3.15916e+57
          1159.99060	         4.63093e+57
          1160.79690	        -1.80511e+57
          1161.60320	         6.65488e+57
          1162.40950	         1.67055e+58
          1163.21580	         2.87328e+58
          1164.02210	         1.66072e+58
          1164.82840	         7.85742e+57
          1165.63470	         1.25871e+58
          1166.44100	         2.56892e+58
          1167.24730	         2.45495e+58
          1168.05360	         1.33958e+58
          1168.85990	         3.93404e+57
          1169.66620	         1.23106e+58
          1170.47250	         1.27682e+58
          1171.27880	         1.09989e+58
          1172.08510	         1.44163e+58
          1172.89140	         1.60364e+58
          1173.69770	         3.55834e+57
          1174.50400	         9.78756e+57
          1175.31030	         1.60350e+58
          1176.11660	         1.53122e+58
          1176.92290	         1.06700e+58
          1177.72920	         1.19613e+58
          1178.53550	         9.74497e+57
          1179.34180	         2.08168e+57
          1180.14810	         5.72298e+57
          1180.95440	         8.47640e+57
          1181.76070	         4.55721e+57
          1182.56700	         5.31026e+57
          1183.37330	         8.36044e+57
          1184.17960	         1.41522e+58
          1184.98590	         1.24215e+58
          1185.79220	         1.37570e+58
          1186.59850	         1.61895e+58
          1187.40480	         1.28433e+58
          1188.21110	         1.58010e+58
          1189.01740	         6.88046e+57
          1189.82370	         1.25705e+58
          1190.63000	         2.00259e+58
          1191.43630	         1.59018e+58
          1192.24260	         1.28558e+58
          1193.04890	         1.46666e+58
          1193.85520	         1.08005e+58
          1194.66150	         3.47525e+57
          1195.46780	         7.84577e+57
          1196.27410	         1.17735e+58
          1197.08040	         9.70612e+57
          1197.88670	         1.53281e+58
          1198.69300	         1.52190e+58
          1199.49930	         1.41588e+58
          1200.30560	         1.18210e+58
          1201.11190	         9.09229e+57
          1201.91820	         8.63484e+57
          1202.72450	         1.13467e+58
          1203.53080	         1.49361e+58
          1204.33710	         9.98501e+57
          1205.14340	         9.93392e+57
          1205.94970	         9.05404e+57
          1206.75600	         5.54321e+57
          1207.56230	         3.61987e+57
          1208.36860	         6.71163e+57
          1209.17490	         1.62351e+57
          1209.98120	         2.17550e+57
          1210.78750	         6.31620e+57
          1211.59380	         1.59279e+58
          1212.40010	         2.03823e+58
          1213.20640	         1.90724e+58
          1214.01270	         2.16590e+58
          1214.81900	         2.91711e+58
          1215.62530	         4.40765e+58
          1216.43160	         8.64726e+58
          1217.23790	         1.50442e+59
          1218.04420	         1.15078e+59
          1218.85050	         8.14482e+58
          1219.65680	         5.53800e+58
          1220.46310	         3.21854e+58
          1221.26940	         1.99951e+58
          1222.07570	         1.36779e+58
          1222.88200	         1.48501e+58
          1223.68830	         1.19671e+58
          1224.49460	         5.93009e+57
          1225.30090	         8.18258e+57
          1226.10720	         6.57050e+57
          1226.91350	         6.07492e+57
          1227.71980	         6.37179e+57
          1228.52610	         1.16867e+58
          1229.33240	         7.59704e+57
          1230.13870	         5.63157e+57
          1230.94500	         9.13432e+57
          1231.75130	         4.88261e+57
          1232.55760	         7.55732e+57
          1233.36390	         7.99671e+57
          1234.17020	         8.71485e+57
          1234.97650	         7.25794e+57
          1235.78280	         5.49370e+57
          1236.58910	         5.75557e+57
          1237.39540	         8.86116e+57
          1238.20170	         1.12839e+58
          1239.00800	         1.02404e+58
          1239.81430	         1.33239e+58
          1240.62060	         1.17176e+58
          1241.42690	         9.47870e+57
          1242.23320	         1.08524e+58
          1243.03950	         7.67944e+57
          1243.84580	         7.28947e+57
          1244.65210	         1.02627e+58
          1245.45840	         1.21144e+58
          1246.26470	         9.64049e+57
          1247.07100	         9.01567e+57
          1247.87730	         7.65291e+57
          1248.68360	         3.85509e+57
          1249.48990	         7.15452e+57
          1250.29620	         9.80229e+57
          1251.10250	         6.92477e+57
          1251.90880	         3.95906e+57
          1252.71510	         4.40611e+57
          1253.52140	         6.50960e+57
          1254.32770	         9.79451e+57
          1255.13400	         1.33865e+58
          1255.94030	         1.23388e+58
          1256.74660	         9.80476e+57
          1257.55290	         1.03901e+58
          1258.35920	         9.39329e+57
          1259.16550	         5.82569e+57
          1259.97180	         6.25456e+57
          1260.77810	         1.04329e+58
          1261.58440	         1.22906e+58
          1262.39070	         7.92743e+57
          1263.19700	         7.58969e+57
          1264.00330	         8.92902e+57
          1264.80960	         1.12163e+58
          1265.61590	         1.18604e+58
          1266.42220	         1.23610e+58
          1267.22850	         1.10246e+58
          1268.03480	         1.11407e+58
          1268.84110	         1.30246e+58
          1269.64740	         1.22639e+58
          1270.45370	         1.28964e+58
          1271.26000	         1.30556e+58
          1272.06630	         1.28200e+58
          1272.87260	         1.25533e+58
          1273.67890	         1.24773e+58
          1274.48520	         1.31050e+58
          1275.29150	         1.14970e+58
          1276.09780	         9.96457e+57
          1276.90410	         1.29571e+58
          1277.71040	         1.22055e+58
          1278.51670	         1.17682e+58
          1279.32300	         1.32297e+58
          1280.12930	         1.26831e+58
          1280.93560	         1.06480e+58
          1281.74190	         1.05700e+58
          1282.54820	         1.31871e+58
          1283.35450	         1.25095e+58
          1284.16080	         1.04414e+58
          1284.96710	         1.17177e+58
          1285.77340	         1.13263e+58
          1286.57970	         1.28315e+58
          1287.38600	         1.65406e+58
          1288.19230	         1.70527e+58
          1288.99860	         1.36055e+58
          1289.80490	         1.05906e+58
          1290.61120	         1.36880e+58
          1291.41750	         1.30063e+58
          1292.22380	         9.57163e+57
          1293.03010	         1.09726e+58
          1293.83640	         1.16134e+58
          1294.64270	         9.46395e+57
          1295.44900	         7.43647e+57
          1296.25530	         7.60318e+57
          1297.06160	         9.55085e+57
          1297.86790	         9.91016e+57
          1298.67420	         1.03545e+58
          1299.48050	         1.00051e+58
          1300.28680	         8.58100e+57
          1301.09310	         7.78108e+57
          1301.89940	         3.59826e+57
          1302.70570	         7.06185e+57
          1303.51200	         8.45296e+57
          1304.31830	         8.00458e+57
          1305.12460	         9.79244e+57
          1305.93090	         1.02884e+58
          1306.73720	         1.09254e+58
          1307.54350	         1.37155e+58
          1308.34980	         1.54414e+58
          1309.15610	         1.56825e+58
          1309.96240	         1.68789e+58
          1310.76870	         1.31232e+58
          1311.57500	         9.23308e+57
          1312.38130	         1.10644e+58
          1313.18760	         1.38454e+58
          1313.99390	         1.44293e+58
          1314.80020	         1.51491e+58
          1315.60650	         1.32830e+58
          1316.41280	         1.01794e+58
          1317.21910	         1.07963e+58
          1318.02540	         1.05566e+58
          1318.83170	         1.09784e+58
          1319.63800	         1.14475e+58
          1320.44430	         9.31267e+57
          1321.25060	         1.04887e+58
          1322.05690	         1.18837e+58
          1322.86320	         1.31680e+58
          1323.66950	         1.13358e+58
          1324.47580	         9.28232e+57
          1325.28210	         9.74979e+57
          1326.08840	         1.05557e+58
          1326.89470	         1.11262e+58
          1327.70100	         8.87637e+57
          1328.50730	         6.95120e+57
          1329.31360	         9.21671e+57
          1330.11990	         9.11919e+57
          1330.92620	         8.12989e+57
          1331.73250	         1.04494e+58
          1332.53880	         9.68307e+57
          1333.34510	         9.60520e+57
          1334.15140	         9.51355e+57
          1334.95770	         8.99061e+57
          1335.76400	         1.05176e+58
          1336.57030	         1.04669e+58
          1337.37660	         9.50108e+57
          1338.18290	         1.01782e+58
          1338.98920	         1.04820e+58
          1339.79550	         9.99954e+57
          1340.60180	         1.22550e+58
          1341.40810	         1.31423e+58
          1342.21440	         1.24257e+58
          1343.02070	         1.27670e+58
          1343.82700	         1.19970e+58
          1344.63330	         1.11370e+58
          1345.43960	         1.20524e+58
          1346.24590	         1.19448e+58
          1347.05220	         1.27671e+58
          1347.85850	         1.10375e+58
          1348.66480	         1.23487e+58
          1349.47110	         1.28442e+58
          1350.27740	         1.26838e+58
          1351.08370	         1.25656e+58
          1351.89000	         1.09795e+58
          1352.69630	         1.05457e+58
          1353.50260	         1.21203e+58
          1354.30890	         1.22197e+58
          1355.11520	         1.32317e+58
          1355.92150	         1.17672e+58
          1356.72780	         1.04192e+58
          1357.53410	         9.69843e+57
          1358.34040	         9.28157e+57
          1359.14670	         9.21745e+57
          1359.95300	         1.04475e+58
          1360.75930	         1.10902e+58
          1361.56560	         9.49635e+57
          1362.37190	         8.35290e+57
          1363.17820	         9.92635e+57
          1363.98450	         1.08298e+58
          1364.79080	         1.19410e+58
          1365.59710	         1.36056e+58
          1366.40340	         1.32562e+58
          1367.20970	         1.04004e+58
          1368.01600	         8.92047e+57
          1368.82230	         9.20509e+57
          1369.62860	         1.08947e+58
          1370.43490	         9.67015e+57
          1371.24120	         9.66361e+57
          1372.04750	         8.37144e+57
          1372.85380	         1.04132e+58
          1373.66010	         1.13653e+58
          1374.46640	         1.11669e+58
          1375.27270	         9.86050e+57
          1376.07900	         7.45059e+57
          1376.88530	         7.60985e+57
          1377.69160	         8.24841e+57
          1378.49790	         5.71839e+57
          1379.30420	         7.20501e+57
          1380.11050	         8.92095e+57
          1380.91680	         7.52191e+57
          1381.72310	         7.35283e+57
          1382.52940	         8.42733e+57
          1383.33570	         8.76902e+57
          1384.14200	         1.06227e+58
          1384.94830	         1.10037e+58
          1385.75460	         1.04908e+58
          1386.56090	         1.12872e+58
          1387.36720	         1.06137e+58
          1388.17350	         1.23764e+58
          1388.97980	         1.14914e+58
          1389.78610	         7.67787e+57
          1390.59240	         6.94669e+57
          1391.39870	         6.56232e+57
          1392.20500	         7.19068e+57
          1393.01130	         7.17034e+57
          1393.81760	         6.39163e+57
          1394.62390	         6.48460e+57
          1395.43020	         6.58419e+57
          1396.23650	         6.84978e+57
          1397.04280	         7.48562e+57
          1397.84910	         8.48224e+57
          1398.65540	         7.58722e+57
          1399.46170	         8.32452e+57
          1400.26800	         9.26222e+57
          1401.07430	         8.78621e+57
          1401.88060	         8.00834e+57
          1402.68690	         9.18663e+57
          1403.49320	         9.52016e+57
          1404.29950	         9.30480e+57
          1405.10580	         1.08846e+58
          1405.91210	         1.14222e+58
          1406.71840	         9.87550e+57
          1407.52470	         9.45087e+57
          1408.33100	         9.98903e+57
          1409.13730	         1.10301e+58
          1409.94360	         1.12353e+58
          1410.74990	         1.12538e+58
          1411.55620	         1.04496e+58
          1412.36250	         8.89538e+57
          1413.16880	         8.32271e+57
          1413.97510	         8.36031e+57
          1414.78140	         8.62371e+57
          1415.58770	         9.89967e+57
          1416.39400	         9.98735e+57
          1417.20030	         1.02821e+58
          1418.00660	         9.02223e+57
          1418.81290	         8.19433e+57
          1419.61920	         1.02181e+58
          1420.42550	         1.27514e+58
          1421.23180	         1.38071e+58
          1422.03810	         1.33462e+58
          1422.84440	         1.14537e+58
          1423.65070	         1.10792e+58
          1424.45700	         9.88343e+57
          1425.26330	         7.62830e+57
          1426.06960	         8.78411e+57
          1426.87590	         1.06648e+58
          1427.68220	         9.91839e+57
          1428.48850	         9.92916e+57
          1429.29480	         1.09745e+58
          1430.10110	         1.11674e+58
          1430.90740	         8.24335e+57
          1431.71370	         7.29369e+57
          1432.52000	         8.15759e+57
          1433.32630	         7.73103e+57
          1434.13260	         7.02321e+57
          1434.93890	         8.16871e+57
          1435.74520	         8.94688e+57
          1436.55150	         8.68863e+57
          1437.35780	         9.06046e+57
          1438.16410	         9.00207e+57
          1438.97040	         9.70692e+57
          1439.77670	         8.85305e+57
          1440.58300	         8.81821e+57
          1441.38930	         9.72745e+57
          1442.19560	         1.04036e+58
          1443.00190	         1.03635e+58
          1443.80820	         1.05255e+58
          1444.61450	         9.36864e+57
          1445.42080	         8.84691e+57
          1446.22710	         1.11540e+58
          1447.03340	         1.04363e+58
          1447.83970	         1.07988e+58
          1448.64600	         1.09148e+58
          1449.45230	         9.51894e+57
          1450.25860	         9.59444e+57
          1451.06490	         9.25745e+57
          1451.87120	         7.66422e+57
          1452.67750	         7.45015e+57
          1453.48380	         8.18686e+57
          1454.29010	         7.08863e+57
          1455.09640	         6.41702e+57
          1455.90270	         8.05790e+57
          1456.70900	         9.08571e+57
          1457.51530	         9.84465e+57
          1458.32160	         1.23270e+58
          1459.12790	         1.18093e+58
          1459.93420	         9.59350e+57
          1460.74050	         7.48863e+57
          1461.54680	         8.36107e+57
          1462.35310	         8.02681e+57
          1463.15940	         8.83366e+57
          1463.96570	         1.13396e+58
          1464.77200	         1.19077e+58
          1465.57830	         9.66103e+57
          1466.38460	         9.23734e+57
          1467.19090	         8.58490e+57
          1467.99720	         9.40675e+57
          1468.80350	         9.79484e+57
          1469.60980	         9.87209e+57
          1470.41610	         1.06004e+58
          1471.22240	         9.33634e+57
          1472.02870	         9.14920e+57
          1472.83500	         9.68374e+57
          1473.64130	         9.70033e+57
          1474.44760	         9.10803e+57
          1475.25390	         8.46742e+57
          1476.06020	         9.15538e+57
          1476.86650	         8.61824e+57
          1477.67280	         8.47006e+57
          1478.47910	         8.06456e+57
          1479.28540	         6.93139e+57
          1480.09170	         8.56978e+57
          1480.89800	         9.43662e+57
          1481.70430	         9.65450e+57
          1482.51060	         8.87629e+57
          1483.31690	         8.35525e+57
          1484.12320	         8.10812e+57
          1484.92950	         8.04631e+57
          1485.73580	         8.29651e+57
          1486.54210	         8.13911e+57
          1487.34840	         8.33308e+57
          1488.15470	         7.71936e+57
          1488.96100	         8.15523e+57
          1489.76730	         9.20868e+57
          1490.57360	         8.69596e+57
          1491.37990	         8.01301e+57
          1492.18620	         8.28873e+57
          1492.99250	         8.62018e+57
          1493.79880	         9.18967e+57
          1494.60510	         9.29806e+57
          1495.41140	         7.34275e+57
          1496.21770	         8.31877e+57
          1497.02400	         1.07919e+58
          1497.83030	         8.67125e+57
          1498.63660	         7.05029e+57
          1499.44290	         6.84400e+57
          1500.24920	         6.88109e+57
          1501.05550	         7.81680e+57
          1501.86180	         7.80800e+57
          1502.66810	         9.24179e+57
          1503.47440	         9.48326e+57
          1504.28070	         8.30191e+57
          1505.08700	         8.51553e+57
          1505.89330	         9.53455e+57
          1506.69960	         8.70096e+57
          1507.50590	         8.27722e+57
          1508.31220	         8.46168e+57
          1509.11850	         7.74473e+57
          1509.92480	         8.40801e+57
          1510.73110	         9.05015e+57
          1511.53740	         7.81637e+57
          1512.34370	         6.69344e+57
          1513.15000	         8.86866e+57
          1513.95630	         1.06063e+58
          1514.76260	         9.89528e+57
          1515.56890	         9.17393e+57
          1516.37520	         9.29301e+57
          1517.18150	         8.75201e+57
          1517.98780	         7.07626e+57
          1518.79410	         6.94286e+57
          1519.60040	         6.87970e+57
          1520.40670	         8.49701e+57
          1521.21300	         9.25947e+57
          1522.01930	         8.01731e+57
          1522.82560	         9.18978e+57
          1523.63190	         9.81402e+57
          1524.43820	         7.41822e+57
          1525.24450	         6.21551e+57
          1526.05080	         6.13852e+57
          1526.85710	         5.98891e+57
          1527.66340	         6.64955e+57
          1528.46970	         8.80417e+57
          1529.27600	         8.76387e+57
          1530.08230	         7.29966e+57
          1530.88860	         8.19490e+57
          1531.69490	         9.52234e+57
          1532.50120	         9.80301e+57
          1533.30750	         9.88128e+57
          1534.11380	         9.75786e+57
          1534.92010	         8.82427e+57
          1535.72640	         8.17081e+57
          1536.53270	         8.22377e+57
          1537.33900	         8.72633e+57
          1538.14530	         8.47282e+57
          1538.95160	         8.95210e+57
          1539.75790	         9.19505e+57
          1540.56420	         9.15092e+57
          1541.37050	         8.59750e+57
          1542.17680	         7.89728e+57
          1542.98310	         7.50722e+57
          1543.78940	         6.60246e+57
          1544.59570	         5.69725e+57
          1545.40200	         7.39749e+57
          1546.20830	         9.00595e+57
          1547.01460	         9.89456e+57
          1547.82090	         1.19396e+58
          1548.62720	         1.24761e+58
          1549.43350	         1.22827e+58
          1550.23980	         1.17249e+58
          1551.04610	         1.08856e+58
          1551.85240	         1.21526e+58
          1552.65870	         1.11176e+58
          1553.46500	         9.73516e+57
          1554.27130	         9.96085e+57
          1555.07760	         9.53342e+57
          1555.88390	         8.02422e+57
          1556.69020	         9.13376e+57
          1557.49650	         8.95656e+57
          1558.30280	         8.49475e+57
          1559.10910	         8.29956e+57
          1559.91540	         8.24852e+57
          1560.72170	         8.13866e+57
          1561.52800	         7.95889e+57
          1562.33430	         7.80322e+57
          1563.14060	         7.79351e+57
          1563.94690	         7.64951e+57
          1564.75320	         8.13404e+57
          1565.55950	         6.84328e+57
          1566.36580	         6.39929e+57
          1567.17210	         7.74938e+57
          1567.97840	         8.46696e+57
          1568.78470	         8.31113e+57
          1569.59100	         8.41495e+57
          1570.39730	         8.45627e+57
          1571.20360	         7.69503e+57
          1572.00990	         8.22902e+57
          1572.81620	         8.45838e+57
          1573.62250	         8.96800e+57
          1574.42880	         8.52249e+57
          1575.23510	         7.23134e+57
          1576.04140	         7.75611e+57
          1576.84770	         8.35894e+57
          1577.65400	         8.72405e+57
          1578.46030	         1.03370e+58
          1579.26660	         1.05385e+58
          1580.07290	         9.59331e+57
          1580.87920	         8.18173e+57
          1581.68550	         7.68387e+57
          1582.49180	         7.71099e+57
          1583.29810	         7.59935e+57
          1584.10440	         7.84049e+57
          1584.91070	         8.14211e+57
          1585.71700	         8.48501e+57
          1586.52330	         8.40444e+57
          1587.32960	         8.32134e+57
          1588.13590	         8.78491e+57
          1588.94220	         8.51060e+57
          1589.74850	         8.65450e+57
          1590.55480	         8.73037e+57
          1591.36110	         8.21372e+57
          1592.16740	         8.89734e+57
          1592.97370	         8.71905e+57
          1593.78000	         8.57721e+57
          1594.58630	         8.94104e+57
          1595.39260	         7.78917e+57
          1596.19890	         8.09151e+57
          1597.00520	         9.77655e+57
          1597.81150	         8.78263e+57
          1598.61780	         7.00194e+57
          1599.42410	         6.37467e+57
          1600.23040	         6.93771e+57
          1601.03670	         7.50289e+57
          1601.84300	         7.43076e+57
          1602.64930	         8.30962e+57
          1603.45560	         8.36475e+57
          1604.26190	         7.79320e+57
          1605.06820	         7.32558e+57
          1605.87450	         6.79299e+57
          1606.68080	         6.73040e+57
          1607.48710	         6.03988e+57
          1608.29340	         6.48582e+57
          1609.09970	         6.97955e+57
          1609.90600	         7.35253e+57
          1610.71230	         6.99101e+57
          1611.51860	         6.29908e+57
          1612.32490	         5.59960e+57
          1613.13120	         7.40462e+57
          1613.93750	         8.23373e+57
          1614.74380	         8.38161e+57
          1615.55010	         8.89171e+57
          1616.35640	         8.94560e+57
          1617.16270	         8.35801e+57
          1617.96900	         8.62480e+57
          1618.77530	         7.69179e+57
          1619.58160	         8.33651e+57
          1620.38790	         8.70790e+57
          1621.19420	         9.58535e+57
          1622.00050	         8.71150e+57
          1622.80680	         8.84577e+57
          1623.61310	         8.08270e+57
          1624.41940	         7.89667e+57
          1625.22570	         8.68298e+57
          1626.03200	         8.53519e+57
          1626.83830	         8.63885e+57
          1627.64460	         7.59905e+57
          1628.45090	         7.22007e+57
          1629.25720	         9.32583e+57
          1630.06350	         9.78071e+57
          1630.86980	         7.25919e+57
          1631.67610	         7.27665e+57
          1632.48240	         6.98297e+57
          1633.28870	         7.31701e+57
          1634.09500	         8.89334e+57
          1634.90130	         1.04667e+58
          1635.70760	         8.41102e+57
          1636.51390	         6.71563e+57
          1637.32020	         7.16393e+57
          1638.12650	         8.45268e+57
          1638.93280	         9.20786e+57
          1639.73910	         1.00156e+58
          1640.54540	         1.04265e+58
          1641.35170	         9.11815e+57
          1642.15800	         8.81254e+57
          1642.96430	         9.48831e+57
          1643.77060	         8.74986e+57
          1644.57690	         7.65765e+57
          1645.38320	         8.02917e+57
          1646.18950	         7.54809e+57
          1646.99580	         8.21045e+57
          1647.80210	         8.04484e+57
          1648.60840	         7.40273e+57
          1649.41470	         8.37360e+57
          1650.22100	         8.32563e+57
          1651.02730	         7.58021e+57
          1651.83360	         7.09979e+57
          1652.63990	         7.27438e+57
          1653.44620	         7.88300e+57
          1654.25250	         7.45933e+57
          1655.05880	         7.22036e+57
          1655.86510	         8.02696e+57
          1656.67140	         8.10041e+57
          1657.47770	         7.99957e+57
          1658.28400	         9.06199e+57
          1659.09030	         9.29149e+57
          1659.89660	         9.35883e+57
          1660.70290	         9.82649e+57
          1661.50920	         1.00322e+58
          1662.31550	         8.76429e+57
          1663.12180	         8.68264e+57
          1663.92810	         9.65071e+57
          1664.73440	         9.75174e+57
          1665.54070	         1.13338e+58
          1666.34700	         1.16148e+58
          1667.15330	         1.07295e+58
          1667.95960	         8.90713e+57
          1668.76590	         6.69243e+57
          1669.57220	         7.27950e+57
          1670.37850	         7.99684e+57
          1671.18480	         7.23745e+57
          1671.99110	         5.98311e+57
          1672.79740	         6.38713e+57
          1673.60370	         6.88862e+57
          1674.41000	         7.22700e+57
          1675.21630	         7.73957e+57
          1676.02260	         7.23924e+57
          1676.82890	         6.57321e+57
          1677.63520	         6.18743e+57
          1678.44150	         7.11713e+57
          1679.24780	         8.12826e+57
          1680.05410	         7.09616e+57
          1680.86040	         5.74555e+57
          1681.66670	         6.68480e+57
          1682.47300	         7.86078e+57
          1683.27930	         7.87594e+57
          1684.08560	         9.15029e+57
          1684.89190	         8.47349e+57
          1685.69820	         5.55483e+57
          1686.50450	         6.18424e+57
          1687.31080	         6.94571e+57
          1688.11710	         7.04439e+57
          1688.92340	         6.53484e+57
          1689.72970	         6.10323e+57
          1690.53600	         6.86763e+57
          1691.34230	         7.53539e+57
          1692.14860	         7.97514e+57
          1692.95490	         8.57792e+57
          1693.76120	         6.94478e+57
          1694.56750	         6.17423e+57
          1695.37380	         8.36941e+57
          1696.18010	         8.32385e+57
          1696.98640	         8.31200e+57
          1697.79270	         8.40175e+57
          1698.59900	         8.33188e+57
          1699.40530	         7.59851e+57
          1700.21160	         7.17360e+57
          1701.01790	         8.05474e+57
          1701.82420	         9.06530e+57
          1702.63050	         8.53501e+57
          1703.43680	         7.58728e+57
          1704.24310	         9.29260e+57
          1705.04940	         8.36980e+57
          1705.85570	         7.55664e+57
          1706.66200	         9.01626e+57
          1707.46830	         7.99926e+57
          1708.27460	         7.05902e+57
          1709.08090	         6.61674e+57
          1709.88720	         6.14466e+57
          1710.69350	         6.50593e+57
          1711.49980	         6.82812e+57
          1712.30610	         7.14377e+57
          1713.11240	         8.89301e+57
          1713.91870	         7.15656e+57
          1714.72500	         7.42223e+57
          1715.53130	         8.89293e+57
          1716.33760	         7.91377e+57
          1717.14390	         8.06397e+57
          1717.95020	         8.21957e+57
          1718.75650	         8.26892e+57
          1719.56280	         7.88831e+57
          1720.36910	         6.98686e+57
          1721.17540	         5.90603e+57
          1721.98170	         5.66329e+57
          1722.78800	         5.92574e+57
          1723.59430	         7.14432e+57
          1724.40060	         8.59510e+57
          1725.20690	         8.57693e+57
          1726.01320	         7.74928e+57
          1726.81950	         7.09713e+57
          1727.62580	         7.11310e+57
          1728.43210	         6.19547e+57
          1729.23840	         6.51051e+57
          1730.04470	         7.64190e+57
          1730.85100	         8.73695e+57
          1731.65730	         8.05870e+57
          1732.46360	         7.09517e+57
          1733.26990	         8.28167e+57
          1734.07620	         7.90986e+57
          1734.88250	         7.61889e+57
          1735.68880	         7.89538e+57
          1736.49510	         8.50484e+57
          1737.30140	         8.43759e+57
          1738.10770	         6.26101e+57
          1738.91400	         6.56830e+57
          1739.72030	         6.69751e+57
          1740.52660	         5.91454e+57
          1741.33290	         6.32030e+57
          1742.13920	         5.73662e+57
          1742.94550	         6.06668e+57
          1743.75180	         7.17277e+57
          1744.55810	         7.77211e+57
          1745.36440	         7.18729e+57
          1746.17070	         6.08085e+57
          1746.97700	         5.57427e+57
          1747.78330	         6.79024e+57
          1748.58960	         6.61301e+57
          1749.39590	         4.99465e+57
          1750.20220	         5.08841e+57
          1751.00850	         5.57736e+57
          1751.81480	         5.33747e+57
          1752.62110	         6.67106e+57
          1753.42740	         6.92741e+57
          1754.23370	         6.33266e+57
          1755.04000	         7.37035e+57
          1755.84630	         8.30625e+57
          1756.65260	         8.50791e+57
          1757.45890	         8.25732e+57
          1758.26520	         6.90225e+57
          1759.07150	         8.03230e+57
          1759.87780	         8.88700e+57
          1760.68410	         7.43353e+57
          1761.49040	         7.98947e+57
          1762.29670	         7.18186e+57
          1763.10300	         6.98435e+57
          1763.90930	         7.33439e+57
          1764.71560	         7.83487e+57
          1765.52190	         6.88947e+57
          1766.32820	         8.21194e+57
          1767.13450	         8.15897e+57
          1767.94080	         6.56263e+57
          1768.74710	         6.64529e+57
          1769.55340	         6.96562e+57
          1770.35970	         6.04322e+57
          1771.16600	         7.39865e+57
          1771.97230	         8.19055e+57
          1772.77860	         8.56149e+57
          1773.58490	         7.68865e+57
          1774.39120	         5.76506e+57
          1775.19750	         4.64052e+57
          1776.00380	         6.54839e+57
          1776.81010	         6.44071e+57
          1777.61640	         6.37273e+57
          1778.42270	         7.60560e+57
          1779.22900	         6.45186e+57
          1780.03530	         5.68105e+57
          1780.84160	         7.06608e+57
          1781.64790	         8.17152e+57
          1782.45420	         6.91990e+57
          1783.26050	         6.28093e+57
          1784.06680	         6.50780e+57
          1784.87310	         6.55155e+57
          1785.67940	         7.44728e+57
          1786.48570	         6.93919e+57
          1787.29200	         5.51219e+57
          1788.09830	         5.46756e+57
          1788.90460	         5.05202e+57
          1789.71090	         4.67179e+57
          1790.51720	         5.13495e+57
          1791.32350	         6.81853e+57
          1792.12980	         7.20084e+57
          1792.93610	         7.32707e+57
          1793.74240	         7.15575e+57
          1794.54870	         7.27212e+57
          1795.35500	         8.19303e+57
          1796.16130	         7.99817e+57
          1796.96760	         6.70341e+57
          1797.77390	         6.22325e+57
          1798.58020	         5.97261e+57
          1799.38650	         6.81965e+57
          1800.19280	         7.34090e+57
          1800.99910	         7.93681e+57
          1801.80540	         8.46775e+57
          1802.61170	         8.69425e+57
          1803.41800	         7.90982e+57
          1804.22430	         6.61063e+57
          1805.03060	         7.18282e+57
          1805.83690	         7.80212e+57
          1806.64320	         8.14880e+57
          1807.44950	         7.57813e+57
          1808.25580	         7.15600e+57
          1809.06210	         8.41483e+57
          1809.86840	         7.29466e+57
          1810.67470	         6.35870e+57
          1811.48100	         8.22468e+57
          1812.28730	         8.17258e+57
          1813.09360	         6.83939e+57
          1813.89990	         7.96374e+57
          1814.70620	         7.59843e+57
          1815.51250	         7.76318e+57
          1816.31880	         7.09929e+57
          1817.12510	         6.59873e+57
          1817.93140	         6.51187e+57
          1818.73770	         5.75423e+57
          1819.54400	         7.32835e+57
          1820.35030	         8.56650e+57
          1821.15660	         6.40775e+57
          1821.96290	         6.74427e+57
          1822.76920	         7.32477e+57
          1823.57550	         7.44575e+57
          1824.38180	         6.97755e+57
          1825.18810	         7.53784e+57
          1825.99440	         8.62021e+57
          1826.80070	         7.71542e+57
          1827.60700	         7.00942e+57
          1828.41330	         6.52987e+57
          1829.21960	         7.34944e+57
          1830.02590	         7.86846e+57
          1830.83220	         8.78232e+57
          1831.63850	         7.62406e+57
          1832.44480	         6.91621e+57
          1833.25110	         8.16425e+57
          1834.05740	         8.81275e+57
          1834.86370	         6.70360e+57
          1835.67000	         5.44119e+57
          1836.47630	         7.47572e+57
          1837.28260	         9.01145e+57
          1838.08890	         8.87791e+57
          1838.89520	         7.50173e+57
          1839.70150	         6.88052e+57
          1840.50780	         6.89247e+57
          1841.31410	         8.65643e+57
          1842.12040	         7.62032e+57
          1842.92670	         6.35084e+57
          1843.73300	         6.21383e+57
          1844.53930	         5.94640e+57
          1845.34560	         6.58739e+57
          1846.15190	         7.47702e+57
          1846.95820	         6.78669e+57
          1847.76450	         6.30668e+57
          1848.57080	         5.70856e+57
          1849.37710	         6.58940e+57
          1850.18340	         8.40422e+57
          1850.98970	         8.23376e+57
          1851.79600	         7.53784e+57
          1852.60230	         7.27631e+57
          1853.40860	         6.30946e+57
          1854.21490	         5.95867e+57
          1855.02120	         5.02695e+57
          1855.82750	         4.08491e+57
          1856.63380	         5.13046e+57
          1857.44010	         7.02265e+57
          1858.24640	         6.72695e+57
          1859.05270	         6.39961e+57
          1859.85900	         5.46057e+57
          1860.66530	         5.80165e+57
          1861.47160	         6.33643e+57
          1862.27790	         6.34050e+57
          1863.08420	         6.26385e+57
          1863.89050	         6.31057e+57
          1864.69680	         7.12963e+57
          1865.50310	         7.53046e+57
          1866.30940	         6.61179e+57
          1867.11570	         5.96672e+57
          1867.92200	         6.86904e+57
          1868.72830	         7.67540e+57
          1869.53460	         6.90478e+57
          1870.34090	         7.50801e+57
          1871.14720	         8.14750e+57
          1871.95350	         6.77674e+57
          1872.75980	         6.78216e+57
          1873.56610	         7.36562e+57
          1874.37240	         6.12605e+57
          1875.17870	         5.19671e+57
          1875.98500	         7.50644e+57
          1876.79130	         8.27727e+57
          1877.59760	         6.79813e+57
          1878.40390	         5.51087e+57
          1879.21020	         6.40693e+57
          1880.01650	         7.30476e+57
          1880.82280	         7.38178e+57
          1881.62910	         8.48916e+57
          1882.43540	         9.13019e+57
          1883.24170	         7.83355e+57
          1884.04800	         6.69290e+57
          1884.85430	         7.30984e+57
          1885.66060	         7.73511e+57
          1886.46690	         7.92817e+57
          1887.27320	         8.01605e+57
          1888.07950	         6.51092e+57
          1888.88580	         6.48984e+57
          1889.69210	         7.84265e+57
          1890.49840	         7.96787e+57
          1891.30470	         7.96362e+57
          1892.11100	         8.14958e+57
          1892.91730	         8.21071e+57
          1893.72360	         7.68526e+57
          1894.52990	         6.63242e+57
          1895.33620	         6.11875e+57
          1896.14250	         5.82876e+57
          1896.94880	         5.44871e+57
          1897.75510	         4.38793e+57
          1898.56140	         6.14269e+57
          1899.36770	         8.50746e+57
          1900.17400	         7.59360e+57
          1900.98030	         5.72677e+57
          1901.78660	         7.43647e+57
          1902.59290	         7.24842e+57
          1903.39920	         9.07888e+57
          1904.20550	         9.52689e+57
          1905.01180	         9.22074e+57
          1905.81810	         9.62325e+57
          1906.62440	         1.15030e+58
          1907.43070	         1.42595e+58
          1908.23700	         1.48385e+58
          1909.04330	         1.31347e+58
          1909.84960	         1.04781e+58
          1910.65590	         9.58454e+57
          1911.46220	         9.22618e+57
          1912.26850	         7.44009e+57
          1913.07480	         5.86690e+57
          1913.88110	         5.57691e+57
          1914.68740	         5.64057e+57
          1915.49370	         5.53842e+57
          1916.30000	         5.98307e+57
          1917.10630	         7.04487e+57
          1917.91260	         6.63896e+57
          1918.71890	         5.95540e+57
          1919.52520	         6.46654e+57
          1920.33150	         6.28140e+57
          1921.13780	         6.81127e+57
          1921.94410	         8.31390e+57
          1922.75040	         7.52627e+57
          1923.55670	         7.73151e+57
          1924.36300	         8.29911e+57
          1925.16930	         6.72975e+57
          1925.97560	         5.61416e+57
          1926.78190	         5.00528e+57
          1927.58820	         5.56282e+57
          1928.39450	         5.35339e+57
          1929.20080	         4.75284e+57
          1930.00710	         6.36794e+57
          1930.81340	         7.07656e+57
          1931.61970	         6.82592e+57
          1932.42600	         7.04413e+57
          1933.23230	         7.30823e+57
          1934.03860	         6.18369e+57
          1934.84490	         5.72251e+57
          1935.65120	         7.57521e+57
          1936.45750	         8.81521e+57
          1937.26380	         6.56825e+57
          1938.07010	         6.69148e+57
          1938.87640	         8.55395e+57
          1939.68270	         9.20321e+57
          1940.48900	         8.63844e+57
          1941.29530	         7.83693e+57
          1942.10160	         6.89597e+57
          1942.90790	         6.48620e+57
          1943.71420	         6.47270e+57
          1944.52050	         5.42787e+57
          1945.32680	         6.08388e+57
          1946.13310	         7.02649e+57
          1946.93940	         7.27591e+57
          1947.74570	         7.27069e+57
          1948.55200	         7.30734e+57
          1949.35830	         6.27694e+57
          1950.16460	         5.68528e+57
          1950.97090	         5.58088e+57
          1951.77720	         7.58121e+57
          1952.58350	         8.15216e+57
          1953.38980	         5.59122e+57
          1954.19610	         4.59347e+57
          1955.00240	         5.44832e+57
          1955.80870	         6.22900e+57
          1956.61500	         6.15680e+57
          1957.42130	         5.44773e+57
          1958.22760	         5.63771e+57
          1959.03390	         7.27946e+57
          1959.84020	         7.72075e+57
          1960.64650	         7.34318e+57
          1961.45280	         6.87394e+57
          1962.25910	         5.40518e+57
          1963.06540	         5.51711e+57
          1963.87170	         6.46094e+57
          1964.67800	         6.44016e+57
          1965.48430	         6.14409e+57
          1966.29060	         6.24677e+57
          1967.09690	         7.51958e+57
          1967.90320	         7.36535e+57
          1968.70950	         7.43821e+57
          1969.51580	         6.17618e+57
          1970.32210	         6.08706e+57
          1971.12840	         5.74945e+57
          1971.93470	         4.04889e+57
          1972.74100	         5.27014e+57
          1973.54730	         6.73651e+57
          1974.35360	         6.99359e+57
          1975.15990	         8.79419e+57
          1975.96620	         7.98621e+57
          1976.77250	         7.79678e+57
          1977.57880	         6.63535e+57
          1978.38510	         5.38852e+57
          1979.19140	         6.77389e+57
          1979.99770	         8.03281e+57
          1980.80400	         6.58484e+57
          1981.61030	         6.55584e+57
          1982.41660	         6.12458e+57
          1983.22290	         5.70584e+57
          1984.02920	         5.59099e+57
          1984.83550	         5.45259e+57
          1985.64180	         6.34613e+57
          1986.44810	         6.99991e+57
          1987.25440	         5.41207e+57
          1988.06070	         5.44566e+57
          1988.86700	         5.89064e+57
          1989.67330	         7.40156e+57
          1990.47960	         7.04553e+57
          1991.28590	         6.79872e+57
          1992.09220	         5.67215e+57
          1992.89850	         4.99131e+57
          1993.70480	         5.21983e+57
          1994.51110	         4.51035e+57
          1995.31740	         4.74046e+57
          1996.12370	         3.84110e+57
          1996.93000	         6.05342e+57
          1997.73630	         8.06514e+57
          1998.54260	         7.76349e+57
          1999.34890	         7.01169e+57
          2000.15520	         6.96537e+57
          2000.96150	         6.08231e+57
          2001.76780	         6.52260e+57
          2002.57410	         4.77182e+57
          2003.38040	         5.59599e+57
          2004.18670	         6.69258e+57
          2004.99300	         5.88813e+57
          2005.79930	         6.43297e+57
          2006.60560	         6.91693e+57
          2007.41190	         5.39331e+57
          2008.21820	         6.14124e+57
          2009.02450	         6.21000e+57
          2009.83080	         6.02684e+57
          2010.63710	         6.71989e+57
          2011.44340	         7.28096e+57
          2012.24970	         7.03973e+57
          2013.05600	         6.26647e+57
          2013.86230	         5.62611e+57
          2014.66860	         6.43824e+57
          2015.47490	         7.44108e+57
          2016.28120	         5.96957e+57
          2017.08750	         5.86782e+57
          2017.89380	         6.51030e+57
          2018.70010	         5.75499e+57
          2019.50640	         4.94207e+57
          2020.31270	         5.58881e+57
          2021.11900	         7.63450e+57
          2021.92530	         7.42285e+57
          2022.73160	         8.18890e+57
          2023.53790	         7.83653e+57
          2024.34420	         6.74027e+57
          2025.15050	         4.74677e+57
          2025.95680	         4.81498e+57
          2026.76310	         5.89658e+57
          2027.56940	         5.02656e+57
          2028.37570	         6.49704e+57
          2029.18200	         7.32444e+57
          2029.98830	         6.26460e+57
          2030.79460	         6.31360e+57
          2031.60090	         5.82500e+57
          2032.40720	         5.68422e+57
          2033.21350	         5.35876e+57
          2034.01980	         5.06566e+57
          2034.82610	         4.22623e+57
          2035.63240	         5.62499e+57
          2036.43870	         5.33970e+57
          2037.24500	         5.71842e+57
          2038.05130	         7.02315e+57
          2038.85760	         6.28624e+57
          2039.66390	         5.10834e+57
          2040.47020	         4.74760e+57
          2041.27650	         4.84595e+57
          2042.08280	         5.03975e+57
          2042.88910	         5.96211e+57
          2043.69540	         6.71494e+57
          2044.50170	         6.41623e+57
          2045.30800	         5.26181e+57
          2046.11430	         4.40559e+57
          2046.92060	         6.03999e+57
          2047.72690	         7.20014e+57
          2048.53320	         7.12099e+57
          2049.33950	         5.01702e+57
          2050.14580	         4.79515e+57
          2050.95210	         6.80076e+57
          2051.75840	         7.59745e+57
          2052.56470	         6.02072e+57
          2053.37100	         5.45645e+57
          2054.17730	         6.40129e+57
          2054.98360	         4.46937e+57
          2055.78990	         3.42815e+57
          2056.59620	         4.10506e+57
          2057.40250	         5.99304e+57
          2058.20880	         7.23029e+57
          2059.01510	         5.57193e+57
          2059.82140	         5.47120e+57
          2060.62770	         9.12212e+57
          2061.43400	         1.49741e+58
          2062.24030	         1.35868e+58
          2063.04660	         5.93968e+57
          2063.85290	         2.57727e+57
          2064.65920	        -4.23807e+57
          2065.46550	        -8.18565e+57
          2066.27180	        -7.57784e+57
          2067.07810	         3.64688e+57
          2067.88440	         5.98382e+57
          2068.69070	         6.68834e+57
          2069.49700	         6.03806e+57
          2070.30330	         5.14442e+57
          2071.10960	         6.19181e+57
          2071.91590	         6.46959e+57
          2072.72220	         4.48323e+57
          2073.52850	         5.24238e+57
          2074.33480	         3.65422e+57
          2075.14110	         5.62822e+57
          2075.94740	         4.63119e+57
          2076.75370	         3.89903e+57
          2077.56000	         4.17393e+57
          2078.36630	         6.16832e+57
          2079.17260	         4.21934e+57
          2079.97890	         6.52882e+57
          2080.78520	         6.28789e+57
          2081.59150	         5.02205e+57
          2082.39780	         4.10397e+57
          2083.20410	         1.84910e+57
          2084.01040	         1.77470e+57
          2084.81670	         4.27380e+57
          2085.62300	         4.49439e+57
          2086.42930	         2.79649e+57
          2087.23560	         2.45055e+57
          2088.04190	         2.65012e+57
          2088.84820	         3.90746e+57
          2089.65450	         3.95719e+57
          2090.46080	         2.47829e+57
          2091.26710	         3.43067e+57
          2092.07340	         3.70500e+57
          2092.87970	         4.28979e+57
          2093.68600	         4.53848e+56
          2094.49230	         1.34820e+57
          2095.29860	         4.57005e+57
          2096.10490	         2.75572e+57
          2096.91120	         1.81831e+57
          2097.71750	         1.66913e+57
          2098.52380	        -2.43620e+56
          2099.33010	         1.88349e+57
          2100.13640	         3.09264e+57
          2100.94270	         2.38437e+57
          2101.74900	         2.47984e+57
          2102.55530	         3.22413e+57
          2103.36160	         1.25882e+57
          2104.16790	         4.30851e+57
          2104.97420	         1.15407e+57
          2105.78050	         5.88799e+56
          2106.58680	         1.80760e+57
          2107.39310	        -1.48565e+57
          2108.19940	         1.06849e+57
          2109.00570	         8.87302e+56
          2109.81200	         3.90711e+56
          2110.61830	         2.89534e+57
          2111.42460	         1.17893e+57
          2112.23090	         1.74444e+57
          2113.03720	         3.73785e+56
          2113.84350	         8.11809e+56
          2114.64980	         4.14583e+57
          2115.45610	         5.04616e+56
          2116.26240	        -3.73274e+57
          2117.06870	        -7.71108e+56
          2117.87500	        -1.34063e+57
          2118.68130	        -7.27652e+56
          2119.48760	        -1.82453e+57
          2120.29390	        -3.61902e+56
          2121.10020	        -3.23775e+57
          2121.90650	        -1.68638e+57
          2122.71280	         2.63084e+57
          2123.51910	         2.87678e+57
          2124.32540	         3.82939e+57
          2125.13170	        -5.81134e+56
          2125.93800	        -3.08535e+57
          2126.74430	        -5.21833e+57
          2127.55060	        -8.40518e+57
          2128.35690	        -5.63089e+57
          2129.16320	        -4.50769e+57
          2129.96950	        -1.70850e+57
          2130.77580	        -1.63881e+57
          2131.58210	         3.48346e+56
          2132.38840	         4.29966e+56
          2133.19470	        -4.39542e+57
          2134.00100	         7.16743e+55
          2134.80730	        -3.69889e+57
          2135.61360	         3.19053e+57
          2136.41990	         8.32865e+57
          2137.22620	         1.26570e+58
          2138.03250	         5.01605e+57
          2138.83880	         3.22261e+57
          2139.64510	         5.97117e+56
          2140.45140	        -5.93032e+57
          2141.25770	        -1.36275e+58
          2142.06400	        -8.21000e+57
          2142.87030	        -2.17278e+57
          2143.67660	         2.95846e+57
          2144.48290	         1.19060e+58
          2145.28920	         1.32985e+58
          2146.09550	         6.00668e+56
          2146.90180	        -8.66078e+57
          2147.70810	        -7.36148e+57
          2148.51440	        -3.15732e+57
          2149.32070	        -9.20017e+57
          2150.12700	        -1.66660e+58
          2150.93330	        -9.97448e+57
          2151.73960	        -1.08495e+57
          2152.54590	         1.86205e+57
          2153.35220	         2.52191e+57
          2154.15850	        -1.01550e+57
          2154.96480	         7.89502e+57
          2155.77110	        -5.15822e+57
          2156.57740	        -9.79425e+57
          2157.38370	         6.95733e+57
          2158.19000	        -4.17134e+57
          2158.99630	        -3.32075e+57
          2159.80260	        -6.39264e+57
          2160.60890	        -2.27464e+57
          2161.41520	        -4.12642e+56
          2162.22150	         1.85967e+57
          2163.02780	        -1.00253e+57
          2163.83410	        -3.34069e+57
          2164.64040	        -8.92849e+57
          2165.44670	        -9.84020e+57
          2166.25300	        -1.01157e+58
          2167.05930	         4.89859e+57
          2167.86560	        -1.04385e+58
          2168.67190	        -5.44212e+57
          2169.47820	        -9.35838e+57
          2170.28450	        -1.04405e+58
          2171.09080	        -1.43859e+57
          2171.89710	         1.69105e+56
          2172.70340	         1.19383e+57
          2173.50970	        -5.46550e+57
          2174.31600	         6.69638e+56
          2175.12230	         1.08912e+57
          2175.92860	        -4.04767e+57
          2176.73490	        -5.99569e+57
          2177.54120	        -9.32567e+56
          2178.34750	        -4.76685e+57
          2179.15380	                 nan
          2179.96010	                 nan
          2180.76640	                 nan
          2181.57270	                 nan
          2182.37900	                 nan
          2183.18530	                 nan
          2183.99160	                 nan
          2184.79790	                 nan
          2185.60420	                 nan
          2186.41050	                 nan
          2187.21680	                 nan
          2188.02310	                 nan
          2188.82940	                 nan
          2189.63570	                 nan
          2190.44200	                 nan
          2191.24830	                 nan
          2192.05460	                 nan
          2192.86090	                 nan
          2193.66720	                 nan
          2194.47350	                 nan
          2195.27980	                 nan
          2196.08610	                 nan
          2196.89240	                 nan
          2197.69870	                 nan
          2198.50500	                 nan
          2199.31130	                 nan
          2200.11760	                 nan
          2200.92390	                 nan
          2201.73020	                 nan
          2202.53650	                 nan
          2203.34280	                 nan
          2204.14910	                 nan
          2204.95540	                 nan
          2205.76170	                 nan
          2206.56800	                 nan
          2207.37430	                 nan
          2208.18060	                 nan
          2208.98690	                 nan
          2209.79320	                 nan
          2210.59950	                 nan
          2211.40580	                 nan
          2212.21210	                 nan
          2213.01840	                 nan
          2213.82470	                 nan
          2214.63100	                 nan
          2215.43730	         0.00000e+00
