#sample_284_stacked_spectrum_rest_UV-bands_median_H-alpha_noDC.txt
#median Lum: 1.67318e+42
#Rest-frame wavelength (A) | Luminosity (erg/s/A)
#
          1110.00000	         0.00000e+00
          1110.80630	         1.39844e+59
          1111.61260	         1.41817e+59
          1112.41890	         1.73586e+59
          1113.22520	        -8.42007e+58
          1114.03150	        -3.72735e+59
          1114.83780	         6.82527e+58
          1115.64410	         1.50318e+59
          1116.45040	        -1.40965e+59
          1117.25670	         8.46929e+58
          1118.06300	         5.53763e+58
          1118.86930	         5.78223e+58
          1119.67560	         1.34578e+59
          1120.48190	         1.81123e+58
          1121.28820	        -1.34219e+59
          1122.09450	        -4.01037e+58
          1122.90080	        -1.32357e+57
          1123.70710	         1.10631e+59
          1124.51340	         3.35077e+58
          1125.31970	         3.45167e+58
          1126.12600	        -2.82273e+57
          1126.93230	        -5.30645e+58
          1127.73860	        -8.12922e+58
          1128.54490	        -1.71603e+58
          1129.35120	         3.44095e+58
          1130.15750	        -4.42450e+57
          1130.96380	        -2.63526e+58
          1131.77010	         3.96443e+58
          1132.57640	         4.00027e+58
          1133.38270	         1.05361e+58
          1134.18900	         2.95691e+58
          1134.99530	         2.18275e+58
          1135.80160	         1.99732e+58
          1136.60790	         1.56275e+58
          1137.41420	         4.57421e+57
          1138.22050	         5.05888e+58
          1139.02680	         2.77616e+58
          1139.83310	         1.21993e+58
          1140.63940	         1.40275e+58
          1141.44570	        -5.13151e+57
          1142.25200	         4.42125e+56
          1143.05830	         2.63575e+58
          1143.86460	         3.85729e+58
          1144.67090	         2.40985e+58
          1145.47720	         1.74451e+58
          1146.28350	         1.18540e+58
          1147.08980	         5.59572e+57
          1147.89610	         1.78596e+58
          1148.70240	         2.10185e+58
          1149.50870	         2.37976e+58
          1150.31500	         1.52139e+58
          1151.12130	         1.43564e+57
          1151.92760	         2.35319e+57
          1152.73390	        -2.89662e+56
          1153.54020	        -1.62084e+57
          1154.34650	         2.53266e+58
          1155.15280	         2.01884e+58
          1155.95910	         1.08519e+58
          1156.76540	         1.71991e+58
          1157.57170	        -1.47022e+56
          1158.37800	        -8.98369e+57
          1159.18430	        -4.71134e+56
          1159.99060	         1.01685e+58
          1160.79690	         2.68487e+57
          1161.60320	        -1.75952e+57
          1162.40950	         8.04712e+57
          1163.21580	         1.74323e+58
          1164.02210	         1.49549e+57
          1164.82840	         9.13546e+57
          1165.63470	         1.69597e+58
          1166.44100	         3.68433e+58
          1167.24730	         2.29711e+58
          1168.05360	         5.92325e+57
          1168.85990	         5.96576e+57
          1169.66620	         1.57053e+58
          1170.47250	         1.78000e+58
          1171.27880	         1.31560e+58
          1172.08510	         2.19814e+58
          1172.89140	         2.27307e+58
          1173.69770	         1.43686e+58
          1174.50400	         1.41256e+58
          1175.31030	         1.48195e+58
          1176.11660	         1.87042e+58
          1176.92290	         1.69452e+58
          1177.72920	         1.52217e+58
          1178.53550	         7.48192e+57
          1179.34180	         2.95703e+57
          1180.14810	         7.22022e+57
          1180.95440	         1.03254e+58
          1181.76070	         5.92121e+57
          1182.56700	         5.10873e+57
          1183.37330	         3.84690e+57
          1184.17960	         1.31426e+58
          1184.98590	         1.34196e+58
          1185.79220	         5.78435e+57
          1186.59850	         9.77680e+57
          1187.40480	         1.60702e+58
          1188.21110	         1.44356e+58
          1189.01740	         1.41189e+58
          1189.82370	         8.93444e+57
          1190.63000	         1.36738e+58
          1191.43630	         1.34749e+58
          1192.24260	         4.86611e+57
          1193.04890	         1.26260e+58
          1193.85520	         1.58190e+58
          1194.66150	         9.64464e+57
          1195.46780	         9.73653e+57
          1196.27410	         1.42508e+58
          1197.08040	         1.37692e+58
          1197.88670	         1.48000e+58
          1198.69300	         1.21090e+58
          1199.49930	         9.84103e+57
          1200.30560	         7.32758e+57
          1201.11190	         8.50808e+57
          1201.91820	         6.94545e+57
          1202.72450	         5.60648e+57
          1203.53080	         1.20067e+58
          1204.33710	         7.63695e+57
          1205.14340	         6.31988e+57
          1205.94970	         8.40685e+57
          1206.75600	         8.45622e+57
          1207.56230	         5.69745e+57
          1208.36860	         8.46347e+57
          1209.17490	         4.65893e+57
          1209.98120	         4.98544e+57
          1210.78750	         7.40223e+57
          1211.59380	         1.31992e+58
          1212.40010	         1.56446e+58
          1213.20640	         1.98218e+58
          1214.01270	         2.24036e+58
          1214.81900	         2.82465e+58
          1215.62530	         5.01416e+58
          1216.43160	         9.44998e+58
          1217.23790	         1.53944e+59
          1218.04420	         1.14533e+59
          1218.85050	         8.73242e+58
          1219.65680	         5.60157e+58
          1220.46310	         3.34433e+58
          1221.26940	         2.37101e+58
          1222.07570	         1.54966e+58
          1222.88200	         1.07298e+58
          1223.68830	         6.98445e+57
          1224.49460	         4.84352e+57
          1225.30090	         8.46094e+57
          1226.10720	         1.07892e+58
          1226.91350	         7.37453e+57
          1227.71980	         8.66847e+57
          1228.52610	         1.39535e+58
          1229.33240	         9.60739e+57
          1230.13870	         6.19931e+57
          1230.94500	         6.50909e+57
          1231.75130	         5.49837e+57
          1232.55760	         7.30983e+57
          1233.36390	         8.28051e+57
          1234.17020	         8.76134e+57
          1234.97650	         8.37951e+57
          1235.78280	         8.76647e+57
          1236.58910	         1.02239e+58
          1237.39540	         9.13326e+57
          1238.20170	         1.04270e+58
          1239.00800	         1.27177e+58
          1239.81430	         1.42814e+58
          1240.62060	         1.12288e+58
          1241.42690	         8.73054e+57
          1242.23320	         1.00177e+58
          1243.03950	         7.25150e+57
          1243.84580	         7.80161e+57
          1244.65210	         1.07723e+58
          1245.45840	         9.80197e+57
          1246.26470	         8.69856e+57
          1247.07100	         6.79872e+57
          1247.87730	         7.66536e+57
          1248.68360	         5.84847e+57
          1249.48990	         5.76469e+57
          1250.29620	         8.75882e+57
          1251.10250	         5.41874e+57
          1251.90880	         3.77352e+57
          1252.71510	         6.67811e+57
          1253.52140	         8.15810e+57
          1254.32770	         9.16544e+57
          1255.13400	         1.05774e+58
          1255.94030	         9.54015e+57
          1256.74660	         8.38805e+57
          1257.55290	         1.10023e+58
          1258.35920	         1.01760e+58
          1259.16550	         4.61666e+57
          1259.97180	         3.08007e+57
          1260.77810	         7.35065e+57
          1261.58440	         9.45307e+57
          1262.39070	         8.72204e+57
          1263.19700	         8.73857e+57
          1264.00330	         8.22066e+57
          1264.80960	         7.32692e+57
          1265.61590	         1.09318e+58
          1266.42220	         1.37737e+58
          1267.22850	         1.19301e+58
          1268.03480	         1.39215e+58
          1268.84110	         1.36951e+58
          1269.64740	         1.16078e+58
          1270.45370	         1.25474e+58
          1271.26000	         1.19426e+58
          1272.06630	         1.19535e+58
          1272.87260	         1.15446e+58
          1273.67890	         1.21305e+58
          1274.48520	         1.18188e+58
          1275.29150	         1.30109e+58
          1276.09780	         1.13837e+58
          1276.90410	         1.29598e+58
          1277.71040	         1.19822e+58
          1278.51670	         1.17309e+58
          1279.32300	         1.41657e+58
          1280.12930	         1.21409e+58
          1280.93560	         1.02669e+58
          1281.74190	         9.58190e+57
          1282.54820	         9.51796e+57
          1283.35450	         1.00186e+58
          1284.16080	         1.22711e+58
          1284.96710	         1.46188e+58
          1285.77340	         1.31984e+58
          1286.57970	         1.11027e+58
          1287.38600	         1.50724e+58
          1288.19230	         1.84970e+58
          1288.99860	         1.38839e+58
          1289.80490	         9.56561e+57
          1290.61120	         1.23747e+58
          1291.41750	         1.35443e+58
          1292.22380	         1.30963e+58
          1293.03010	         1.06516e+58
          1293.83640	         1.01298e+58
          1294.64270	         8.58059e+57
          1295.44900	         4.65696e+57
          1296.25530	         5.31329e+57
          1297.06160	         8.18797e+57
          1297.86790	         9.31945e+57
          1298.67420	         9.90472e+57
          1299.48050	         1.13960e+58
          1300.28680	         9.76616e+57
          1301.09310	         7.38200e+57
          1301.89940	         3.85043e+57
          1302.70570	         4.92427e+57
          1303.51200	         7.21064e+57
          1304.31830	         9.50559e+57
          1305.12460	         1.05682e+58
          1305.93090	         1.21804e+58
          1306.73720	         1.25112e+58
          1307.54350	         1.26445e+58
          1308.34980	         1.41913e+58
          1309.15610	         1.65755e+58
          1309.96240	         1.78028e+58
          1310.76870	         1.46780e+58
          1311.57500	         1.15980e+58
          1312.38130	         1.11584e+58
          1313.18760	         1.33110e+58
          1313.99390	         1.48833e+58
          1314.80020	         1.56517e+58
          1315.60650	         1.47805e+58
          1316.41280	         1.23626e+58
          1317.21910	         1.30973e+58
          1318.02540	         1.22200e+58
          1318.83170	         1.24645e+58
          1319.63800	         1.11641e+58
          1320.44430	         9.86165e+57
          1321.25060	         1.05340e+58
          1322.05690	         1.05914e+58
          1322.86320	         1.12024e+58
          1323.66950	         1.01764e+58
          1324.47580	         8.75466e+57
          1325.28210	         9.03470e+57
          1326.08840	         1.14929e+58
          1326.89470	         1.08778e+58
          1327.70100	         9.21532e+57
          1328.50730	         8.72952e+57
          1329.31360	         9.50461e+57
          1330.11990	         1.02045e+58
          1330.92620	         9.07413e+57
          1331.73250	         1.01763e+58
          1332.53880	         1.00996e+58
          1333.34510	         8.72384e+57
          1334.15140	         9.19511e+57
          1334.95770	         8.90625e+57
          1335.76400	         1.09465e+58
          1336.57030	         1.16840e+58
          1337.37660	         1.10361e+58
          1338.18290	         1.07224e+58
          1338.98920	         9.83713e+57
          1339.79550	         1.06993e+58
          1340.60180	         1.29085e+58
          1341.40810	         1.50273e+58
          1342.21440	         1.23279e+58
          1343.02070	         1.22305e+58
          1343.82700	         1.32592e+58
          1344.63330	         1.17672e+58
          1345.43960	         1.23130e+58
          1346.24590	         1.18929e+58
          1347.05220	         1.16279e+58
          1347.85850	         1.15525e+58
          1348.66480	         1.36943e+58
          1349.47110	         1.34364e+58
          1350.27740	         1.06781e+58
          1351.08370	         1.13755e+58
          1351.89000	         1.30457e+58
          1352.69630	         1.20906e+58
          1353.50260	         1.16719e+58
          1354.30890	         1.30428e+58
          1355.11520	         1.22461e+58
          1355.92150	         1.05415e+58
          1356.72780	         1.09608e+58
          1357.53410	         1.10631e+58
          1358.34040	         1.09374e+58
          1359.14670	         9.83093e+57
          1359.95300	         1.10986e+58
          1360.75930	         1.19752e+58
          1361.56560	         9.63499e+57
          1362.37190	         1.01807e+58
          1363.17820	         1.02895e+58
          1363.98450	         1.10172e+58
          1364.79080	         1.27656e+58
          1365.59710	         1.34644e+58
          1366.40340	         1.19535e+58
          1367.20970	         9.22437e+57
          1368.01600	         9.18521e+57
          1368.82230	         9.65265e+57
          1369.62860	         1.06916e+58
          1370.43490	         9.81334e+57
          1371.24120	         8.35097e+57
          1372.04750	         7.75823e+57
          1372.85380	         1.01561e+58
          1373.66010	         1.23115e+58
          1374.46640	         1.06602e+58
          1375.27270	         1.03394e+58
          1376.07900	         8.93893e+57
          1376.88530	         8.98877e+57
          1377.69160	         8.93724e+57
          1378.49790	         7.95329e+57
          1379.30420	         7.54030e+57
          1380.11050	         7.98091e+57
          1380.91680	         7.89652e+57
          1381.72310	         7.87265e+57
          1382.52940	         8.85078e+57
          1383.33570	         8.15077e+57
          1384.14200	         8.87127e+57
          1384.94830	         1.04914e+58
          1385.75460	         9.94191e+57
          1386.56090	         9.77595e+57
          1387.36720	         1.06589e+58
          1388.17350	         1.30143e+58
          1388.97980	         1.04971e+58
          1389.78610	         9.47653e+57
          1390.59240	         8.57604e+57
          1391.39870	         7.46928e+57
          1392.20500	         8.86270e+57
          1393.01130	         8.35658e+57
          1393.81760	         6.86383e+57
          1394.62390	         7.69013e+57
          1395.43020	         7.19695e+57
          1396.23650	         7.61637e+57
          1397.04280	         7.98609e+57
          1397.84910	         7.92210e+57
          1398.65540	         7.91198e+57
          1399.46170	         9.46885e+57
          1400.26800	         8.83809e+57
          1401.07430	         6.80880e+57
          1401.88060	         6.66097e+57
          1402.68690	         9.53055e+57
          1403.49320	         1.03387e+58
          1404.29950	         1.07625e+58
          1405.10580	         1.14016e+58
          1405.91210	         1.05368e+58
          1406.71840	         9.63475e+57
          1407.52470	         1.03759e+58
          1408.33100	         1.12591e+58
          1409.13730	         1.21507e+58
          1409.94360	         1.19189e+58
          1410.74990	         1.10576e+58
          1411.55620	         9.81944e+57
          1412.36250	         8.61419e+57
          1413.16880	         9.23591e+57
          1413.97510	         9.08366e+57
          1414.78140	         8.03231e+57
          1415.58770	         9.85455e+57
          1416.39400	         1.13716e+58
          1417.20030	         1.03093e+58
          1418.00660	         8.83564e+57
          1418.81290	         9.68201e+57
          1419.61920	         1.16165e+58
          1420.42550	         1.21631e+58
          1421.23180	         1.36755e+58
          1422.03810	         1.24769e+58
          1422.84440	         1.17330e+58
          1423.65070	         1.13639e+58
          1424.45700	         9.88219e+57
          1425.26330	         7.78621e+57
          1426.06960	         8.67803e+57
          1426.87590	         9.76756e+57
          1427.68220	         9.93621e+57
          1428.48850	         9.78097e+57
          1429.29480	         1.01041e+58
          1430.10110	         9.81287e+57
          1430.90740	         8.23108e+57
          1431.71370	         8.31918e+57
          1432.52000	         9.21277e+57
          1433.32630	         7.62181e+57
          1434.13260	         7.98155e+57
          1434.93890	         8.83075e+57
          1435.74520	         8.90862e+57
          1436.55150	         9.38498e+57
          1437.35780	         8.71828e+57
          1438.16410	         8.65016e+57
          1438.97040	         8.90067e+57
          1439.77670	         8.93362e+57
          1440.58300	         8.26774e+57
          1441.38930	         8.24276e+57
          1442.19560	         9.46975e+57
          1443.00190	         1.01056e+58
          1443.80820	         1.13434e+58
          1444.61450	         1.03637e+58
          1445.42080	         8.54343e+57
          1446.22710	         1.05708e+58
          1447.03340	         1.06284e+58
          1447.83970	         1.05432e+58
          1448.64600	         1.03183e+58
          1449.45230	         9.39943e+57
          1450.25860	         9.76309e+57
          1451.06490	         8.53594e+57
          1451.87120	         7.31380e+57
          1452.67750	         7.94719e+57
          1453.48380	         9.61354e+57
          1454.29010	         9.44190e+57
          1455.09640	         7.45660e+57
          1455.90270	         8.28498e+57
          1456.70900	         8.61400e+57
          1457.51530	         8.37086e+57
          1458.32160	         1.10720e+58
          1459.12790	         1.10802e+58
          1459.93420	         9.78750e+57
          1460.74050	         8.88579e+57
          1461.54680	         8.01880e+57
          1462.35310	         7.15409e+57
          1463.15940	         8.85967e+57
          1463.96570	         1.00557e+58
          1464.77200	         1.11099e+58
          1465.57830	         1.02776e+58
          1466.38460	         8.49353e+57
          1467.19090	         8.21083e+57
          1467.99720	         9.35748e+57
          1468.80350	         9.79719e+57
          1469.60980	         1.02266e+58
          1470.41610	         1.04143e+58
          1471.22240	         9.31539e+57
          1472.02870	         8.02959e+57
          1472.83500	         7.87418e+57
          1473.64130	         9.02101e+57
          1474.44760	         9.44842e+57
          1475.25390	         8.92841e+57
          1476.06020	         7.98931e+57
          1476.86650	         7.86870e+57
          1477.67280	         7.81775e+57
          1478.47910	         7.18989e+57
          1479.28540	         8.17092e+57
          1480.09170	         9.06167e+57
          1480.89800	         7.40802e+57
          1481.70430	         8.22183e+57
          1482.51060	         7.67141e+57
          1483.31690	         7.02651e+57
          1484.12320	         6.87994e+57
          1484.92950	         7.42676e+57
          1485.73580	         8.40170e+57
          1486.54210	         9.23739e+57
          1487.34840	         8.65005e+57
          1488.15470	         8.78739e+57
          1488.96100	         8.89675e+57
          1489.76730	         9.60780e+57
          1490.57360	         9.95203e+57
          1491.37990	         7.71907e+57
          1492.18620	         8.57925e+57
          1492.99250	         8.15549e+57
          1493.79880	         8.49742e+57
          1494.60510	         8.06192e+57
          1495.41140	         7.07730e+57
          1496.21770	         7.43535e+57
          1497.02400	         9.53771e+57
          1497.83030	         8.55585e+57
          1498.63660	         6.76397e+57
          1499.44290	         6.60071e+57
          1500.24920	         6.88084e+57
          1501.05550	         7.14908e+57
          1501.86180	         8.10250e+57
          1502.66810	         9.10103e+57
          1503.47440	         9.72832e+57
          1504.28070	         9.08673e+57
          1505.08700	         9.65146e+57
          1505.89330	         9.63182e+57
          1506.69960	         8.02873e+57
          1507.50590	         7.70366e+57
          1508.31220	         7.80050e+57
          1509.11850	         8.21224e+57
          1509.92480	         9.60572e+57
          1510.73110	         9.63534e+57
          1511.53740	         7.93253e+57
          1512.34370	         7.02685e+57
          1513.15000	         9.26822e+57
          1513.95630	         1.06837e+58
          1514.76260	         8.75132e+57
          1515.56890	         7.47640e+57
          1516.37520	         7.62312e+57
          1517.18150	         8.03068e+57
          1517.98780	         7.74067e+57
          1518.79410	         6.74846e+57
          1519.60040	         7.24583e+57
          1520.40670	         9.25396e+57
          1521.21300	         1.07250e+58
          1522.01930	         8.81166e+57
          1522.82560	         9.45274e+57
          1523.63190	         1.05856e+58
          1524.43820	         7.96592e+57
          1525.24450	         5.89163e+57
          1526.05080	         6.35465e+57
          1526.85710	         6.99410e+57
          1527.66340	         7.33378e+57
          1528.46970	         7.70598e+57
          1529.27600	         8.26312e+57
          1530.08230	         7.85066e+57
          1530.88860	         8.38004e+57
          1531.69490	         9.50298e+57
          1532.50120	         9.38301e+57
          1533.30750	         9.24621e+57
          1534.11380	         9.55316e+57
          1534.92010	         9.76247e+57
          1535.72640	         9.80974e+57
          1536.53270	         9.05077e+57
          1537.33900	         8.03174e+57
          1538.14530	         8.33770e+57
          1538.95160	         8.12589e+57
          1539.75790	         7.69474e+57
          1540.56420	         7.97836e+57
          1541.37050	         7.55916e+57
          1542.17680	         7.44187e+57
          1542.98310	         6.93705e+57
          1543.78940	         7.43778e+57
          1544.59570	         6.36385e+57
          1545.40200	         6.48768e+57
          1546.20830	         8.27806e+57
          1547.01460	         1.06000e+58
          1547.82090	         1.07828e+58
          1548.62720	         1.19079e+58
          1549.43350	         1.22899e+58
          1550.23980	         1.10534e+58
          1551.04610	         1.22857e+58
          1551.85240	         1.28545e+58
          1552.65870	         1.14203e+58
          1553.46500	         1.00401e+58
          1554.27130	         9.03964e+57
          1555.07760	         8.93532e+57
          1555.88390	         8.52248e+57
          1556.69020	         8.80332e+57
          1557.49650	         9.46312e+57
          1558.30280	         8.61178e+57
          1559.10910	         8.86139e+57
          1559.91540	         8.13769e+57
          1560.72170	         8.13928e+57
          1561.52800	         8.47196e+57
          1562.33430	         7.45241e+57
          1563.14060	         7.19067e+57
          1563.94690	         7.39793e+57
          1564.75320	         7.76962e+57
          1565.55950	         6.76187e+57
          1566.36580	         7.23923e+57
          1567.17210	         9.29564e+57
          1567.97840	         8.81623e+57
          1568.78470	         8.37817e+57
          1569.59100	         8.72616e+57
          1570.39730	         8.32748e+57
          1571.20360	         6.78952e+57
          1572.00990	         6.71947e+57
          1572.81620	         9.16871e+57
          1573.62250	         1.07355e+58
          1574.42880	         9.58147e+57
          1575.23510	         7.63941e+57
          1576.04140	         8.42332e+57
          1576.84770	         9.39863e+57
          1577.65400	         8.82951e+57
          1578.46030	         9.62007e+57
          1579.26660	         1.10499e+58
          1580.07290	         9.95750e+57
          1580.87920	         7.60263e+57
          1581.68550	         7.80737e+57
          1582.49180	         8.53578e+57
          1583.29810	         8.27611e+57
          1584.10440	         8.60954e+57
          1584.91070	         8.77520e+57
          1585.71700	         9.07501e+57
          1586.52330	         9.46433e+57
          1587.32960	         8.84471e+57
          1588.13590	         8.92993e+57
          1588.94220	         8.10524e+57
          1589.74850	         9.29303e+57
          1590.55480	         9.29818e+57
          1591.36110	         7.84056e+57
          1592.16740	         6.98935e+57
          1592.97370	         7.73222e+57
          1593.78000	         9.20436e+57
          1594.58630	         1.02586e+58
          1595.39260	         8.94186e+57
          1596.19890	         8.92771e+57
          1597.00520	         1.02129e+58
          1597.81150	         8.48124e+57
          1598.61780	         6.29376e+57
          1599.42410	         6.11971e+57
          1600.23040	         6.69764e+57
          1601.03670	         8.09853e+57
          1601.84300	         8.16470e+57
          1602.64930	         9.39449e+57
          1603.45560	         9.49203e+57
          1604.26190	         8.20490e+57
          1605.06820	         8.24310e+57
          1605.87450	         8.07245e+57
          1606.68080	         7.68586e+57
          1607.48710	         7.03624e+57
          1608.29340	         5.85081e+57
          1609.09970	         6.07868e+57
          1609.90600	         6.39324e+57
          1610.71230	         6.08542e+57
          1611.51860	         6.60234e+57
          1612.32490	         7.26143e+57
          1613.13120	         7.13569e+57
          1613.93750	         7.55384e+57
          1614.74380	         8.39034e+57
          1615.55010	         8.13247e+57
          1616.35640	         8.08672e+57
          1617.16270	         9.60244e+57
          1617.96900	         9.25507e+57
          1618.77530	         7.71973e+57
          1619.58160	         7.82983e+57
          1620.38790	         8.14332e+57
          1621.19420	         8.75401e+57
          1622.00050	         8.37910e+57
          1622.80680	         9.05470e+57
          1623.61310	         9.00615e+57
          1624.41940	         8.33078e+57
          1625.22570	         8.44085e+57
          1626.03200	         8.15412e+57
          1626.83830	         7.31404e+57
          1627.64460	         6.68296e+57
          1628.45090	         7.05866e+57
          1629.25720	         8.65797e+57
          1630.06350	         9.35746e+57
          1630.86980	         6.73217e+57
          1631.67610	         7.51479e+57
          1632.48240	         7.83918e+57
          1633.28870	         8.06547e+57
          1634.09500	         8.59889e+57
          1634.90130	         1.02910e+58
          1635.70760	         8.45513e+57
          1636.51390	         7.10190e+57
          1637.32020	         6.69272e+57
          1638.12650	         8.48122e+57
          1638.93280	         9.73756e+57
          1639.73910	         1.00522e+58
          1640.54540	         9.45596e+57
          1641.35170	         8.75174e+57
          1642.15800	         9.90422e+57
          1642.96430	         9.11445e+57
          1643.77060	         7.71202e+57
          1644.57690	         7.52501e+57
          1645.38320	         8.23618e+57
          1646.18950	         7.16919e+57
          1646.99580	         8.74133e+57
          1647.80210	         8.91407e+57
          1648.60840	         7.80811e+57
          1649.41470	         7.96637e+57
          1650.22100	         7.76516e+57
          1651.02730	         8.01295e+57
          1651.83360	         7.77684e+57
          1652.63990	         8.13355e+57
          1653.44620	         8.28439e+57
          1654.25250	         7.29806e+57
          1655.05880	         7.05624e+57
          1655.86510	         7.91081e+57
          1656.67140	         8.62796e+57
          1657.47770	         7.70384e+57
          1658.28400	         8.16230e+57
          1659.09030	         9.02805e+57
          1659.89660	         9.49117e+57
          1660.70290	         1.00583e+58
          1661.50920	         9.19446e+57
          1662.31550	         8.52628e+57
          1663.12180	         9.29297e+57
          1663.92810	         1.02245e+58
          1664.73440	         1.09536e+58
          1665.54070	         1.18881e+58
          1666.34700	         1.29966e+58
          1667.15330	         1.13862e+58
          1667.95960	         9.39588e+57
          1668.76590	         6.79676e+57
          1669.57220	         6.28478e+57
          1670.37850	         8.46174e+57
          1671.18480	         9.33595e+57
          1671.99110	         8.56225e+57
          1672.79740	         6.69081e+57
          1673.60370	         6.64564e+57
          1674.41000	         7.69721e+57
          1675.21630	         7.94839e+57
          1676.02260	         7.41602e+57
          1676.82890	         7.12687e+57
          1677.63520	         7.08098e+57
          1678.44150	         7.07791e+57
          1679.24780	         7.95718e+57
          1680.05410	         7.25083e+57
          1680.86040	         5.96413e+57
          1681.66670	         6.89894e+57
          1682.47300	         7.98993e+57
          1683.27930	         8.21839e+57
          1684.08560	         8.30496e+57
          1684.89190	         7.76435e+57
          1685.69820	         5.33977e+57
          1686.50450	         5.52912e+57
          1687.31080	         7.25889e+57
          1688.11710	         8.08057e+57
          1688.92340	         6.74955e+57
          1689.72970	         6.41115e+57
          1690.53600	         6.96071e+57
          1691.34230	         6.04298e+57
          1692.14860	         6.68438e+57
          1692.95490	         8.04035e+57
          1693.76120	         7.52820e+57
          1694.56750	         7.42995e+57
          1695.37380	         7.58439e+57
          1696.18010	         8.11906e+57
          1696.98640	         7.78097e+57
          1697.79270	         8.06040e+57
          1698.59900	         8.94382e+57
          1699.40530	         7.90229e+57
          1700.21160	         7.93838e+57
          1701.01790	         8.78018e+57
          1701.82420	         7.43675e+57
          1702.63050	         7.26881e+57
          1703.43680	         8.74563e+57
          1704.24310	         8.97155e+57
          1705.04940	         8.04923e+57
          1705.85570	         8.13612e+57
          1706.66200	         8.66262e+57
          1707.46830	         8.01541e+57
          1708.27460	         7.20498e+57
          1709.08090	         6.18584e+57
          1709.88720	         6.31995e+57
          1710.69350	         6.31381e+57
          1711.49980	         6.20577e+57
          1712.30610	         7.01424e+57
          1713.11240	         7.90537e+57
          1713.91870	         7.44881e+57
          1714.72500	         8.50573e+57
          1715.53130	         8.44430e+57
          1716.33760	         7.14996e+57
          1717.14390	         7.13837e+57
          1717.95020	         8.46087e+57
          1718.75650	         8.69290e+57
          1719.56280	         8.12443e+57
          1720.36910	         6.90298e+57
          1721.17540	         7.32552e+57
          1721.98170	         6.91252e+57
          1722.78800	         6.72397e+57
          1723.59430	         8.17191e+57
          1724.40060	         8.37611e+57
          1725.20690	         8.19269e+57
          1726.01320	         8.06602e+57
          1726.81950	         7.62348e+57
          1727.62580	         7.44814e+57
          1728.43210	         6.92085e+57
          1729.23840	         6.78493e+57
          1730.04470	         8.23091e+57
          1730.85100	         8.51594e+57
          1731.65730	         7.80297e+57
          1732.46360	         8.25427e+57
          1733.26990	         8.01748e+57
          1734.07620	         6.93348e+57
          1734.88250	         7.07226e+57
          1735.68880	         7.49099e+57
          1736.49510	         8.23021e+57
          1737.30140	         7.63739e+57
          1738.10770	         6.94096e+57
          1738.91400	         7.14497e+57
          1739.72030	         6.75891e+57
          1740.52660	         5.26984e+57
          1741.33290	         5.57511e+57
          1742.13920	         6.69440e+57
          1742.94550	         7.26724e+57
          1743.75180	         7.58184e+57
          1744.55810	         8.18238e+57
          1745.36440	         8.29863e+57
          1746.17070	         6.44548e+57
          1746.97700	         6.74636e+57
          1747.78330	         6.90799e+57
          1748.58960	         5.90468e+57
          1749.39590	         6.98676e+57
          1750.20220	         6.33063e+57
          1751.00850	         5.42520e+57
          1751.81480	         5.54447e+57
          1752.62110	         7.14530e+57
          1753.42740	         7.37331e+57
          1754.23370	         6.60833e+57
          1755.04000	         7.82944e+57
          1755.84630	         7.22797e+57
          1756.65260	         8.21746e+57
          1757.45890	         8.97897e+57
          1758.26520	         6.75500e+57
          1759.07150	         8.94713e+57
          1759.87780	         9.43980e+57
          1760.68410	         8.60957e+57
          1761.49040	         8.04229e+57
          1762.29670	         5.89509e+57
          1763.10300	         6.62022e+57
          1763.90930	         7.88326e+57
          1764.71560	         7.53307e+57
          1765.52190	         7.22234e+57
          1766.32820	         8.20747e+57
          1767.13450	         8.16810e+57
          1767.94080	         5.93561e+57
          1768.74710	         6.50178e+57
          1769.55340	         7.49725e+57
          1770.35970	         5.37404e+57
          1771.16600	         6.82806e+57
          1771.97230	         8.17382e+57
          1772.77860	         7.65069e+57
          1773.58490	         7.50689e+57
          1774.39120	         5.26069e+57
          1775.19750	         5.26067e+57
          1776.00380	         7.19953e+57
          1776.81010	         7.01775e+57
          1777.61640	         6.71398e+57
          1778.42270	         7.08319e+57
          1779.22900	         7.07792e+57
          1780.03530	         6.82122e+57
          1780.84160	         6.93654e+57
          1781.64790	         8.25057e+57
          1782.45420	         7.57268e+57
          1783.26050	         5.85121e+57
          1784.06680	         6.66927e+57
          1784.87310	         7.26350e+57
          1785.67940	         7.63293e+57
          1786.48570	         6.66955e+57
          1787.29200	         5.70268e+57
          1788.09830	         6.11828e+57
          1788.90460	         6.06739e+57
          1789.71090	         5.47246e+57
          1790.51720	         5.12019e+57
          1791.32350	         6.69083e+57
          1792.12980	         8.71908e+57
          1792.93610	         8.11067e+57
          1793.74240	         7.16810e+57
          1794.54870	         8.46531e+57
          1795.35500	         8.66698e+57
          1796.16130	         7.18770e+57
          1796.96760	         6.41576e+57
          1797.77390	         7.21870e+57
          1798.58020	         7.75041e+57
          1799.38650	         6.98308e+57
          1800.19280	         7.04573e+57
          1800.99910	         7.14104e+57
          1801.80540	         6.74795e+57
          1802.61170	         7.54200e+57
          1803.41800	         8.81398e+57
          1804.22430	         8.45432e+57
          1805.03060	         7.63207e+57
          1805.83690	         7.88043e+57
          1806.64320	         8.96228e+57
          1807.44950	         7.92285e+57
          1808.25580	         6.54067e+57
          1809.06210	         8.18213e+57
          1809.86840	         7.75982e+57
          1810.67470	         7.65869e+57
          1811.48100	         7.90658e+57
          1812.28730	         7.37634e+57
          1813.09360	         6.54242e+57
          1813.89990	         7.16829e+57
          1814.70620	         7.90183e+57
          1815.51250	         8.15846e+57
          1816.31880	         8.08427e+57
          1817.12510	         7.41131e+57
          1817.93140	         6.48279e+57
          1818.73770	         6.56229e+57
          1819.54400	         7.35230e+57
          1820.35030	         7.69035e+57
          1821.15660	         6.46980e+57
          1821.96290	         5.74953e+57
          1822.76920	         6.65329e+57
          1823.57550	         8.15253e+57
          1824.38180	         7.86756e+57
          1825.18810	         7.94906e+57
          1825.99440	         8.64309e+57
          1826.80070	         7.72701e+57
          1827.60700	         6.16494e+57
          1828.41330	         5.27962e+57
          1829.21960	         5.78135e+57
          1830.02590	         6.68277e+57
          1830.83220	         7.82863e+57
          1831.63850	         6.75060e+57
          1832.44480	         6.75363e+57
          1833.25110	         8.66673e+57
          1834.05740	         8.75503e+57
          1834.86370	         6.90375e+57
          1835.67000	         5.59352e+57
          1836.47630	         6.65874e+57
          1837.28260	         8.52157e+57
          1838.08890	         8.97737e+57
          1838.89520	         8.23104e+57
          1839.70150	         7.89270e+57
          1840.50780	         6.92764e+57
          1841.31410	         6.43893e+57
          1842.12040	         7.04541e+57
          1842.92670	         6.64618e+57
          1843.73300	         6.33388e+57
          1844.53930	         5.72819e+57
          1845.34560	         6.49153e+57
          1846.15190	         7.80214e+57
          1846.95820	         8.34695e+57
          1847.76450	         7.67384e+57
          1848.57080	         6.25010e+57
          1849.37710	         5.49659e+57
          1850.18340	         5.54905e+57
          1850.98970	         7.50033e+57
          1851.79600	         7.90362e+57
          1852.60230	         5.64338e+57
          1853.40860	         5.71580e+57
          1854.21490	         5.74750e+57
          1855.02120	         5.17979e+57
          1855.82750	         4.35089e+57
          1856.63380	         6.81931e+57
          1857.44010	         8.54293e+57
          1858.24640	         7.03149e+57
          1859.05270	         6.88240e+57
          1859.85900	         5.65511e+57
          1860.66530	         5.77882e+57
          1861.47160	         6.32131e+57
          1862.27790	         6.51343e+57
          1863.08420	         6.74764e+57
          1863.89050	         7.48308e+57
          1864.69680	         7.43761e+57
          1865.50310	         7.07981e+57
          1866.30940	         6.12188e+57
          1867.11570	         6.23228e+57
          1867.92200	         7.08541e+57
          1868.72830	         7.27579e+57
          1869.53460	         7.22963e+57
          1870.34090	         7.68966e+57
          1871.14720	         7.71033e+57
          1871.95350	         6.97006e+57
          1872.75980	         6.80294e+57
          1873.56610	         6.40169e+57
          1874.37240	         5.97982e+57
          1875.17870	         6.58013e+57
          1875.98500	         8.07592e+57
          1876.79130	         7.51492e+57
          1877.59760	         6.80867e+57
          1878.40390	         6.47434e+57
          1879.21020	         5.85720e+57
          1880.01650	         6.92060e+57
          1880.82280	         8.08253e+57
          1881.62910	         8.50705e+57
          1882.43540	         8.49372e+57
          1883.24170	         8.37178e+57
          1884.04800	         7.14072e+57
          1884.85430	         6.42495e+57
          1885.66060	         7.71157e+57
          1886.46690	         8.33952e+57
          1887.27320	         7.97543e+57
          1888.07950	         6.31786e+57
          1888.88580	         6.96414e+57
          1889.69210	         8.93120e+57
          1890.49840	         8.09319e+57
          1891.30470	         6.69968e+57
          1892.11100	         8.11835e+57
          1892.91730	         7.69563e+57
          1893.72360	         7.03429e+57
          1894.52990	         7.33277e+57
          1895.33620	         8.13879e+57
          1896.14250	         8.56581e+57
          1896.94880	         6.62028e+57
          1897.75510	         3.88380e+57
          1898.56140	         4.90741e+57
          1899.36770	         6.96352e+57
          1900.17400	         7.54547e+57
          1900.98030	         6.70492e+57
          1901.78660	         6.76150e+57
          1902.59290	         6.23151e+57
          1903.39920	         8.52936e+57
          1904.20550	         9.37881e+57
          1905.01180	         9.35675e+57
          1905.81810	         9.35147e+57
          1906.62440	         1.11005e+58
          1907.43070	         1.51136e+58
          1908.23700	         1.57556e+58
          1909.04330	         1.19018e+58
          1909.84960	         1.01659e+58
          1910.65590	         9.71224e+57
          1911.46220	         8.89237e+57
          1912.26850	         7.74931e+57
          1913.07480	         5.85739e+57
          1913.88110	         5.54030e+57
          1914.68740	         5.75825e+57
          1915.49370	         5.91498e+57
          1916.30000	         5.93243e+57
          1917.10630	         6.21070e+57
          1917.91260	         6.79850e+57
          1918.71890	         5.46071e+57
          1919.52520	         6.72190e+57
          1920.33150	         6.33106e+57
          1921.13780	         6.53016e+57
          1921.94410	         7.99185e+57
          1922.75040	         8.08834e+57
          1923.55670	         8.12291e+57
          1924.36300	         7.23519e+57
          1925.16930	         6.30489e+57
          1925.97560	         5.74214e+57
          1926.78190	         5.37689e+57
          1927.58820	         6.72036e+57
          1928.39450	         5.24310e+57
          1929.20080	         4.45776e+57
          1930.00710	         5.47082e+57
          1930.81340	         6.97715e+57
          1931.61970	         6.97254e+57
          1932.42600	         6.46420e+57
          1933.23230	         8.15122e+57
          1934.03860	         6.28392e+57
          1934.84490	         5.35560e+57
          1935.65120	         6.62778e+57
          1936.45750	         7.95410e+57
          1937.26380	         8.04799e+57
          1938.07010	         7.29024e+57
          1938.87640	         7.40731e+57
          1939.68270	         6.97241e+57
          1940.48900	         7.67859e+57
          1941.29530	         7.84442e+57
          1942.10160	         7.22988e+57
          1942.90790	         7.08242e+57
          1943.71420	         5.30851e+57
          1944.52050	         5.91874e+57
          1945.32680	         5.88663e+57
          1946.13310	         6.24772e+57
          1946.93940	         8.01177e+57
          1947.74570	         7.40901e+57
          1948.55200	         7.03823e+57
          1949.35830	         5.89783e+57
          1950.16460	         5.88786e+57
          1950.97090	         6.21685e+57
          1951.77720	         6.68462e+57
          1952.58350	         7.59135e+57
          1953.38980	         5.28089e+57
          1954.19610	         4.44521e+57
          1955.00240	         4.82959e+57
          1955.80870	         5.89016e+57
          1956.61500	         6.08489e+57
          1957.42130	         6.34496e+57
          1958.22760	         7.27497e+57
          1959.03390	         8.13632e+57
          1959.84020	         7.40368e+57
          1960.64650	         6.45849e+57
          1961.45280	         6.38779e+57
          1962.25910	         6.68346e+57
          1963.06540	         6.78553e+57
          1963.87170	         6.05268e+57
          1964.67800	         7.00185e+57
          1965.48430	         6.35508e+57
          1966.29060	         6.70759e+57
          1967.09690	         7.85315e+57
          1967.90320	         7.63259e+57
          1968.70950	         7.32446e+57
          1969.51580	         8.18633e+57
          1970.32210	         7.30580e+57
          1971.12840	         6.75313e+57
          1971.93470	         5.33872e+57
          1972.74100	         5.14705e+57
          1973.54730	         6.98425e+57
          1974.35360	         8.27422e+57
          1975.15990	         7.87874e+57
          1975.96620	         7.44120e+57
          1976.77250	         8.24522e+57
          1977.57880	         7.22164e+57
          1978.38510	         5.48936e+57
          1979.19140	         5.46411e+57
          1979.99770	         7.01643e+57
          1980.80400	         7.21202e+57
          1981.61030	         6.88570e+57
          1982.41660	         6.30901e+57
          1983.22290	         5.69753e+57
          1984.02920	         5.73801e+57
          1984.83550	         5.45134e+57
          1985.64180	         5.83552e+57
          1986.44810	         6.40020e+57
          1987.25440	         5.94678e+57
          1988.06070	         6.61696e+57
          1988.86700	         7.35920e+57
          1989.67330	         7.02987e+57
          1990.47960	         6.46918e+57
          1991.28590	         6.67137e+57
          1992.09220	         6.97673e+57
          1992.89850	         5.28476e+57
          1993.70480	         5.55929e+57
          1994.51110	         6.02394e+57
          1995.31740	         4.41431e+57
          1996.12370	         4.74490e+57
          1996.93000	         5.52146e+57
          1997.73630	         6.83615e+57
          1998.54260	         8.19160e+57
          1999.34890	         6.29750e+57
          2000.15520	         6.45626e+57
          2000.96150	         6.48045e+57
          2001.76780	         4.34316e+57
          2002.57410	         5.09030e+57
          2003.38040	         6.93522e+57
          2004.18670	         6.86853e+57
          2004.99300	         6.22357e+57
          2005.79930	         6.95705e+57
          2006.60560	         6.90145e+57
          2007.41190	         6.09008e+57
          2008.21820	         6.19927e+57
          2009.02450	         5.87926e+57
          2009.83080	         6.87418e+57
          2010.63710	         7.00318e+57
          2011.44340	         6.97265e+57
          2012.24970	         6.99859e+57
          2013.05600	         6.82562e+57
          2013.86230	         6.50400e+57
          2014.66860	         5.97903e+57
          2015.47490	         6.49607e+57
          2016.28120	         6.53613e+57
          2017.08750	         5.34272e+57
          2017.89380	         6.42940e+57
          2018.70010	         5.61490e+57
          2019.50640	         5.70609e+57
          2020.31270	         6.42931e+57
          2021.11900	         7.80381e+57
          2021.92530	         7.96317e+57
          2022.73160	         5.86770e+57
          2023.53790	         7.08229e+57
          2024.34420	         7.32074e+57
          2025.15050	         5.18204e+57
          2025.95680	         5.62294e+57
          2026.76310	         4.84621e+57
          2027.56940	         5.59583e+57
          2028.37570	         5.78141e+57
          2029.18200	         6.54850e+57
          2029.98830	         5.83986e+57
          2030.79460	         6.08905e+57
          2031.60090	         6.64243e+57
          2032.40720	         5.78524e+57
          2033.21350	         5.38257e+57
          2034.01980	         5.21445e+57
          2034.82610	         4.08200e+57
          2035.63240	         5.23042e+57
          2036.43870	         5.86895e+57
          2037.24500	         6.57525e+57
          2038.05130	         7.00068e+57
          2038.85760	         6.08642e+57
          2039.66390	         6.34980e+57
          2040.47020	         5.84614e+57
          2041.27650	         6.05252e+57
          2042.08280	         5.36152e+57
          2042.88910	         6.60161e+57
          2043.69540	         6.18542e+57
          2044.50170	         4.57552e+57
          2045.30800	         4.43526e+57
          2046.11430	         4.02844e+57
          2046.92060	         5.08018e+57
          2047.72690	         6.51843e+57
          2048.53320	         6.52866e+57
          2049.33950	         4.85636e+57
          2050.14580	         5.70357e+57
          2050.95210	         7.39410e+57
          2051.75840	         7.86579e+57
          2052.56470	         6.51784e+57
          2053.37100	         4.22839e+57
          2054.17730	         4.92578e+57
          2054.98360	         5.30829e+57
          2055.78990	         4.36299e+57
          2056.59620	         4.59213e+57
          2057.40250	         5.47295e+57
          2058.20880	         5.65105e+57
          2059.01510	         6.97215e+57
          2059.82140	         6.17646e+57
          2060.62770	         9.64248e+57
          2061.43400	         1.34727e+58
          2062.24030	         1.04512e+58
          2063.04660	         3.36688e+57
          2063.85290	         5.76230e+56
          2064.65920	        -2.11310e+57
          2065.46550	        -7.50779e+57
          2066.27180	        -6.98458e+57
          2067.07810	         3.83380e+57
          2067.88440	         6.39461e+57
          2068.69070	         6.58633e+57
          2069.49700	         3.81465e+57
          2070.30330	         2.31836e+57
          2071.10960	         6.02915e+57
          2071.91590	         6.17284e+57
          2072.72220	         4.25501e+57
          2073.52850	         5.18345e+57
          2074.33480	         4.50053e+57
          2075.14110	         4.33036e+57
          2075.94740	         3.65716e+57
          2076.75370	         5.15907e+57
          2077.56000	         4.77766e+57
          2078.36630	         4.57948e+57
          2079.17260	         5.54653e+57
          2079.97890	         6.00294e+57
          2080.78520	         5.03821e+57
          2081.59150	         4.68258e+57
          2082.39780	         5.28087e+57
          2083.20410	         2.72428e+57
          2084.01040	         2.02744e+57
          2084.81670	         3.35525e+57
          2085.62300	         3.35552e+57
          2086.42930	         4.41621e+57
          2087.23560	         3.39139e+57
          2088.04190	         3.88190e+57
          2088.84820	         3.71042e+57
          2089.65450	         1.97817e+57
          2090.46080	         4.77679e+56
          2091.26710	         1.69165e+57
          2092.07340	         2.53179e+57
          2092.87970	         3.00300e+57
          2093.68600	        -4.01667e+56
          2094.49230	         1.42260e+57
          2095.29860	         6.98718e+57
          2096.10490	         4.39014e+57
          2096.91120	         2.13877e+57
          2097.71750	         4.36184e+57
          2098.52380	         2.56437e+57
          2099.33010	         5.21490e+56
          2100.13640	        -1.64074e+56
          2100.94270	         1.94019e+57
          2101.74900	         3.44727e+57
          2102.55530	         3.65702e+57
          2103.36160	         3.27386e+57
          2104.16790	         3.75029e+57
          2104.97420	         1.90582e+57
          2105.78050	         6.63359e+56
          2106.58680	         2.12030e+56
          2107.39310	         5.54703e+55
          2108.19940	         7.92080e+56
          2109.00570	        -5.69301e+56
          2109.81200	        -1.83991e+56
          2110.61830	         1.24874e+57
          2111.42460	         4.55483e+56
          2112.23090	         1.07994e+57
          2113.03720	        -5.70681e+56
          2113.84350	        -1.31877e+57
          2114.64980	         1.46136e+57
          2115.45610	        -1.64237e+57
          2116.26240	        -3.83655e+57
          2117.06870	        -9.77107e+55
          2117.87500	        -2.38737e+57
          2118.68130	        -1.22154e+57
          2119.48760	        -8.92964e+56
          2120.29390	        -7.27328e+55
          2121.10020	        -2.84380e+57
          2121.90650	        -2.54831e+57
          2122.71280	         4.23379e+57
          2123.51910	         3.37619e+57
          2124.32540	         5.77157e+56
          2125.13170	        -2.72226e+57
          2125.93800	         1.73521e+57
          2126.74430	        -1.31925e+57
          2127.55060	        -6.63690e+57
          2128.35690	        -7.70164e+57
          2129.16320	        -1.86222e+57
          2129.96950	        -3.82628e+57
          2130.77580	        -8.52666e+56
          2131.58210	         1.24508e+57
          2132.38840	        -2.39113e+57
          2133.19470	        -2.30066e+57
          2134.00100	         6.95378e+56
          2134.80730	        -4.74281e+57
          2135.61360	         5.50880e+57
          2136.41990	         4.92073e+57
          2137.22620	         5.11111e+57
          2138.03250	        -2.41435e+56
          2138.83880	        -3.51603e+57
          2139.64510	        -7.26008e+57
          2140.45140	        -1.96904e+57
          2141.25770	        -1.23552e+58
          2142.06400	        -6.64339e+57
          2142.87030	         3.98693e+57
          2143.67660	         3.37422e+57
          2144.48290	         6.83558e+57
          2145.28920	         5.09528e+57
          2146.09550	        -1.79636e+57
          2146.90180	        -9.80063e+57
          2147.70810	         4.60062e+56
          2148.51440	         3.58271e+57
          2149.32070	        -3.67015e+57
          2150.12700	        -3.55657e+57
          2150.93330	        -2.11937e+57
          2151.73960	        -2.77646e+57
          2152.54590	        -2.69417e+57
          2153.35220	         3.43447e+57
          2154.15850	        -3.45997e+57
          2154.96480	         4.79340e+57
          2155.77110	        -5.93724e+57
          2156.57740	        -1.86317e+58
          2157.38370	        -8.76472e+57
          2158.19000	         4.76302e+57
          2158.99630	        -5.45572e+57
          2159.80260	        -1.16933e+58
          2160.60890	        -9.73688e+57
          2161.41520	         1.45930e+56
          2162.22150	        -7.67901e+56
          2163.02780	        -1.57141e+57
          2163.83410	        -5.29930e+57
          2164.64040	        -6.98180e+57
          2165.44670	        -8.84770e+57
          2166.25300	        -1.86126e+57
          2167.05930	        -1.17872e+57
          2167.86560	        -1.17465e+58
          2168.67190	        -1.52633e+58
          2169.47820	        -6.48811e+57
          2170.28450	        -6.77244e+56
          2171.09080	        -1.48507e+57
          2171.89710	        -6.08792e+57
          2172.70340	        -3.49163e+57
          2173.50970	        -7.24651e+57
          2174.31600	        -5.95980e+57
          2175.12230	        -3.40579e+57
          2175.92860	        -4.73150e+57
          2176.73490	        -3.84446e+57
          2177.54120	        -5.70574e+57
          2178.34750	        -4.70879e+57
          2179.15380	                 nan
          2179.96010	                 nan
          2180.76640	                 nan
          2181.57270	                 nan
          2182.37900	                 nan
          2183.18530	                 nan
          2183.99160	                 nan
          2184.79790	                 nan
          2185.60420	                 nan
          2186.41050	                 nan
          2187.21680	                 nan
          2188.02310	                 nan
          2188.82940	                 nan
          2189.63570	                 nan
          2190.44200	                 nan
          2191.24830	                 nan
          2192.05460	                 nan
          2192.86090	                 nan
          2193.66720	                 nan
          2194.47350	                 nan
          2195.27980	                 nan
          2196.08610	                 nan
          2196.89240	                 nan
          2197.69870	                 nan
          2198.50500	                 nan
          2199.31130	                 nan
          2200.11760	                 nan
          2200.92390	                 nan
          2201.73020	                 nan
          2202.53650	                 nan
          2203.34280	                 nan
          2204.14910	                 nan
          2204.95540	                 nan
          2205.76170	                 nan
          2206.56800	                 nan
          2207.37430	                 nan
          2208.18060	                 nan
          2208.98690	                 nan
          2209.79320	                 nan
          2210.59950	                 nan
          2211.40580	                 nan
          2212.21210	                 nan
          2213.01840	                 nan
          2213.82470	                 nan
          2214.63100	                 nan
          2215.43730	         0.00000e+00
