#sample_202_stacked_spectrum_rest_UV-bands_median_H-alpha_noDC.txt
#median Lum: 1.66331e+42
#Rest-frame wavelength (A) | Luminosity (erg/s/A)
#
          1110.00000	         0.00000e+00
          1110.80630	         3.67059e+59
          1111.61260	        -2.27015e+59
          1112.41890	        -1.21366e+59
          1113.22520	         2.93216e+58
          1114.03150	         1.85123e+59
          1114.83780	         2.69808e+59
          1115.64410	         2.18377e+59
          1116.45040	         2.15030e+59
          1117.25670	        -7.68338e+58
          1118.06300	         9.23956e+58
          1118.86930	         1.33482e+59
          1119.67560	         1.25672e+59
          1120.48190	        -3.98747e+58
          1121.28820	        -1.56226e+59
          1122.09450	         1.20912e+57
          1122.90080	         2.68447e+58
          1123.70710	         1.17043e+59
          1124.51340	         9.94453e+58
          1125.31970	        -2.14090e+58
          1126.12600	        -2.30661e+58
          1126.93230	        -5.64999e+58
          1127.73860	        -4.55407e+58
          1128.54490	        -3.12089e+58
          1129.35120	        -8.35069e+57
          1130.15750	        -4.57369e+58
          1130.96380	        -1.46208e+58
          1131.77010	         3.86355e+58
          1132.57640	         4.45137e+58
          1133.38270	         2.99300e+58
          1134.18900	         8.22905e+57
          1134.99530	         7.97344e+57
          1135.80160	         2.48419e+58
          1136.60790	         2.38505e+58
          1137.41420	         1.78169e+58
          1138.22050	         4.54516e+58
          1139.02680	         2.98551e+58
          1139.83310	         3.52407e+58
          1140.63940	         3.11955e+58
          1141.44570	        -1.05123e+58
          1142.25200	        -1.57480e+57
          1143.05830	         3.87475e+58
          1143.86460	         1.50999e+58
          1144.67090	         1.91043e+58
          1145.47720	         1.45760e+58
          1146.28350	         1.02439e+58
          1147.08980	         9.28688e+57
          1147.89610	         2.34343e+58
          1148.70240	         2.31814e+58
          1149.50870	         2.74823e+58
          1150.31500	         1.98996e+58
          1151.12130	         1.07468e+58
          1151.92760	         1.27282e+57
          1152.73390	         1.26604e+58
          1153.54020	         1.71799e+58
          1154.34650	         2.14251e+58
          1155.15280	         1.85959e+58
          1155.95910	         2.05757e+57
          1156.76540	        -7.29739e+55
          1157.57170	        -1.02120e+58
          1158.37800	         5.97637e+57
          1159.18430	         1.20160e+58
          1159.99060	         9.13097e+57
          1160.79690	        -3.50478e+57
          1161.60320	         1.00691e+58
          1162.40950	         1.46308e+58
          1163.21580	         2.10910e+58
          1164.02210	         3.42935e+57
          1164.82840	         9.08363e+57
          1165.63470	         2.48960e+58
          1166.44100	         3.54343e+58
          1167.24730	         2.47685e+58
          1168.05360	         1.09212e+58
          1168.85990	         7.25357e+57
          1169.66620	         7.48832e+57
          1170.47250	         1.63177e+58
          1171.27880	         1.93775e+58
          1172.08510	         2.48335e+58
          1172.89140	         1.98730e+58
          1173.69770	         2.99718e+57
          1174.50400	         5.96283e+57
          1175.31030	         1.54592e+58
          1176.11660	         1.32465e+58
          1176.92290	         1.10518e+58
          1177.72920	         8.20481e+57
          1178.53550	         1.01750e+58
          1179.34180	         7.50609e+57
          1180.14810	         9.38421e+57
          1180.95440	         1.00873e+58
          1181.76070	         1.06752e+58
          1182.56700	         1.17522e+58
          1183.37330	         1.22374e+58
          1184.17960	         1.53988e+58
          1184.98590	         1.36634e+58
          1185.79220	         1.07368e+58
          1186.59850	         1.13979e+58
          1187.40480	         7.76873e+57
          1188.21110	         1.10426e+58
          1189.01740	         1.00516e+58
          1189.82370	         1.22907e+58
          1190.63000	         1.42365e+58
          1191.43630	         1.51036e+58
          1192.24260	         1.10001e+58
          1193.04890	         1.29972e+58
          1193.85520	         1.38976e+58
          1194.66150	         6.42024e+57
          1195.46780	         1.19054e+58
          1196.27410	         1.20457e+58
          1197.08040	         7.91564e+57
          1197.88670	         1.35702e+58
          1198.69300	         1.82846e+58
          1199.49930	         1.81306e+58
          1200.30560	         9.73973e+57
          1201.11190	         9.09579e+57
          1201.91820	         9.53736e+57
          1202.72450	         6.87607e+57
          1203.53080	         1.41362e+58
          1204.33710	         7.93450e+57
          1205.14340	         9.87801e+57
          1205.94970	         6.77493e+57
          1206.75600	         4.66816e+57
          1207.56230	         5.42197e+57
          1208.36860	         9.22152e+57
          1209.17490	         6.98602e+57
          1209.98120	         8.52177e+57
          1210.78750	         7.61830e+57
          1211.59380	         1.07134e+58
          1212.40010	         1.77761e+58
          1213.20640	         2.23493e+58
          1214.01270	         2.28714e+58
          1214.81900	         2.73039e+58
          1215.62530	         4.65235e+58
          1216.43160	         9.17100e+58
          1217.23790	         1.55502e+59
          1218.04420	         1.14261e+59
          1218.85050	         8.53405e+58
          1219.65680	         5.60294e+58
          1220.46310	         3.15832e+58
          1221.26940	         2.42115e+58
          1222.07570	         1.18059e+58
          1222.88200	         1.02568e+58
          1223.68830	         9.44120e+57
          1224.49460	         6.87657e+57
          1225.30090	         6.04344e+57
          1226.10720	         7.88001e+57
          1226.91350	         6.97002e+57
          1227.71980	         8.92282e+57
          1228.52610	         9.29375e+57
          1229.33240	         8.55962e+57
          1230.13870	         8.84574e+57
          1230.94500	         8.26368e+57
          1231.75130	         7.79424e+57
          1232.55760	         9.06877e+57
          1233.36390	         7.45726e+57
          1234.17020	         9.29276e+57
          1234.97650	         9.29567e+57
          1235.78280	         8.81039e+57
          1236.58910	         1.08396e+58
          1237.39540	         1.27781e+58
          1238.20170	         9.36593e+57
          1239.00800	         1.06988e+58
          1239.81430	         1.35241e+58
          1240.62060	         1.15396e+58
          1241.42690	         1.15044e+58
          1242.23320	         1.00228e+58
          1243.03950	         7.13991e+57
          1243.84580	         7.77526e+57
          1244.65210	         9.99644e+57
          1245.45840	         8.96870e+57
          1246.26470	         1.15466e+58
          1247.07100	         8.26125e+57
          1247.87730	         3.71734e+57
          1248.68360	         2.74415e+57
          1249.48990	         6.87479e+57
          1250.29620	         9.01932e+57
          1251.10250	         6.75860e+57
          1251.90880	         5.71906e+57
          1252.71510	         5.95602e+57
          1253.52140	         6.65480e+57
          1254.32770	         1.10083e+58
          1255.13400	         1.36776e+58
          1255.94030	         9.63842e+57
          1256.74660	         9.06656e+57
          1257.55290	         1.17243e+58
          1258.35920	         1.06591e+58
          1259.16550	         5.77832e+57
          1259.97180	         4.82183e+57
          1260.77810	         7.96868e+57
          1261.58440	         1.20671e+58
          1262.39070	         7.58509e+57
          1263.19700	         6.39532e+57
          1264.00330	         1.04283e+58
          1264.80960	         1.27755e+58
          1265.61590	         1.50911e+58
          1266.42220	         1.38587e+58
          1267.22850	         1.09298e+58
          1268.03480	         1.22157e+58
          1268.84110	         1.45224e+58
          1269.64740	         1.36326e+58
          1270.45370	         1.28733e+58
          1271.26000	         1.25094e+58
          1272.06630	         1.14549e+58
          1272.87260	         1.14432e+58
          1273.67890	         1.13051e+58
          1274.48520	         1.20640e+58
          1275.29150	         1.29798e+58
          1276.09780	         1.04468e+58
          1276.90410	         1.27423e+58
          1277.71040	         1.27243e+58
          1278.51670	         1.32845e+58
          1279.32300	         1.53339e+58
          1280.12930	         1.37271e+58
          1280.93560	         1.04250e+58
          1281.74190	         1.04613e+58
          1282.54820	         1.19716e+58
          1283.35450	         9.62665e+57
          1284.16080	         9.03760e+57
          1284.96710	         1.25579e+58
          1285.77340	         1.25383e+58
          1286.57970	         1.07673e+58
          1287.38600	         1.45105e+58
          1288.19230	         1.93679e+58
          1288.99860	         1.46957e+58
          1289.80490	         8.28550e+57
          1290.61120	         1.15598e+58
          1291.41750	         1.44234e+58
          1292.22380	         1.25785e+58
          1293.03010	         1.30375e+58
          1293.83640	         1.42864e+58
          1294.64270	         1.15877e+58
          1295.44900	         8.32271e+57
          1296.25530	         6.57779e+57
          1297.06160	         9.50607e+57
          1297.86790	         1.08247e+58
          1298.67420	         7.51103e+57
          1299.48050	         8.73267e+57
          1300.28680	         9.52600e+57
          1301.09310	         7.70843e+57
          1301.89940	         4.63723e+57
          1302.70570	         7.52307e+57
          1303.51200	         8.58497e+57
          1304.31830	         9.03569e+57
          1305.12460	         1.02401e+58
          1305.93090	         1.11868e+58
          1306.73720	         1.23991e+58
          1307.54350	         1.36081e+58
          1308.34980	         1.41983e+58
          1309.15610	         1.52323e+58
          1309.96240	         1.44521e+58
          1310.76870	         1.25234e+58
          1311.57500	         1.05267e+58
          1312.38130	         1.06420e+58
          1313.18760	         1.44697e+58
          1313.99390	         1.71258e+58
          1314.80020	         1.70729e+58
          1315.60650	         1.46962e+58
          1316.41280	         1.21422e+58
          1317.21910	         1.04579e+58
          1318.02540	         1.15745e+58
          1318.83170	         1.26999e+58
          1319.63800	         1.12633e+58
          1320.44430	         1.08087e+58
          1321.25060	         1.24502e+58
          1322.05690	         1.30670e+58
          1322.86320	         1.18323e+58
          1323.66950	         1.13778e+58
          1324.47580	         1.05594e+58
          1325.28210	         1.09035e+58
          1326.08840	         1.10593e+58
          1326.89470	         1.25518e+58
          1327.70100	         1.09649e+58
          1328.50730	         8.51212e+57
          1329.31360	         1.02367e+58
          1330.11990	         9.87868e+57
          1330.92620	         9.34072e+57
          1331.73250	         1.04674e+58
          1332.53880	         9.81843e+57
          1333.34510	         9.56651e+57
          1334.15140	         8.84142e+57
          1334.95770	         8.51744e+57
          1335.76400	         9.56945e+57
          1336.57030	         1.05702e+58
          1337.37660	         1.06381e+58
          1338.18290	         1.16417e+58
          1338.98920	         1.16981e+58
          1339.79550	         1.05423e+58
          1340.60180	         1.09247e+58
          1341.40810	         1.21431e+58
          1342.21440	         1.14451e+58
          1343.02070	         1.13611e+58
          1343.82700	         1.18833e+58
          1344.63330	         1.35773e+58
          1345.43960	         1.54570e+58
          1346.24590	         1.34790e+58
          1347.05220	         1.17461e+58
          1347.85850	         1.03111e+58
          1348.66480	         1.18868e+58
          1349.47110	         1.35900e+58
          1350.27740	         1.09021e+58
          1351.08370	         1.06855e+58
          1351.89000	         1.10489e+58
          1352.69630	         1.13955e+58
          1353.50260	         1.03677e+58
          1354.30890	         1.12550e+58
          1355.11520	         1.22641e+58
          1355.92150	         1.21699e+58
          1356.72780	         1.10872e+58
          1357.53410	         1.08863e+58
          1358.34040	         1.05711e+58
          1359.14670	         1.05789e+58
          1359.95300	         1.11878e+58
          1360.75930	         1.16392e+58
          1361.56560	         1.09667e+58
          1362.37190	         1.15816e+58
          1363.17820	         1.06599e+58
          1363.98450	         1.13722e+58
          1364.79080	         1.20834e+58
          1365.59710	         1.15159e+58
          1366.40340	         1.12359e+58
          1367.20970	         1.03950e+58
          1368.01600	         9.10605e+57
          1368.82230	         7.88326e+57
          1369.62860	         9.79347e+57
          1370.43490	         9.74462e+57
          1371.24120	         9.06146e+57
          1372.04750	         8.51424e+57
          1372.85380	         9.89332e+57
          1373.66010	         1.04619e+58
          1374.46640	         9.78616e+57
          1375.27270	         9.97286e+57
          1376.07900	         9.38651e+57
          1376.88530	         9.42533e+57
          1377.69160	         8.31294e+57
          1378.49790	         7.04626e+57
          1379.30420	         7.00624e+57
          1380.11050	         8.98927e+57
          1380.91680	         8.20259e+57
          1381.72310	         6.66189e+57
          1382.52940	         9.05343e+57
          1383.33570	         9.36660e+57
          1384.14200	         1.02329e+58
          1384.94830	         1.16064e+58
          1385.75460	         1.10628e+58
          1386.56090	         1.18728e+58
          1387.36720	         1.10539e+58
          1388.17350	         1.21695e+58
          1388.97980	         1.07471e+58
          1389.78610	         9.92103e+57
          1390.59240	         8.85321e+57
          1391.39870	         7.19502e+57
          1392.20500	         9.62640e+57
          1393.01130	         8.34177e+57
          1393.81760	         7.32098e+57
          1394.62390	         7.34536e+57
          1395.43020	         6.89168e+57
          1396.23650	         7.85408e+57
          1397.04280	         8.36094e+57
          1397.84910	         8.67328e+57
          1398.65540	         8.49643e+57
          1399.46170	         9.69797e+57
          1400.26800	         9.04600e+57
          1401.07430	         7.48605e+57
          1401.88060	         7.46754e+57
          1402.68690	         9.93650e+57
          1403.49320	         9.70313e+57
          1404.29950	         9.48386e+57
          1405.10580	         1.01230e+58
          1405.91210	         1.08136e+58
          1406.71840	         1.10788e+58
          1407.52470	         1.03829e+58
          1408.33100	         1.00094e+58
          1409.13730	         1.11732e+58
          1409.94360	         1.29112e+58
          1410.74990	         1.21262e+58
          1411.55620	         9.54727e+57
          1412.36250	         9.75610e+57
          1413.16880	         1.00132e+58
          1413.97510	         8.59826e+57
          1414.78140	         9.03305e+57
          1415.58770	         1.05680e+58
          1416.39400	         1.07985e+58
          1417.20030	         1.15311e+58
          1418.00660	         1.05220e+58
          1418.81290	         9.06611e+57
          1419.61920	         1.03898e+58
          1420.42550	         1.22230e+58
          1421.23180	         1.32364e+58
          1422.03810	         1.23147e+58
          1422.84440	         1.14605e+58
          1423.65070	         1.36128e+58
          1424.45700	         1.18638e+58
          1425.26330	         9.03996e+57
          1426.06960	         9.96852e+57
          1426.87590	         9.81537e+57
          1427.68220	         9.56566e+57
          1428.48850	         1.13744e+58
          1429.29480	         1.06361e+58
          1430.10110	         9.24777e+57
          1430.90740	         9.34183e+57
          1431.71370	         8.73199e+57
          1432.52000	         8.20296e+57
          1433.32630	         7.88990e+57
          1434.13260	         7.58045e+57
          1434.93890	         8.53250e+57
          1435.74520	         8.50969e+57
          1436.55150	         8.76772e+57
          1437.35780	         8.98377e+57
          1438.16410	         9.45718e+57
          1438.97040	         9.51247e+57
          1439.77670	         9.18982e+57
          1440.58300	         9.07981e+57
          1441.38930	         8.99947e+57
          1442.19560	         9.43126e+57
          1443.00190	         9.55470e+57
          1443.80820	         1.01014e+58
          1444.61450	         9.16297e+57
          1445.42080	         8.67516e+57
          1446.22710	         9.99826e+57
          1447.03340	         9.79371e+57
          1447.83970	         1.12598e+58
          1448.64600	         1.10854e+58
          1449.45230	         1.05017e+58
          1450.25860	         1.03646e+58
          1451.06490	         8.80876e+57
          1451.87120	         7.74926e+57
          1452.67750	         7.45224e+57
          1453.48380	         9.09809e+57
          1454.29010	         7.73147e+57
          1455.09640	         7.28325e+57
          1455.90270	         8.90214e+57
          1456.70900	         9.20085e+57
          1457.51530	         1.07485e+58
          1458.32160	         1.30476e+58
          1459.12790	         1.25825e+58
          1459.93420	         1.07803e+58
          1460.74050	         7.62669e+57
          1461.54680	         8.50201e+57
          1462.35310	         8.65613e+57
          1463.15940	         8.62277e+57
          1463.96570	         1.08007e+58
          1464.77200	         1.17300e+58
          1465.57830	         1.11816e+58
          1466.38460	         9.61961e+57
          1467.19090	         8.43709e+57
          1467.99720	         8.78817e+57
          1468.80350	         9.28980e+57
          1469.60980	         9.28135e+57
          1470.41610	         1.03873e+58
          1471.22240	         1.04963e+58
          1472.02870	         1.00550e+58
          1472.83500	         9.98686e+57
          1473.64130	         9.78568e+57
          1474.44760	         9.24854e+57
          1475.25390	         9.01545e+57
          1476.06020	         8.93715e+57
          1476.86650	         9.46098e+57
          1477.67280	         7.89081e+57
          1478.47910	         6.80336e+57
          1479.28540	         6.38451e+57
          1480.09170	         8.62001e+57
          1480.89800	         9.92827e+57
          1481.70430	         9.42873e+57
          1482.51060	         7.86595e+57
          1483.31690	         8.27188e+57
          1484.12320	         8.68665e+57
          1484.92950	         8.41480e+57
          1485.73580	         7.80204e+57
          1486.54210	         8.26582e+57
          1487.34840	         9.56647e+57
          1488.15470	         9.66268e+57
          1488.96100	         9.44546e+57
          1489.76730	         1.03616e+58
          1490.57360	         8.67404e+57
          1491.37990	         7.41600e+57
          1492.18620	         8.32945e+57
          1492.99250	         8.07718e+57
          1493.79880	         8.31322e+57
          1494.60510	         9.73006e+57
          1495.41140	         8.33212e+57
          1496.21770	         8.08769e+57
          1497.02400	         9.72658e+57
          1497.83030	         8.87384e+57
          1498.63660	         7.56659e+57
          1499.44290	         7.25943e+57
          1500.24920	         8.48775e+57
          1501.05550	         8.34788e+57
          1501.86180	         8.58834e+57
          1502.66810	         1.07541e+58
          1503.47440	         9.66234e+57
          1504.28070	         9.04879e+57
          1505.08700	         1.06004e+58
          1505.89330	         1.02950e+58
          1506.69960	         9.31391e+57
          1507.50590	         8.95451e+57
          1508.31220	         8.83989e+57
          1509.11850	         8.57704e+57
          1509.92480	         8.65207e+57
          1510.73110	         8.85550e+57
          1511.53740	         8.19906e+57
          1512.34370	         6.95193e+57
          1513.15000	         8.86390e+57
          1513.95630	         1.02449e+58
          1514.76260	         9.07219e+57
          1515.56890	         8.16285e+57
          1516.37520	         8.41080e+57
          1517.18150	         8.30188e+57
          1517.98780	         7.76917e+57
          1518.79410	         7.11187e+57
          1519.60040	         7.05798e+57
          1520.40670	         8.92619e+57
          1521.21300	         9.61956e+57
          1522.01930	         9.19748e+57
          1522.82560	         9.33489e+57
          1523.63190	         9.64932e+57
          1524.43820	         8.33980e+57
          1525.24450	         6.86243e+57
          1526.05080	         6.06726e+57
          1526.85710	         6.08003e+57
          1527.66340	         6.70688e+57
          1528.46970	         7.89712e+57
          1529.27600	         8.33633e+57
          1530.08230	         8.26192e+57
          1530.88860	         8.27588e+57
          1531.69490	         8.48450e+57
          1532.50120	         9.26836e+57
          1533.30750	         9.73954e+57
          1534.11380	         9.45144e+57
          1534.92010	         1.00196e+58
          1535.72640	         9.10900e+57
          1536.53270	         9.52965e+57
          1537.33900	         9.01166e+57
          1538.14530	         8.79700e+57
          1538.95160	         9.77199e+57
          1539.75790	         9.43760e+57
          1540.56420	         8.48706e+57
          1541.37050	         7.90643e+57
          1542.17680	         8.35130e+57
          1542.98310	         8.32196e+57
          1543.78940	         7.89042e+57
          1544.59570	         7.74399e+57
          1545.40200	         8.64122e+57
          1546.20830	         8.70612e+57
          1547.01460	         1.05950e+58
          1547.82090	         1.15472e+58
          1548.62720	         1.14883e+58
          1549.43350	         1.18954e+58
          1550.23980	         1.13756e+58
          1551.04610	         1.23092e+58
          1551.85240	         1.19824e+58
          1552.65870	         1.18675e+58
          1553.46500	         1.15657e+58
          1554.27130	         1.01828e+58
          1555.07760	         9.88947e+57
          1555.88390	         9.48003e+57
          1556.69020	         8.75793e+57
          1557.49650	         9.23880e+57
          1558.30280	         9.58614e+57
          1559.10910	         1.00730e+58
          1559.91540	         9.43190e+57
          1560.72170	         8.51398e+57
          1561.52800	         9.17082e+57
          1562.33430	         8.70329e+57
          1563.14060	         7.76084e+57
          1563.94690	         7.70636e+57
          1564.75320	         7.39132e+57
          1565.55950	         7.41592e+57
          1566.36580	         7.96570e+57
          1567.17210	         9.49419e+57
          1567.97840	         9.01606e+57
          1568.78470	         8.37940e+57
          1569.59100	         8.71461e+57
          1570.39730	         7.85235e+57
          1571.20360	         7.17262e+57
          1572.00990	         8.61905e+57
          1572.81620	         9.47946e+57
          1573.62250	         9.77053e+57
          1574.42880	         8.68214e+57
          1575.23510	         7.11800e+57
          1576.04140	         7.99339e+57
          1576.84770	         8.89280e+57
          1577.65400	         9.34490e+57
          1578.46030	         1.01755e+58
          1579.26660	         1.03370e+58
          1580.07290	         8.78685e+57
          1580.87920	         7.24652e+57
          1581.68550	         7.22284e+57
          1582.49180	         8.16414e+57
          1583.29810	         7.98365e+57
          1584.10440	         7.65291e+57
          1584.91070	         8.32528e+57
          1585.71700	         8.46576e+57
          1586.52330	         8.88849e+57
          1587.32960	         9.10423e+57
          1588.13590	         8.70633e+57
          1588.94220	         8.26715e+57
          1589.74850	         8.76649e+57
          1590.55480	         9.62752e+57
          1591.36110	         9.38186e+57
          1592.16740	         8.85014e+57
          1592.97370	         8.69615e+57
          1593.78000	         8.94899e+57
          1594.58630	         8.76489e+57
          1595.39260	         8.26018e+57
          1596.19890	         9.18208e+57
          1597.00520	         1.04789e+58
          1597.81150	         8.54888e+57
          1598.61780	         7.11944e+57
          1599.42410	         7.05284e+57
          1600.23040	         7.47192e+57
          1601.03670	         8.28390e+57
          1601.84300	         7.55345e+57
          1602.64930	         7.92582e+57
          1603.45560	         8.68825e+57
          1604.26190	         8.50202e+57
          1605.06820	         7.86047e+57
          1605.87450	         7.17968e+57
          1606.68080	         7.00800e+57
          1607.48710	         6.15513e+57
          1608.29340	         5.88377e+57
          1609.09970	         6.10432e+57
          1609.90600	         6.30254e+57
          1610.71230	         5.68873e+57
          1611.51860	         6.44599e+57
          1612.32490	         6.95195e+57
          1613.13120	         7.93419e+57
          1613.93750	         8.58060e+57
          1614.74380	         8.88889e+57
          1615.55010	         8.87243e+57
          1616.35640	         9.67797e+57
          1617.16270	         1.02787e+58
          1617.96900	         9.29863e+57
          1618.77530	         7.95616e+57
          1619.58160	         7.50193e+57
          1620.38790	         7.33059e+57
          1621.19420	         8.48869e+57
          1622.00050	         7.90128e+57
          1622.80680	         7.93388e+57
          1623.61310	         7.70949e+57
          1624.41940	         7.36662e+57
          1625.22570	         8.35839e+57
          1626.03200	         8.10540e+57
          1626.83830	         7.49235e+57
          1627.64460	         6.60320e+57
          1628.45090	         5.59916e+57
          1629.25720	         7.71987e+57
          1630.06350	         8.81605e+57
          1630.86980	         7.10282e+57
          1631.67610	         7.69240e+57
          1632.48240	         8.33130e+57
          1633.28870	         8.68453e+57
          1634.09500	         9.01721e+57
          1634.90130	         1.01716e+58
          1635.70760	         9.52785e+57
          1636.51390	         8.66680e+57
          1637.32020	         7.59402e+57
          1638.12650	         8.66871e+57
          1638.93280	         9.56485e+57
          1639.73910	         9.67609e+57
          1640.54540	         1.05660e+58
          1641.35170	         8.53219e+57
          1642.15800	         8.66901e+57
          1642.96430	         8.40081e+57
          1643.77060	         8.42187e+57
          1644.57690	         8.72878e+57
          1645.38320	         8.26945e+57
          1646.18950	         7.40036e+57
          1646.99580	         9.10625e+57
          1647.80210	         8.33248e+57
          1648.60840	         8.04685e+57
          1649.41470	         8.89463e+57
          1650.22100	         7.62584e+57
          1651.02730	         7.01062e+57
          1651.83360	         7.24803e+57
          1652.63990	         8.68424e+57
          1653.44620	         8.83776e+57
          1654.25250	         7.68610e+57
          1655.05880	         7.07235e+57
          1655.86510	         8.26147e+57
          1656.67140	         8.63575e+57
          1657.47770	         8.16935e+57
          1658.28400	         8.08394e+57
          1659.09030	         8.59282e+57
          1659.89660	         8.91340e+57
          1660.70290	         9.65757e+57
          1661.50920	         1.01775e+58
          1662.31550	         7.90990e+57
          1663.12180	         7.56303e+57
          1663.92810	         1.02028e+58
          1664.73440	         1.08992e+58
          1665.54070	         1.10578e+58
          1666.34700	         1.22267e+58
          1667.15330	         1.17082e+58
          1667.95960	         9.38113e+57
          1668.76590	         7.52885e+57
          1669.57220	         7.04802e+57
          1670.37850	         6.70690e+57
          1671.18480	         8.04000e+57
          1671.99110	         8.14103e+57
          1672.79740	         6.78729e+57
          1673.60370	         6.96097e+57
          1674.41000	         7.03357e+57
          1675.21630	         7.22213e+57
          1676.02260	         7.47465e+57
          1676.82890	         6.87029e+57
          1677.63520	         6.67942e+57
          1678.44150	         7.46369e+57
          1679.24780	         8.49350e+57
          1680.05410	         7.63324e+57
          1680.86040	         5.94691e+57
          1681.66670	         7.64309e+57
          1682.47300	         8.79104e+57
          1683.27930	         8.80763e+57
          1684.08560	         8.24719e+57
          1684.89190	         8.02651e+57
          1685.69820	         6.06535e+57
          1686.50450	         5.07354e+57
          1687.31080	         6.31848e+57
          1688.11710	         7.83552e+57
          1688.92340	         6.29354e+57
          1689.72970	         6.38455e+57
          1690.53600	         7.10831e+57
          1691.34230	         7.14031e+57
          1692.14860	         8.03322e+57
          1692.95490	         8.31121e+57
          1693.76120	         6.77700e+57
          1694.56750	         5.91573e+57
          1695.37380	         8.92682e+57
          1696.18010	         8.96663e+57
          1696.98640	         7.68086e+57
          1697.79270	         7.29464e+57
          1698.59900	         7.66317e+57
          1699.40530	         7.61124e+57
          1700.21160	         6.95503e+57
          1701.01790	         8.28572e+57
          1701.82420	         7.48340e+57
          1702.63050	         6.99593e+57
          1703.43680	         8.81965e+57
          1704.24310	         9.27139e+57
          1705.04940	         8.66004e+57
          1705.85570	         8.43853e+57
          1706.66200	         8.47305e+57
          1707.46830	         8.05187e+57
          1708.27460	         8.13491e+57
          1709.08090	         7.47728e+57
          1709.88720	         6.09314e+57
          1710.69350	         6.23478e+57
          1711.49980	         6.49295e+57
          1712.30610	         6.79822e+57
          1713.11240	         8.64154e+57
          1713.91870	         8.22169e+57
          1714.72500	         7.75058e+57
          1715.53130	         7.92433e+57
          1716.33760	         6.97138e+57
          1717.14390	         7.17991e+57
          1717.95020	         8.48192e+57
          1718.75650	         8.49594e+57
          1719.56280	         7.59165e+57
          1720.36910	         7.30859e+57
          1721.17540	         7.47805e+57
          1721.98170	         6.01253e+57
          1722.78800	         5.95308e+57
          1723.59430	         7.29031e+57
          1724.40060	         8.48578e+57
          1725.20690	         8.12137e+57
          1726.01320	         7.23813e+57
          1726.81950	         7.80904e+57
          1727.62580	         7.46543e+57
          1728.43210	         7.00801e+57
          1729.23840	         7.34796e+57
          1730.04470	         8.24931e+57
          1730.85100	         8.07351e+57
          1731.65730	         7.91016e+57
          1732.46360	         7.98184e+57
          1733.26990	         7.17918e+57
          1734.07620	         7.85909e+57
          1734.88250	         8.79948e+57
          1735.68880	         7.87454e+57
          1736.49510	         8.11903e+57
          1737.30140	         8.30424e+57
          1738.10770	         7.97960e+57
          1738.91400	         7.75299e+57
          1739.72030	         7.52950e+57
          1740.52660	         6.37016e+57
          1741.33290	         5.47391e+57
          1742.13920	         5.69593e+57
          1742.94550	         7.38265e+57
          1743.75180	         8.60145e+57
          1744.55810	         8.20352e+57
          1745.36440	         7.09766e+57
          1746.17070	         6.60828e+57
          1746.97700	         7.37094e+57
          1747.78330	         7.54399e+57
          1748.58960	         7.07080e+57
          1749.39590	         7.21992e+57
          1750.20220	         6.68415e+57
          1751.00850	         6.03403e+57
          1751.81480	         6.10565e+57
          1752.62110	         7.15366e+57
          1753.42740	         7.82806e+57
          1754.23370	         6.51431e+57
          1755.04000	         7.14516e+57
          1755.84630	         7.60239e+57
          1756.65260	         8.81838e+57
          1757.45890	         9.08620e+57
          1758.26520	         7.27264e+57
          1759.07150	         9.32544e+57
          1759.87780	         9.67266e+57
          1760.68410	         8.34757e+57
          1761.49040	         8.46860e+57
          1762.29670	         6.23143e+57
          1763.10300	         6.39853e+57
          1763.90930	         7.46433e+57
          1764.71560	         7.71593e+57
          1765.52190	         7.73428e+57
          1766.32820	         9.33476e+57
          1767.13450	         8.72217e+57
          1767.94080	         6.65252e+57
          1768.74710	         6.91959e+57
          1769.55340	         6.80099e+57
          1770.35970	         5.98993e+57
          1771.16600	         7.02383e+57
          1771.97230	         7.64354e+57
          1772.77860	         8.88921e+57
          1773.58490	         8.49802e+57
          1774.39120	         6.37803e+57
          1775.19750	         6.34669e+57
          1776.00380	         7.19251e+57
          1776.81010	         6.39824e+57
          1777.61640	         7.10169e+57
          1778.42270	         8.37388e+57
          1779.22900	         7.82812e+57
          1780.03530	         6.33512e+57
          1780.84160	         7.30752e+57
          1781.64790	         7.78452e+57
          1782.45420	         6.90117e+57
          1783.26050	         7.30958e+57
          1784.06680	         7.60391e+57
          1784.87310	         7.79182e+57
          1785.67940	         7.73612e+57
          1786.48570	         7.37596e+57
          1787.29200	         6.08909e+57
          1788.09830	         5.70537e+57
          1788.90460	         5.87383e+57
          1789.71090	         5.93406e+57
          1790.51720	         5.41128e+57
          1791.32350	         7.91862e+57
          1792.12980	         9.65236e+57
          1792.93610	         8.20139e+57
          1793.74240	         7.36421e+57
          1794.54870	         7.99900e+57
          1795.35500	         7.64771e+57
          1796.16130	         7.69814e+57
          1796.96760	         6.92493e+57
          1797.77390	         6.98563e+57
          1798.58020	         6.83650e+57
          1799.38650	         6.63670e+57
          1800.19280	         7.51215e+57
          1800.99910	         7.89803e+57
          1801.80540	         7.22285e+57
          1802.61170	         8.26927e+57
          1803.41800	         8.17179e+57
          1804.22430	         6.54035e+57
          1805.03060	         7.33172e+57
          1805.83690	         8.16629e+57
          1806.64320	         7.59848e+57
          1807.44950	         7.33937e+57
          1808.25580	         7.78203e+57
          1809.06210	         8.10920e+57
          1809.86840	         7.74268e+57
          1810.67470	         8.23487e+57
          1811.48100	         8.49944e+57
          1812.28730	         9.36846e+57
          1813.09360	         7.33347e+57
          1813.89990	         8.73431e+57
          1814.70620	         7.88606e+57
          1815.51250	         7.27321e+57
          1816.31880	         8.20937e+57
          1817.12510	         7.43341e+57
          1817.93140	         5.79705e+57
          1818.73770	         7.03040e+57
          1819.54400	         8.15486e+57
          1820.35030	         8.05988e+57
          1821.15660	         6.43636e+57
          1821.96290	         6.74379e+57
          1822.76920	         7.32473e+57
          1823.57550	         7.69774e+57
          1824.38180	         7.94589e+57
          1825.18810	         7.61496e+57
          1825.99440	         8.48680e+57
          1826.80070	         7.18401e+57
          1827.60700	         5.72566e+57
          1828.41330	         5.42652e+57
          1829.21960	         5.34430e+57
          1830.02590	         6.34075e+57
          1830.83220	         8.00313e+57
          1831.63850	         6.62669e+57
          1832.44480	         6.38225e+57
          1833.25110	         7.75520e+57
          1834.05740	         7.84516e+57
          1834.86370	         6.75711e+57
          1835.67000	         5.48237e+57
          1836.47630	         6.18938e+57
          1837.28260	         7.32825e+57
          1838.08890	         8.91136e+57
          1838.89520	         8.37004e+57
          1839.70150	         8.06658e+57
          1840.50780	         8.71579e+57
          1841.31410	         7.72261e+57
          1842.12040	         6.37246e+57
          1842.92670	         7.38432e+57
          1843.73300	         7.01533e+57
          1844.53930	         7.17827e+57
          1845.34560	         7.85016e+57
          1846.15190	         7.89703e+57
          1846.95820	         7.75874e+57
          1847.76450	         7.09436e+57
          1848.57080	         5.42442e+57
          1849.37710	         5.48408e+57
          1850.18340	         6.53111e+57
          1850.98970	         8.44761e+57
          1851.79600	         8.75909e+57
          1852.60230	         7.49632e+57
          1853.40860	         6.27923e+57
          1854.21490	         6.53758e+57
          1855.02120	         5.14548e+57
          1855.82750	         4.37383e+57
          1856.63380	         6.42571e+57
          1857.44010	         6.92847e+57
          1858.24640	         7.41242e+57
          1859.05270	         6.98232e+57
          1859.85900	         5.44074e+57
          1860.66530	         5.30979e+57
          1861.47160	         7.67877e+57
          1862.27790	         7.87025e+57
          1863.08420	         6.98391e+57
          1863.89050	         7.49173e+57
          1864.69680	         7.78064e+57
          1865.50310	         7.67137e+57
          1866.30940	         7.41062e+57
          1867.11570	         6.58625e+57
          1867.92200	         7.03880e+57
          1868.72830	         6.55179e+57
          1869.53460	         6.77955e+57
          1870.34090	         7.75940e+57
          1871.14720	         7.81514e+57
          1871.95350	         6.72625e+57
          1872.75980	         6.97245e+57
          1873.56610	         6.53783e+57
          1874.37240	         6.17434e+57
          1875.17870	         5.98553e+57
          1875.98500	         7.83689e+57
          1876.79130	         8.18703e+57
          1877.59760	         6.88729e+57
          1878.40390	         6.34430e+57
          1879.21020	         7.29751e+57
          1880.01650	         8.07807e+57
          1880.82280	         8.80856e+57
          1881.62910	         9.43758e+57
          1882.43540	         9.89209e+57
          1883.24170	         8.04650e+57
          1884.04800	         6.27379e+57
          1884.85430	         6.64548e+57
          1885.66060	         7.58012e+57
          1886.46690	         6.92417e+57
          1887.27320	         6.78164e+57
          1888.07950	         6.28568e+57
          1888.88580	         6.55844e+57
          1889.69210	         7.98271e+57
          1890.49840	         7.99855e+57
          1891.30470	         7.81070e+57
          1892.11100	         8.24164e+57
          1892.91730	         7.37632e+57
          1893.72360	         7.55161e+57
          1894.52990	         7.76240e+57
          1895.33620	         8.21931e+57
          1896.14250	         6.20462e+57
          1896.94880	         4.27367e+57
          1897.75510	         3.67215e+57
          1898.56140	         5.91794e+57
          1899.36770	         8.19529e+57
          1900.17400	         7.12932e+57
          1900.98030	         6.36064e+57
          1901.78660	         7.07156e+57
          1902.59290	         7.76834e+57
          1903.39920	         9.05460e+57
          1904.20550	         9.78321e+57
          1905.01180	         9.24249e+57
          1905.81810	         9.62035e+57
          1906.62440	         1.31357e+58
          1907.43070	         1.52474e+58
          1908.23700	         1.61743e+58
          1909.04330	         1.45649e+58
          1909.84960	         1.14159e+58
          1910.65590	         8.77528e+57
          1911.46220	         8.57251e+57
          1912.26850	         6.54432e+57
          1913.07480	         5.48251e+57
          1913.88110	         5.66747e+57
          1914.68740	         5.87290e+57
          1915.49370	         6.16134e+57
          1916.30000	         6.24235e+57
          1917.10630	         6.58720e+57
          1917.91260	         6.92480e+57
          1918.71890	         6.95621e+57
          1919.52520	         7.12516e+57
          1920.33150	         5.40270e+57
          1921.13780	         7.14007e+57
          1921.94410	         9.02050e+57
          1922.75040	         9.12749e+57
          1923.55670	         7.69331e+57
          1924.36300	         7.39690e+57
          1925.16930	         6.38434e+57
          1925.97560	         5.47889e+57
          1926.78190	         5.60267e+57
          1927.58820	         6.29604e+57
          1928.39450	         5.63366e+57
          1929.20080	         5.93767e+57
          1930.00710	         7.59664e+57
          1930.81340	         7.50882e+57
          1931.61970	         6.33823e+57
          1932.42600	         7.55399e+57
          1933.23230	         7.60992e+57
          1934.03860	         5.69584e+57
          1934.84490	         5.17094e+57
          1935.65120	         7.15908e+57
          1936.45750	         8.39189e+57
          1937.26380	         6.36628e+57
          1938.07010	         6.05287e+57
          1938.87640	         5.46987e+57
          1939.68270	         7.11830e+57
          1940.48900	         7.65884e+57
          1941.29530	         8.01392e+57
          1942.10160	         7.94504e+57
          1942.90790	         5.54691e+57
          1943.71420	         5.87846e+57
          1944.52050	         6.67308e+57
          1945.32680	         6.28290e+57
          1946.13310	         7.48349e+57
          1946.93940	         7.65439e+57
          1947.74570	         7.22102e+57
          1948.55200	         6.84818e+57
          1949.35830	         6.67541e+57
          1950.16460	         6.54549e+57
          1950.97090	         6.65859e+57
          1951.77720	         6.39820e+57
          1952.58350	         7.10574e+57
          1953.38980	         7.29299e+57
          1954.19610	         5.13547e+57
          1955.00240	         4.47813e+57
          1955.80870	         6.43046e+57
          1956.61500	         6.51712e+57
          1957.42130	         6.73318e+57
          1958.22760	         5.94911e+57
          1959.03390	         7.06744e+57
          1959.84020	         7.38183e+57
          1960.64650	         8.19046e+57
          1961.45280	         6.91648e+57
          1962.25910	         6.23260e+57
          1963.06540	         5.78012e+57
          1963.87170	         5.26310e+57
          1964.67800	         6.95229e+57
          1965.48430	         7.26449e+57
          1966.29060	         6.07113e+57
          1967.09690	         7.15801e+57
          1967.90320	         6.91029e+57
          1968.70950	         6.83165e+57
          1969.51580	         6.33326e+57
          1970.32210	         6.67811e+57
          1971.12840	         6.26359e+57
          1971.93470	         4.57068e+57
          1972.74100	         5.23845e+57
          1973.54730	         6.12431e+57
          1974.35360	         5.91406e+57
          1975.15990	         6.62763e+57
          1975.96620	         6.20592e+57
          1976.77250	         7.74465e+57
          1977.57880	         7.16630e+57
          1978.38510	         5.91728e+57
          1979.19140	         6.66359e+57
          1979.99770	         7.50400e+57
          1980.80400	         6.77433e+57
          1981.61030	         6.86873e+57
          1982.41660	         5.59704e+57
          1983.22290	         6.46576e+57
          1984.02920	         6.23583e+57
          1984.83550	         6.09072e+57
          1985.64180	         7.87308e+57
          1986.44810	         6.57091e+57
          1987.25440	         5.71423e+57
          1988.06070	         5.60230e+57
          1988.86700	         6.51676e+57
          1989.67330	         6.89912e+57
          1990.47960	         6.50957e+57
          1991.28590	         6.26154e+57
          1992.09220	         7.17978e+57
          1992.89850	         6.52663e+57
          1993.70480	         6.16669e+57
          1994.51110	         6.24498e+57
          1995.31740	         5.31602e+57
          1996.12370	         5.34367e+57
          1996.93000	         6.67319e+57
          1997.73630	         7.87978e+57
          1998.54260	         7.49878e+57
          1999.34890	         6.37529e+57
          2000.15520	         6.65053e+57
          2000.96150	         6.95496e+57
          2001.76780	         6.15525e+57
          2002.57410	         4.95483e+57
          2003.38040	         5.98567e+57
          2004.18670	         5.96180e+57
          2004.99300	         5.80214e+57
          2005.79930	         7.33003e+57
          2006.60560	         6.25780e+57
          2007.41190	         5.96481e+57
          2008.21820	         6.44416e+57
          2009.02450	         7.69580e+57
          2009.83080	         7.44389e+57
          2010.63710	         5.88662e+57
          2011.44340	         6.64041e+57
          2012.24970	         7.99216e+57
          2013.05600	         7.97962e+57
          2013.86230	         6.73176e+57
          2014.66860	         5.40883e+57
          2015.47490	         6.58957e+57
          2016.28120	         6.19599e+57
          2017.08750	         5.07604e+57
          2017.89380	         5.79890e+57
          2018.70010	         6.03211e+57
          2019.50640	         5.40567e+57
          2020.31270	         5.68688e+57
          2021.11900	         7.46878e+57
          2021.92530	         7.24168e+57
          2022.73160	         6.12976e+57
          2023.53790	         6.07772e+57
          2024.34420	         5.08045e+57
          2025.15050	         5.33346e+57
          2025.95680	         4.22245e+57
          2026.76310	         6.14320e+57
          2027.56940	         6.40736e+57
          2028.37570	         7.43611e+57
          2029.18200	         6.30574e+57
          2029.98830	         6.57960e+57
          2030.79460	         6.14887e+57
          2031.60090	         5.64863e+57
          2032.40720	         6.15985e+57
          2033.21350	         7.15677e+57
          2034.01980	         6.23837e+57
          2034.82610	         4.99556e+57
          2035.63240	         5.50353e+57
          2036.43870	         5.91689e+57
          2037.24500	         5.68713e+57
          2038.05130	         6.10932e+57
          2038.85760	         6.82076e+57
          2039.66390	         6.95615e+57
          2040.47020	         7.21174e+57
          2041.27650	         6.00422e+57
          2042.08280	         5.46660e+57
          2042.88910	         5.70535e+57
          2043.69540	         5.51199e+57
          2044.50170	         5.67816e+57
          2045.30800	         4.73957e+57
          2046.11430	         3.69689e+57
          2046.92060	         5.09706e+57
          2047.72690	         4.73426e+57
          2048.53320	         5.17925e+57
          2049.33950	         4.74007e+57
          2050.14580	         5.03014e+57
          2050.95210	         5.77395e+57
          2051.75840	         7.99870e+57
          2052.56470	         5.50637e+57
          2053.37100	         4.05634e+57
          2054.17730	         4.74195e+57
          2054.98360	         3.98743e+57
          2055.78990	         3.28141e+57
          2056.59620	         2.83685e+57
          2057.40250	         4.87614e+57
          2058.20880	         7.77191e+57
          2059.01510	         6.63119e+57
          2059.82140	         6.06151e+57
          2060.62770	         1.12274e+58
          2061.43400	         1.42112e+58
          2062.24030	         1.40567e+58
          2063.04660	         3.39501e+57
          2063.85290	        -2.05722e+57
          2064.65920	        -2.30505e+57
          2065.46550	        -7.34638e+57
          2066.27180	        -7.49512e+57
          2067.07810	         3.67759e+57
          2067.88440	         5.15555e+57
          2068.69070	         4.81272e+57
          2069.49700	         4.54857e+57
          2070.30330	         2.93793e+57
          2071.10960	         3.88094e+57
          2071.91590	         7.53624e+57
          2072.72220	         4.68140e+57
          2073.52850	         4.52463e+57
          2074.33480	         4.51726e+57
          2075.14110	         4.46178e+57
          2075.94740	         4.76480e+57
          2076.75370	         4.87261e+57
          2077.56000	         4.94276e+57
          2078.36630	         6.34339e+57
          2079.17260	         4.89476e+57
          2079.97890	         5.54923e+57
          2080.78520	         4.92704e+57
          2081.59150	         6.43627e+57
          2082.39780	         5.24029e+57
          2083.20410	         1.96233e+57
          2084.01040	         2.86661e+57
          2084.81670	         3.47092e+57
          2085.62300	         2.94603e+57
          2086.42930	         3.49905e+57
          2087.23560	         3.58825e+57
          2088.04190	         5.37022e+57
          2088.84820	         3.78675e+57
          2089.65450	         1.14707e+57
          2090.46080	         1.48510e+57
          2091.26710	         3.12213e+57
          2092.07340	         3.09326e+57
          2092.87970	         2.65044e+57
          2093.68600	        -5.76637e+55
          2094.49230	         9.39226e+56
          2095.29860	         5.21933e+57
          2096.10490	         7.93368e+56
          2096.91120	         1.11546e+57
          2097.71750	         1.64805e+57
          2098.52380	         2.82665e+57
          2099.33010	         1.45778e+57
          2100.13640	         1.19408e+57
          2100.94270	         1.73041e+57
          2101.74900	         2.80707e+57
          2102.55530	         4.05780e+57
          2103.36160	         4.21371e+57
          2104.16790	         4.05963e+57
          2104.97420	         1.20386e+57
          2105.78050	         4.69987e+56
          2106.58680	        -4.18902e+56
          2107.39310	        -2.10625e+57
          2108.19940	        -8.87321e+56
          2109.00570	        -6.18583e+56
          2109.81200	         2.23515e+57
          2110.61830	         8.79881e+56
          2111.42460	         2.59897e+57
          2112.23090	         1.86667e+57
          2113.03720	         1.23731e+57
          2113.84350	         7.55834e+55
          2114.64980	         3.90223e+56
          2115.45610	        -1.73908e+57
          2116.26240	        -2.67315e+57
          2117.06870	         1.32709e+57
          2117.87500	         3.06718e+57
          2118.68130	        -1.87368e+57
          2119.48760	         1.19010e+57
          2120.29390	         3.62446e+57
          2121.10020	        -1.60091e+57
          2121.90650	        -3.49549e+57
          2122.71280	         2.69056e+57
          2123.51910	         2.12338e+57
          2124.32540	        -4.32963e+56
          2125.13170	        -1.00435e+57
          2125.93800	         2.58755e+57
          2126.74430	        -3.19520e+55
          2127.55060	        -2.70415e+57
          2128.35690	         2.96586e+57
          2129.16320	        -4.43007e+57
          2129.96950	        -4.15334e+57
          2130.77580	        -3.16745e+57
          2131.58210	        -3.38713e+57
          2132.38840	        -3.54548e+57
          2133.19470	         2.16667e+56
          2134.00100	        -5.60018e+56
          2134.80730	        -5.76445e+57
          2135.61360	         2.40681e+57
          2136.41990	         2.69764e+57
          2137.22620	        -6.53025e+57
          2138.03250	         3.86563e+57
          2138.83880	        -2.56253e+57
          2139.64510	         1.71388e+57
          2140.45140	        -6.03813e+57
          2141.25770	        -1.14861e+58
          2142.06400	        -2.89130e+57
          2142.87030	         9.44566e+56
          2143.67660	         6.72548e+57
          2144.48290	        -7.39279e+56
          2145.28920	        -1.65473e+56
          2146.09550	        -2.74098e+56
          2146.90180	        -2.70247e+57
          2147.70810	        -4.25726e+57
          2148.51440	        -7.48825e+57
          2149.32070	        -1.08179e+58
          2150.12700	        -8.64850e+57
          2150.93330	        -1.16481e+57
          2151.73960	        -8.48728e+56
          2152.54590	         2.17168e+57
          2153.35220	        -3.10938e+57
          2154.15850	        -7.01829e+56
          2154.96480	         3.41500e+57
          2155.77110	         2.38958e+57
          2156.57740	        -6.77389e+57
          2157.38370	        -2.11185e+57
          2158.19000	        -7.87155e+57
          2158.99630	        -2.95794e+56
          2159.80260	        -1.49663e+58
          2160.60890	        -1.28099e+58
          2161.41520	         4.02784e+57
          2162.22150	        -9.58608e+57
          2163.02780	        -6.61895e+57
          2163.83410	        -3.15729e+57
          2164.64040	        -6.54715e+57
          2165.44670	        -5.48402e+57
          2166.25300	        -8.15753e+57
          2167.05930	         5.68464e+56
          2167.86560	        -9.64986e+57
          2168.67190	        -2.80542e+57
          2169.47820	         2.11964e+57
          2170.28450	         8.67709e+56
          2171.09080	        -3.30652e+57
          2171.89710	         1.82950e+57
          2172.70340	         8.02793e+57
          2173.50970	        -7.57272e+57
          2174.31600	        -4.67998e+57
          2175.12230	        -2.04636e+57
          2175.92860	        -2.47739e+57
          2176.73490	        -2.76828e+57
          2177.54120	        -5.83019e+57
          2178.34750	         8.06236e+56
          2179.15380	                 nan
          2179.96010	                 nan
          2180.76640	                 nan
          2181.57270	                 nan
          2182.37900	                 nan
          2183.18530	                 nan
          2183.99160	                 nan
          2184.79790	                 nan
          2185.60420	                 nan
          2186.41050	                 nan
          2187.21680	                 nan
          2188.02310	                 nan
          2188.82940	                 nan
          2189.63570	                 nan
          2190.44200	                 nan
          2191.24830	                 nan
          2192.05460	                 nan
          2192.86090	                 nan
          2193.66720	                 nan
          2194.47350	                 nan
          2195.27980	                 nan
          2196.08610	                 nan
          2196.89240	                 nan
          2197.69870	                 nan
          2198.50500	                 nan
          2199.31130	                 nan
          2200.11760	                 nan
          2200.92390	                 nan
          2201.73020	                 nan
          2202.53650	                 nan
          2203.34280	                 nan
          2204.14910	                 nan
          2204.95540	                 nan
          2205.76170	                 nan
          2206.56800	                 nan
          2207.37430	                 nan
          2208.18060	                 nan
          2208.98690	                 nan
          2209.79320	                 nan
          2210.59950	                 nan
          2211.40580	                 nan
          2212.21210	                 nan
          2213.01840	                 nan
          2213.82470	                 nan
          2214.63100	                 nan
          2215.43730	         0.00000e+00
