#sample_40_stacked_spectrum_rest_UV-bands_median_H-alpha_noDC.txt
#median Lum: 1.69389e+42
#Rest-frame wavelength (A) | Luminosity (erg/s/A)
#
          1110.00000	         0.00000e+00
          1110.80630	        -1.89963e+58
          1111.61260	         3.00255e+58
          1112.41890	         1.73081e+59
          1113.22520	         1.01915e+59
          1114.03150	        -2.64502e+59
          1114.83780	         2.21732e+59
          1115.64410	         2.05632e+59
          1116.45040	         1.79556e+59
          1117.25670	         3.54253e+58
          1118.06300	         4.27848e+58
          1118.86930	        -4.33140e+58
          1119.67560	         4.38015e+57
          1120.48190	        -7.24339e+58
          1121.28820	        -1.07741e+59
          1122.09450	        -2.75163e+58
          1122.90080	        -3.04446e+58
          1123.70710	         4.66376e+58
          1124.51340	         1.08979e+59
          1125.31970	        -1.10039e+58
          1126.12600	        -3.93897e+58
          1126.93230	        -3.33248e+58
          1127.73860	        -1.05711e+59
          1128.54490	        -3.78968e+58
          1129.35120	         1.07340e+58
          1130.15750	        -1.34438e+58
          1130.96380	        -3.55573e+58
          1131.77010	         7.84413e+58
          1132.57640	         8.30947e+58
          1133.38270	         2.95930e+58
          1134.18900	         2.89612e+58
          1134.99530	         2.99073e+58
          1135.80160	         3.14745e+58
          1136.60790	        -1.75221e+57
          1137.41420	        -2.15910e+58
          1138.22050	         4.78887e+58
          1139.02680	         2.97045e+58
          1139.83310	         5.96017e+57
          1140.63940	         1.57672e+58
          1141.44570	        -6.51761e+57
          1142.25200	        -1.12228e+57
          1143.05830	         2.37757e+58
          1143.86460	         1.27960e+58
          1144.67090	         2.16842e+58
          1145.47720	         1.58887e+58
          1146.28350	         2.33684e+58
          1147.08980	         2.41205e+58
          1147.89610	         2.98455e+58
          1148.70240	         3.51088e+58
          1149.50870	         2.53802e+58
          1150.31500	         1.11949e+58
          1151.12130	         1.41570e+58
          1151.92760	         1.16492e+58
          1152.73390	         1.23593e+58
          1153.54020	         6.04743e+57
          1154.34650	         2.64124e+58
          1155.15280	         2.20785e+58
          1155.95910	         3.15288e+57
          1156.76540	        -6.11001e+57
          1157.57170	        -1.23302e+58
          1158.37800	        -6.09598e+57
          1159.18430	        -2.30466e+57
          1159.99060	         1.53305e+58
          1160.79690	         1.16566e+58
          1161.60320	         1.44323e+58
          1162.40950	         1.77360e+58
          1163.21580	         1.91111e+58
          1164.02210	         5.05212e+57
          1164.82840	         1.29968e+58
          1165.63470	         2.30391e+58
          1166.44100	         2.93280e+58
          1167.24730	         1.57240e+58
          1168.05360	         5.34865e+57
          1168.85990	         9.78238e+57
          1169.66620	         9.28789e+57
          1170.47250	         7.93366e+57
          1171.27880	         1.84644e+58
          1172.08510	         2.06560e+58
          1172.89140	         1.97391e+58
          1173.69770	         2.09119e+57
          1174.50400	         4.48066e+57
          1175.31030	         9.92396e+57
          1176.11660	         1.49670e+58
          1176.92290	         1.47255e+58
          1177.72920	         1.16751e+58
          1178.53550	         1.12759e+58
          1179.34180	         7.53313e+57
          1180.14810	         8.45758e+57
          1180.95440	         1.17091e+58
          1181.76070	         9.34554e+57
          1182.56700	         7.90988e+57
          1183.37330	         6.69151e+57
          1184.17960	         8.23516e+57
          1184.98590	         1.39405e+58
          1185.79220	         7.56349e+57
          1186.59850	         1.24262e+58
          1187.40480	         1.41135e+58
          1188.21110	         1.43342e+58
          1189.01740	         1.25385e+58
          1189.82370	         1.23466e+58
          1190.63000	         6.96547e+57
          1191.43630	         9.68453e+57
          1192.24260	         8.38914e+57
          1193.04890	         1.18532e+58
          1193.85520	         1.08509e+58
          1194.66150	         6.89958e+57
          1195.46780	         1.03128e+58
          1196.27410	         1.41488e+58
          1197.08040	         1.29739e+58
          1197.88670	         1.56272e+58
          1198.69300	         1.90899e+58
          1199.49930	         1.94116e+58
          1200.30560	         1.01490e+58
          1201.11190	         8.12950e+57
          1201.91820	         1.31479e+58
          1202.72450	         1.36838e+58
          1203.53080	         1.37807e+58
          1204.33710	         1.07912e+58
          1205.14340	         6.44962e+57
          1205.94970	         5.80871e+57
          1206.75600	         8.49762e+57
          1207.56230	         9.17417e+57
          1208.36860	         1.33497e+58
          1209.17490	         5.06859e+57
          1209.98120	         7.47281e+57
          1210.78750	         8.55454e+57
          1211.59380	         1.19914e+58
          1212.40010	         1.89256e+58
          1213.20640	         1.77069e+58
          1214.01270	         1.81646e+58
          1214.81900	         2.21285e+58
          1215.62530	         4.10379e+58
          1216.43160	         8.83364e+58
          1217.23790	         1.52843e+59
          1218.04420	         1.17538e+59
          1218.85050	         8.38924e+58
          1219.65680	         6.04708e+58
          1220.46310	         3.78842e+58
          1221.26940	         2.48942e+58
          1222.07570	         1.46979e+58
          1222.88200	         1.22971e+58
          1223.68830	         9.79849e+57
          1224.49460	         5.39961e+57
          1225.30090	         6.42049e+57
          1226.10720	         9.76696e+57
          1226.91350	         1.09253e+58
          1227.71980	         9.06408e+57
          1228.52610	         1.20618e+58
          1229.33240	         1.33056e+58
          1230.13870	         1.08237e+58
          1230.94500	         9.43427e+57
          1231.75130	         6.64166e+57
          1232.55760	         9.07367e+57
          1233.36390	         9.21665e+57
          1234.17020	         1.05671e+58
          1234.97650	         9.09490e+57
          1235.78280	         7.63470e+57
          1236.58910	         9.55939e+57
          1237.39540	         1.14593e+58
          1238.20170	         1.15167e+58
          1239.00800	         1.35607e+58
          1239.81430	         1.56032e+58
          1240.62060	         1.31030e+58
          1241.42690	         1.14917e+58
          1242.23320	         1.22873e+58
          1243.03950	         9.70615e+57
          1243.84580	         9.10763e+57
          1244.65210	         1.24149e+58
          1245.45840	         1.16527e+58
          1246.26470	         1.19471e+58
          1247.07100	         8.82502e+57
          1247.87730	         6.15856e+57
          1248.68360	         5.95991e+57
          1249.48990	         7.33881e+57
          1250.29620	         1.04252e+58
          1251.10250	         1.00537e+58
          1251.90880	         6.09693e+57
          1252.71510	         5.92478e+57
          1253.52140	         8.17021e+57
          1254.32770	         1.14540e+58
          1255.13400	         1.55202e+58
          1255.94030	         1.30469e+58
          1256.74660	         1.03814e+58
          1257.55290	         1.13087e+58
          1258.35920	         9.92037e+57
          1259.16550	         7.59976e+57
          1259.97180	         7.32794e+57
          1260.77810	         1.08943e+58
          1261.58440	         1.22034e+58
          1262.39070	         9.68624e+57
          1263.19700	         9.70556e+57
          1264.00330	         1.00106e+58
          1264.80960	         1.11614e+58
          1265.61590	         1.44642e+58
          1266.42220	         1.30332e+58
          1267.22850	         9.44065e+57
          1268.03480	         1.42955e+58
          1268.84110	         1.49257e+58
          1269.64740	         1.14221e+58
          1270.45370	         1.36224e+58
          1271.26000	         1.32169e+58
          1272.06630	         1.46052e+58
          1272.87260	         1.13769e+58
          1273.67890	         1.07662e+58
          1274.48520	         1.21978e+58
          1275.29150	         1.23597e+58
          1276.09780	         1.31985e+58
          1276.90410	         1.54784e+58
          1277.71040	         1.24609e+58
          1278.51670	         1.07469e+58
          1279.32300	         1.49934e+58
          1280.12930	         1.39502e+58
          1280.93560	         1.28147e+58
          1281.74190	         1.04732e+58
          1282.54820	         1.05872e+58
          1283.35450	         1.21663e+58
          1284.16080	         1.17196e+58
          1284.96710	         1.19407e+58
          1285.77340	         1.10842e+58
          1286.57970	         1.07893e+58
          1287.38600	         1.66477e+58
          1288.19230	         2.05688e+58
          1288.99860	         1.61488e+58
          1289.80490	         1.02447e+58
          1290.61120	         1.26500e+58
          1291.41750	         1.40418e+58
          1292.22380	         1.21991e+58
          1293.03010	         1.20626e+58
          1293.83640	         1.29204e+58
          1294.64270	         1.17801e+58
          1295.44900	         6.76547e+57
          1296.25530	         7.58659e+57
          1297.06160	         1.03574e+58
          1297.86790	         8.81820e+57
          1298.67420	         8.23536e+57
          1299.48050	         1.00988e+58
          1300.28680	         1.04803e+58
          1301.09310	         8.63613e+57
          1301.89940	         5.32110e+57
          1302.70570	         7.14528e+57
          1303.51200	         8.50749e+57
          1304.31830	         9.30510e+57
          1305.12460	         1.03271e+58
          1305.93090	         1.17827e+58
          1306.73720	         1.30259e+58
          1307.54350	         1.51545e+58
          1308.34980	         1.60131e+58
          1309.15610	         1.53660e+58
          1309.96240	         1.63506e+58
          1310.76870	         1.54340e+58
          1311.57500	         1.13425e+58
          1312.38130	         9.11220e+57
          1313.18760	         1.24606e+58
          1313.99390	         1.50530e+58
          1314.80020	         1.52830e+58
          1315.60650	         1.33860e+58
          1316.41280	         1.25179e+58
          1317.21910	         1.20295e+58
          1318.02540	         1.32933e+58
          1318.83170	         1.39702e+58
          1319.63800	         1.25964e+58
          1320.44430	         1.15052e+58
          1321.25060	         1.10011e+58
          1322.05690	         1.10146e+58
          1322.86320	         1.18515e+58
          1323.66950	         1.08706e+58
          1324.47580	         8.73365e+57
          1325.28210	         9.73266e+57
          1326.08840	         1.11568e+58
          1326.89470	         1.25253e+58
          1327.70100	         1.08932e+58
          1328.50730	         9.14942e+57
          1329.31360	         9.81788e+57
          1330.11990	         1.03975e+58
          1330.92620	         9.00484e+57
          1331.73250	         1.05109e+58
          1332.53880	         9.95080e+57
          1333.34510	         8.54908e+57
          1334.15140	         8.50634e+57
          1334.95770	         9.10594e+57
          1335.76400	         1.09498e+58
          1336.57030	         1.14726e+58
          1337.37660	         1.05629e+58
          1338.18290	         9.42737e+57
          1338.98920	         1.07528e+58
          1339.79550	         1.27107e+58
          1340.60180	         1.29364e+58
          1341.40810	         1.33275e+58
          1342.21440	         1.11003e+58
          1343.02070	         1.22893e+58
          1343.82700	         1.28681e+58
          1344.63330	         1.29600e+58
          1345.43960	         1.40736e+58
          1346.24590	         1.07669e+58
          1347.05220	         1.08990e+58
          1347.85850	         1.08596e+58
          1348.66480	         1.28538e+58
          1349.47110	         1.35073e+58
          1350.27740	         1.14175e+58
          1351.08370	         1.20607e+58
          1351.89000	         1.20607e+58
          1352.69630	         1.19216e+58
          1353.50260	         1.19195e+58
          1354.30890	         1.20252e+58
          1355.11520	         1.19110e+58
          1355.92150	         1.22388e+58
          1356.72780	         1.21422e+58
          1357.53410	         1.20544e+58
          1358.34040	         1.13859e+58
          1359.14670	         1.06938e+58
          1359.95300	         1.36026e+58
          1360.75930	         1.34780e+58
          1361.56560	         1.07058e+58
          1362.37190	         1.22939e+58
          1363.17820	         1.25909e+58
          1363.98450	         1.21992e+58
          1364.79080	         1.30886e+58
          1365.59710	         1.31282e+58
          1366.40340	         1.29807e+58
          1367.20970	         1.08457e+58
          1368.01600	         8.85888e+57
          1368.82230	         8.98862e+57
          1369.62860	         1.09568e+58
          1370.43490	         9.70548e+57
          1371.24120	         8.55562e+57
          1372.04750	         8.25003e+57
          1372.85380	         1.04756e+58
          1373.66010	         1.13145e+58
          1374.46640	         1.10923e+58
          1375.27270	         1.14514e+58
          1376.07900	         1.10965e+58
          1376.88530	         8.88836e+57
          1377.69160	         8.66077e+57
          1378.49790	         7.80233e+57
          1379.30420	         7.44081e+57
          1380.11050	         9.41683e+57
          1380.91680	         9.48921e+57
          1381.72310	         9.25302e+57
          1382.52940	         9.43257e+57
          1383.33570	         9.50349e+57
          1384.14200	         1.19994e+58
          1384.94830	         1.14611e+58
          1385.75460	         1.11035e+58
          1386.56090	         1.22195e+58
          1387.36720	         1.18310e+58
          1388.17350	         1.41163e+58
          1388.97980	         1.16473e+58
          1389.78610	         7.64935e+57
          1390.59240	         9.46946e+57
          1391.39870	         9.22587e+57
          1392.20500	         8.60787e+57
          1393.01130	         7.81927e+57
          1393.81760	         7.78208e+57
          1394.62390	         8.29165e+57
          1395.43020	         7.10782e+57
          1396.23650	         7.23125e+57
          1397.04280	         7.86961e+57
          1397.84910	         9.06426e+57
          1398.65540	         9.37794e+57
          1399.46170	         1.04871e+58
          1400.26800	         8.17351e+57
          1401.07430	         6.45028e+57
          1401.88060	         7.63631e+57
          1402.68690	         8.33633e+57
          1403.49320	         9.59761e+57
          1404.29950	         8.21743e+57
          1405.10580	         9.95585e+57
          1405.91210	         1.06409e+58
          1406.71840	         9.77617e+57
          1407.52470	         1.04824e+58
          1408.33100	         1.08626e+58
          1409.13730	         1.24587e+58
          1409.94360	         1.25694e+58
          1410.74990	         1.17319e+58
          1411.55620	         1.01974e+58
          1412.36250	         9.64645e+57
          1413.16880	         1.04553e+58
          1413.97510	         9.22215e+57
          1414.78140	         9.03392e+57
          1415.58770	         1.05254e+58
          1416.39400	         9.83448e+57
          1417.20030	         9.92647e+57
          1418.00660	         8.04964e+57
          1418.81290	         1.07887e+58
          1419.61920	         1.05111e+58
          1420.42550	         1.10945e+58
          1421.23180	         1.48041e+58
          1422.03810	         1.33477e+58
          1422.84440	         1.23430e+58
          1423.65070	         1.33685e+58
          1424.45700	         1.10711e+58
          1425.26330	         8.86508e+57
          1426.06960	         8.91539e+57
          1426.87590	         1.01165e+58
          1427.68220	         1.08344e+58
          1428.48850	         1.16102e+58
          1429.29480	         1.04349e+58
          1430.10110	         9.48993e+57
          1430.90740	         9.81955e+57
          1431.71370	         9.76482e+57
          1432.52000	         9.44992e+57
          1433.32630	         8.61690e+57
          1434.13260	         8.31753e+57
          1434.93890	         8.55045e+57
          1435.74520	         1.00332e+58
          1436.55150	         9.36922e+57
          1437.35780	         8.36492e+57
          1438.16410	         9.05129e+57
          1438.97040	         9.78419e+57
          1439.77670	         9.63604e+57
          1440.58300	         9.61307e+57
          1441.38930	         1.07129e+58
          1442.19560	         1.07926e+58
          1443.00190	         9.47120e+57
          1443.80820	         1.01906e+58
          1444.61450	         9.55316e+57
          1445.42080	         8.56223e+57
          1446.22710	         1.12553e+58
          1447.03340	         1.07918e+58
          1447.83970	         1.08428e+58
          1448.64600	         1.16981e+58
          1449.45230	         1.03094e+58
          1450.25860	         9.71987e+57
          1451.06490	         9.23874e+57
          1451.87120	         8.06388e+57
          1452.67750	         8.30247e+57
          1453.48380	         8.91628e+57
          1454.29010	         8.46700e+57
          1455.09640	         8.17736e+57
          1455.90270	         9.86430e+57
          1456.70900	         9.73901e+57
          1457.51530	         9.50551e+57
          1458.32160	         1.23310e+58
          1459.12790	         1.26995e+58
          1459.93420	         1.12063e+58
          1460.74050	         8.50721e+57
          1461.54680	         8.07983e+57
          1462.35310	         8.24172e+57
          1463.15940	         8.73390e+57
          1463.96570	         1.16202e+58
          1464.77200	         1.21651e+58
          1465.57830	         1.09531e+58
          1466.38460	         9.60797e+57
          1467.19090	         8.65679e+57
          1467.99720	         9.71437e+57
          1468.80350	         1.01496e+58
          1469.60980	         9.14179e+57
          1470.41610	         1.02342e+58
          1471.22240	         9.89395e+57
          1472.02870	         1.04347e+58
          1472.83500	         1.08163e+58
          1473.64130	         1.00644e+58
          1474.44760	         9.27477e+57
          1475.25390	         9.20387e+57
          1476.06020	         9.54471e+57
          1476.86650	         9.19799e+57
          1477.67280	         7.21490e+57
          1478.47910	         6.36211e+57
          1479.28540	         7.53046e+57
          1480.09170	         9.72691e+57
          1480.89800	         9.20485e+57
          1481.70430	         8.70908e+57
          1482.51060	         8.17704e+57
          1483.31690	         8.20065e+57
          1484.12320	         7.75683e+57
          1484.92950	         8.68284e+57
          1485.73580	         8.46856e+57
          1486.54210	         8.37612e+57
          1487.34840	         9.02735e+57
          1488.15470	         8.90542e+57
          1488.96100	         8.57518e+57
          1489.76730	         8.80144e+57
          1490.57360	         8.53807e+57
          1491.37990	         7.92297e+57
          1492.18620	         8.25288e+57
          1492.99250	         8.52509e+57
          1493.79880	         8.25779e+57
          1494.60510	         8.74887e+57
          1495.41140	         8.10418e+57
          1496.21770	         8.70579e+57
          1497.02400	         1.09883e+58
          1497.83030	         9.06618e+57
          1498.63660	         7.16665e+57
          1499.44290	         6.59107e+57
          1500.24920	         7.68379e+57
          1501.05550	         8.02483e+57
          1501.86180	         8.24383e+57
          1502.66810	         9.82751e+57
          1503.47440	         9.54903e+57
          1504.28070	         9.00740e+57
          1505.08700	         9.92750e+57
          1505.89330	         1.00199e+58
          1506.69960	         8.54809e+57
          1507.50590	         8.78976e+57
          1508.31220	         8.25076e+57
          1509.11850	         8.82564e+57
          1509.92480	         9.86551e+57
          1510.73110	         9.35120e+57
          1511.53740	         8.64005e+57
          1512.34370	         7.38460e+57
          1513.15000	         8.76164e+57
          1513.95630	         1.04731e+58
          1514.76260	         9.62856e+57
          1515.56890	         8.89203e+57
          1516.37520	         8.53832e+57
          1517.18150	         7.89978e+57
          1517.98780	         7.17195e+57
          1518.79410	         7.17984e+57
          1519.60040	         9.25236e+57
          1520.40670	         1.11739e+58
          1521.21300	         1.03420e+58
          1522.01930	         8.42122e+57
          1522.82560	         8.79896e+57
          1523.63190	         9.68593e+57
          1524.43820	         8.51277e+57
          1525.24450	         7.15783e+57
          1526.05080	         6.52105e+57
          1526.85710	         6.93225e+57
          1527.66340	         6.87005e+57
          1528.46970	         8.77952e+57
          1529.27600	         8.73858e+57
          1530.08230	         7.97674e+57
          1530.88860	         8.03501e+57
          1531.69490	         8.22237e+57
          1532.50120	         9.18728e+57
          1533.30750	         1.01700e+58
          1534.11380	         1.03454e+58
          1534.92010	         9.84748e+57
          1535.72640	         9.68035e+57
          1536.53270	         1.04767e+58
          1537.33900	         1.01217e+58
          1538.14530	         8.62709e+57
          1538.95160	         9.89299e+57
          1539.75790	         9.61966e+57
          1540.56420	         9.12881e+57
          1541.37050	         8.29144e+57
          1542.17680	         6.96261e+57
          1542.98310	         7.00598e+57
          1543.78940	         7.71404e+57
          1544.59570	         8.37432e+57
          1545.40200	         8.46514e+57
          1546.20830	         9.58479e+57
          1547.01460	         1.08563e+58
          1547.82090	         1.08110e+58
          1548.62720	         1.07727e+58
          1549.43350	         1.11574e+58
          1550.23980	         1.11121e+58
          1551.04610	         1.17106e+58
          1551.85240	         1.28210e+58
          1552.65870	         1.23491e+58
          1553.46500	         1.06574e+58
          1554.27130	         1.06725e+58
          1555.07760	         1.05840e+58
          1555.88390	         9.99038e+57
          1556.69020	         1.03974e+58
          1557.49650	         9.72333e+57
          1558.30280	         8.33906e+57
          1559.10910	         8.30087e+57
          1559.91540	         9.19748e+57
          1560.72170	         9.78014e+57
          1561.52800	         8.58965e+57
          1562.33430	         8.65447e+57
          1563.14060	         8.71055e+57
          1563.94690	         8.49074e+57
          1564.75320	         8.30908e+57
          1565.55950	         7.20420e+57
          1566.36580	         7.88689e+57
          1567.17210	         9.75915e+57
          1567.97840	         9.87690e+57
          1568.78470	         9.90632e+57
          1569.59100	         1.13967e+58
          1570.39730	         9.43043e+57
          1571.20360	         7.32208e+57
          1572.00990	         7.11026e+57
          1572.81620	         8.78880e+57
          1573.62250	         1.05646e+58
          1574.42880	         1.01005e+58
          1575.23510	         8.70386e+57
          1576.04140	         8.31719e+57
          1576.84770	         8.76843e+57
          1577.65400	         8.31779e+57
          1578.46030	         9.09778e+57
          1579.26660	         1.03486e+58
          1580.07290	         9.07639e+57
          1580.87920	         7.46466e+57
          1581.68550	         7.81732e+57
          1582.49180	         8.39192e+57
          1583.29810	         8.40095e+57
          1584.10440	         9.55590e+57
          1584.91070	         9.47941e+57
          1585.71700	         8.29168e+57
          1586.52330	         8.91754e+57
          1587.32960	         9.11493e+57
          1588.13590	         9.21907e+57
          1588.94220	         8.75121e+57
          1589.74850	         8.95821e+57
          1590.55480	         9.69445e+57
          1591.36110	         8.49850e+57
          1592.16740	         8.99059e+57
          1592.97370	         8.59461e+57
          1593.78000	         8.61164e+57
          1594.58630	         9.41307e+57
          1595.39260	         8.84239e+57
          1596.19890	         9.09241e+57
          1597.00520	         9.83645e+57
          1597.81150	         9.30819e+57
          1598.61780	         6.67755e+57
          1599.42410	         6.07615e+57
          1600.23040	         6.63385e+57
          1601.03670	         7.70748e+57
          1601.84300	         7.97208e+57
          1602.64930	         8.86303e+57
          1603.45560	         1.01041e+58
          1604.26190	         8.89435e+57
          1605.06820	         8.35351e+57
          1605.87450	         7.27031e+57
          1606.68080	         6.83833e+57
          1607.48710	         6.78156e+57
          1608.29340	         6.13532e+57
          1609.09970	         6.92983e+57
          1609.90600	         7.59091e+57
          1610.71230	         7.56560e+57
          1611.51860	         7.01860e+57
          1612.32490	         6.91212e+57
          1613.13120	         7.96138e+57
          1613.93750	         8.68779e+57
          1614.74380	         9.60736e+57
          1615.55010	         9.41097e+57
          1616.35640	         8.97777e+57
          1617.16270	         1.05328e+58
          1617.96900	         1.06473e+58
          1618.77530	         9.73850e+57
          1619.58160	         8.78390e+57
          1620.38790	         8.64266e+57
          1621.19420	         9.23215e+57
          1622.00050	         8.72455e+57
          1622.80680	         8.85462e+57
          1623.61310	         8.65365e+57
          1624.41940	         8.52236e+57
          1625.22570	         9.12161e+57
          1626.03200	         9.59705e+57
          1626.83830	         8.76801e+57
          1627.64460	         8.03670e+57
          1628.45090	         8.44877e+57
          1629.25720	         9.92282e+57
          1630.06350	         8.82579e+57
          1630.86980	         5.71032e+57
          1631.67610	         8.24097e+57
          1632.48240	         9.11666e+57
          1633.28870	         8.66616e+57
          1634.09500	         9.56542e+57
          1634.90130	         1.11043e+58
          1635.70760	         1.01450e+58
          1636.51390	         9.34268e+57
          1637.32020	         7.62215e+57
          1638.12650	         1.02638e+58
          1638.93280	         1.08989e+58
          1639.73910	         1.04714e+58
          1640.54540	         1.06127e+58
          1641.35170	         9.26681e+57
          1642.15800	         9.42810e+57
          1642.96430	         1.02268e+58
          1643.77060	         9.30268e+57
          1644.57690	         8.19535e+57
          1645.38320	         8.68950e+57
          1646.18950	         8.69626e+57
          1646.99580	         9.97972e+57
          1647.80210	         8.80383e+57
          1648.60840	         8.13741e+57
          1649.41470	         9.14957e+57
          1650.22100	         8.57951e+57
          1651.02730	         7.93356e+57
          1651.83360	         7.78113e+57
          1652.63990	         8.16972e+57
          1653.44620	         9.85913e+57
          1654.25250	         9.15161e+57
          1655.05880	         7.99399e+57
          1655.86510	         8.21079e+57
          1656.67140	         9.32936e+57
          1657.47770	         8.39604e+57
          1658.28400	         7.67958e+57
          1659.09030	         8.21232e+57
          1659.89660	         8.87836e+57
          1660.70290	         1.03460e+58
          1661.50920	         1.03087e+58
          1662.31550	         9.50980e+57
          1663.12180	         8.52591e+57
          1663.92810	         9.68940e+57
          1664.73440	         1.14582e+58
          1665.54070	         1.23774e+58
          1666.34700	         1.21684e+58
          1667.15330	         1.20967e+58
          1667.95960	         9.05555e+57
          1668.76590	         7.46068e+57
          1669.57220	         7.73946e+57
          1670.37850	         8.91799e+57
          1671.18480	         9.35727e+57
          1671.99110	         8.25933e+57
          1672.79740	         6.83958e+57
          1673.60370	         6.83613e+57
          1674.41000	         7.81295e+57
          1675.21630	         7.57414e+57
          1676.02260	         6.83188e+57
          1676.82890	         6.65831e+57
          1677.63520	         7.14632e+57
          1678.44150	         6.52667e+57
          1679.24780	         8.64663e+57
          1680.05410	         8.86192e+57
          1680.86040	         6.63119e+57
          1681.66670	         6.93106e+57
          1682.47300	         8.06576e+57
          1683.27930	         8.86691e+57
          1684.08560	         8.98128e+57
          1684.89190	         6.83014e+57
          1685.69820	         5.10060e+57
          1686.50450	         5.22965e+57
          1687.31080	         6.82186e+57
          1688.11710	         7.37365e+57
          1688.92340	         6.41560e+57
          1689.72970	         6.76020e+57
          1690.53600	         6.76117e+57
          1691.34230	         7.75097e+57
          1692.14860	         8.58574e+57
          1692.95490	         7.68125e+57
          1693.76120	         7.37969e+57
          1694.56750	         7.15185e+57
          1695.37380	         9.45302e+57
          1696.18010	         9.19791e+57
          1696.98640	         8.61276e+57
          1697.79270	         8.17818e+57
          1698.59900	         8.40725e+57
          1699.40530	         7.84056e+57
          1700.21160	         6.90380e+57
          1701.01790	         8.53124e+57
          1701.82420	         8.46230e+57
          1702.63050	         9.07317e+57
          1703.43680	         9.45877e+57
          1704.24310	         9.15972e+57
          1705.04940	         8.75188e+57
          1705.85570	         8.32622e+57
          1706.66200	         9.11813e+57
          1707.46830	         8.94924e+57
          1708.27460	         8.79169e+57
          1709.08090	         6.93032e+57
          1709.88720	         5.95302e+57
          1710.69350	         5.39111e+57
          1711.49980	         4.96228e+57
          1712.30610	         6.85090e+57
          1713.11240	         9.13023e+57
          1713.91870	         8.16254e+57
          1714.72500	         7.81811e+57
          1715.53130	         8.73081e+57
          1716.33760	         7.45746e+57
          1717.14390	         7.33420e+57
          1717.95020	         8.66385e+57
          1718.75650	         9.66414e+57
          1719.56280	         9.32229e+57
          1720.36910	         6.96875e+57
          1721.17540	         8.13113e+57
          1721.98170	         8.07180e+57
          1722.78800	         7.03113e+57
          1723.59430	         6.57399e+57
          1724.40060	         7.35549e+57
          1725.20690	         7.74048e+57
          1726.01320	         7.56586e+57
          1726.81950	         8.28558e+57
          1727.62580	         8.34720e+57
          1728.43210	         6.86989e+57
          1729.23840	         8.10957e+57
          1730.04470	         9.24579e+57
          1730.85100	         8.37775e+57
          1731.65730	         7.94188e+57
          1732.46360	         7.19664e+57
          1733.26990	         7.75066e+57
          1734.07620	         7.60922e+57
          1734.88250	         7.61602e+57
          1735.68880	         7.98757e+57
          1736.49510	         8.32179e+57
          1737.30140	         8.37248e+57
          1738.10770	         6.68993e+57
          1738.91400	         7.81177e+57
          1739.72030	         8.22578e+57
          1740.52660	         5.73046e+57
          1741.33290	         6.49428e+57
          1742.13920	         7.17659e+57
          1742.94550	         7.72637e+57
          1743.75180	         7.06228e+57
          1744.55810	         7.12637e+57
          1745.36440	         7.17375e+57
          1746.17070	         5.73769e+57
          1746.97700	         5.04861e+57
          1747.78330	         7.54620e+57
          1748.58960	         7.25836e+57
          1749.39590	         6.94019e+57
          1750.20220	         7.50691e+57
          1751.00850	         6.77877e+57
          1751.81480	         6.27270e+57
          1752.62110	         7.03104e+57
          1753.42740	         8.46388e+57
          1754.23370	         7.44055e+57
          1755.04000	         7.17534e+57
          1755.84630	         8.16762e+57
          1756.65260	         9.02348e+57
          1757.45890	         8.58082e+57
          1758.26520	         7.31987e+57
          1759.07150	         8.90045e+57
          1759.87780	         8.78511e+57
          1760.68410	         9.68983e+57
          1761.49040	         8.71118e+57
          1762.29670	         6.68879e+57
          1763.10300	         6.99838e+57
          1763.90930	         7.72503e+57
          1764.71560	         8.53201e+57
          1765.52190	         8.04284e+57
          1766.32820	         7.85365e+57
          1767.13450	         7.98191e+57
          1767.94080	         7.69553e+57
          1768.74710	         6.42910e+57
          1769.55340	         7.26510e+57
          1770.35970	         7.43790e+57
          1771.16600	         8.39162e+57
          1771.97230	         8.47386e+57
          1772.77860	         8.66373e+57
          1773.58490	         6.66421e+57
          1774.39120	         5.79519e+57
          1775.19750	         6.82240e+57
          1776.00380	         7.37653e+57
          1776.81010	         7.46197e+57
          1777.61640	         7.36209e+57
          1778.42270	         7.23482e+57
          1779.22900	         6.93281e+57
          1780.03530	         6.53587e+57
          1780.84160	         7.94598e+57
          1781.64790	         9.40578e+57
          1782.45420	         7.55732e+57
          1783.26050	         6.01363e+57
          1784.06680	         7.69531e+57
          1784.87310	         7.57980e+57
          1785.67940	         7.23362e+57
          1786.48570	         6.60195e+57
          1787.29200	         5.57198e+57
          1788.09830	         6.82301e+57
          1788.90460	         6.14356e+57
          1789.71090	         5.28783e+57
          1790.51720	         5.66245e+57
          1791.32350	         6.97884e+57
          1792.12980	         9.11342e+57
          1792.93610	         8.29925e+57
          1793.74240	         7.04152e+57
          1794.54870	         7.78892e+57
          1795.35500	         8.15313e+57
          1796.16130	         8.08125e+57
          1796.96760	         7.51549e+57
          1797.77390	         7.96112e+57
          1798.58020	         7.81180e+57
          1799.38650	         6.97132e+57
          1800.19280	         7.33271e+57
          1800.99910	         7.92997e+57
          1801.80540	         7.78535e+57
          1802.61170	         8.57490e+57
          1803.41800	         7.44288e+57
          1804.22430	         8.08529e+57
          1805.03060	         8.40104e+57
          1805.83690	         9.58419e+57
          1806.64320	         8.96655e+57
          1807.44950	         8.31298e+57
          1808.25580	         9.07472e+57
          1809.06210	         8.81017e+57
          1809.86840	         8.32023e+57
          1810.67470	         8.47192e+57
          1811.48100	         9.60234e+57
          1812.28730	         9.44148e+57
          1813.09360	         7.19785e+57
          1813.89990	         7.33387e+57
          1814.70620	         7.92645e+57
          1815.51250	         8.15417e+57
          1816.31880	         8.08537e+57
          1817.12510	         8.23389e+57
          1817.93140	         7.23888e+57
          1818.73770	         7.17033e+57
          1819.54400	         8.38993e+57
          1820.35030	         8.66738e+57
          1821.15660	         7.48795e+57
          1821.96290	         6.98962e+57
          1822.76920	         7.72020e+57
          1823.57550	         8.19676e+57
          1824.38180	         8.55698e+57
          1825.18810	         8.11431e+57
          1825.99440	         8.58683e+57
          1826.80070	         7.68230e+57
          1827.60700	         6.69396e+57
          1828.41330	         6.22891e+57
          1829.21960	         5.84165e+57
          1830.02590	         6.66764e+57
          1830.83220	         8.51887e+57
          1831.63850	         8.52744e+57
          1832.44480	         7.81686e+57
          1833.25110	         8.48672e+57
          1834.05740	         8.70476e+57
          1834.86370	         7.30752e+57
          1835.67000	         5.07597e+57
          1836.47630	         6.49187e+57
          1837.28260	         8.28963e+57
          1838.08890	         9.00501e+57
          1838.89520	         9.21909e+57
          1839.70150	         8.48153e+57
          1840.50780	         8.22182e+57
          1841.31410	         7.43735e+57
          1842.12040	         5.89948e+57
          1842.92670	         6.22974e+57
          1843.73300	         7.28175e+57
          1844.53930	         6.18594e+57
          1845.34560	         6.85426e+57
          1846.15190	         7.50313e+57
          1846.95820	         7.82337e+57
          1847.76450	         7.79133e+57
          1848.57080	         7.49440e+57
          1849.37710	         7.40421e+57
          1850.18340	         7.65429e+57
          1850.98970	         7.41723e+57
          1851.79600	         8.41462e+57
          1852.60230	         7.77665e+57
          1853.40860	         7.44767e+57
          1854.21490	         7.25769e+57
          1855.02120	         5.98786e+57
          1855.82750	         5.52864e+57
          1856.63380	         6.55264e+57
          1857.44010	         7.53171e+57
          1858.24640	         7.34842e+57
          1859.05270	         7.31675e+57
          1859.85900	         6.24665e+57
          1860.66530	         6.21414e+57
          1861.47160	         6.21768e+57
          1862.27790	         7.06373e+57
          1863.08420	         7.82992e+57
          1863.89050	         8.22455e+57
          1864.69680	         6.74581e+57
          1865.50310	         7.31907e+57
          1866.30940	         6.64948e+57
          1867.11570	         6.67745e+57
          1867.92200	         7.65440e+57
          1868.72830	         7.34883e+57
          1869.53460	         6.72628e+57
          1870.34090	         8.33774e+57
          1871.14720	         8.93755e+57
          1871.95350	         8.70041e+57
          1872.75980	         8.06794e+57
          1873.56610	         6.82421e+57
          1874.37240	         5.94770e+57
          1875.17870	         5.41491e+57
          1875.98500	         7.32270e+57
          1876.79130	         8.03866e+57
          1877.59760	         6.88612e+57
          1878.40390	         7.28194e+57
          1879.21020	         6.96266e+57
          1880.01650	         7.68109e+57
          1880.82280	         8.33543e+57
          1881.62910	         9.14776e+57
          1882.43540	         9.93371e+57
          1883.24170	         8.52846e+57
          1884.04800	         6.84868e+57
          1884.85430	         7.65554e+57
          1885.66060	         8.72800e+57
          1886.46690	         8.04997e+57
          1887.27320	         7.79994e+57
          1888.07950	         6.31362e+57
          1888.88580	         7.29787e+57
          1889.69210	         8.27231e+57
          1890.49840	         8.09471e+57
          1891.30470	         7.33378e+57
          1892.11100	         8.20959e+57
          1892.91730	         8.42815e+57
          1893.72360	         8.13654e+57
          1894.52990	         6.85549e+57
          1895.33620	         8.11155e+57
          1896.14250	         7.45714e+57
          1896.94880	         5.86776e+57
          1897.75510	         4.98443e+57
          1898.56140	         5.85298e+57
          1899.36770	         8.07308e+57
          1900.17400	         7.16754e+57
          1900.98030	         6.76290e+57
          1901.78660	         7.21694e+57
          1902.59290	         7.39922e+57
          1903.39920	         9.41916e+57
          1904.20550	         9.72336e+57
          1905.01180	         9.30590e+57
          1905.81810	         1.01609e+58
          1906.62440	         1.27452e+58
          1907.43070	         1.50339e+58
          1908.23700	         1.66953e+58
          1909.04330	         1.43495e+58
          1909.84960	         1.14859e+58
          1910.65590	         9.70993e+57
          1911.46220	         1.00807e+58
          1912.26850	         8.48974e+57
          1913.07480	         6.42110e+57
          1913.88110	         5.83242e+57
          1914.68740	         6.04557e+57
          1915.49370	         5.65615e+57
          1916.30000	         6.26297e+57
          1917.10630	         6.93739e+57
          1917.91260	         6.03736e+57
          1918.71890	         5.61804e+57
          1919.52520	         5.57017e+57
          1920.33150	         6.29173e+57
          1921.13780	         7.63927e+57
          1921.94410	         7.58505e+57
          1922.75040	         8.01053e+57
          1923.55670	         8.63483e+57
          1924.36300	         7.58385e+57
          1925.16930	         5.92144e+57
          1925.97560	         5.41351e+57
          1926.78190	         5.92640e+57
          1927.58820	         6.63555e+57
          1928.39450	         6.99126e+57
          1929.20080	         4.94676e+57
          1930.00710	         5.93998e+57
          1930.81340	         8.33707e+57
          1931.61970	         7.50745e+57
          1932.42600	         8.05512e+57
          1933.23230	         8.03292e+57
          1934.03860	         7.57192e+57
          1934.84490	         6.76493e+57
          1935.65120	         7.96527e+57
          1936.45750	         8.15008e+57
          1937.26380	         7.07688e+57
          1938.07010	         6.93642e+57
          1938.87640	         7.68777e+57
          1939.68270	         7.81198e+57
          1940.48900	         8.22030e+57
          1941.29530	         8.41564e+57
          1942.10160	         8.40170e+57
          1942.90790	         7.45260e+57
          1943.71420	         6.34798e+57
          1944.52050	         5.52654e+57
          1945.32680	         5.50592e+57
          1946.13310	         6.67405e+57
          1946.93940	         7.91561e+57
          1947.74570	         6.74762e+57
          1948.55200	         5.16985e+57
          1949.35830	         6.86650e+57
          1950.16460	         6.97722e+57
          1950.97090	         6.88182e+57
          1951.77720	         8.44097e+57
          1952.58350	         7.99839e+57
          1953.38980	         6.79515e+57
          1954.19610	         5.87281e+57
          1955.00240	         4.77530e+57
          1955.80870	         5.70532e+57
          1956.61500	         6.45316e+57
          1957.42130	         6.56638e+57
          1958.22760	         6.62518e+57
          1959.03390	         7.39742e+57
          1959.84020	         8.50452e+57
          1960.64650	         7.64059e+57
          1961.45280	         6.49954e+57
          1962.25910	         6.03644e+57
          1963.06540	         6.47466e+57
          1963.87170	         7.32825e+57
          1964.67800	         7.19169e+57
          1965.48430	         7.69795e+57
          1966.29060	         6.71177e+57
          1967.09690	         7.54003e+57
          1967.90320	         6.33896e+57
          1968.70950	         7.01342e+57
          1969.51580	         6.29485e+57
          1970.32210	         7.11190e+57
          1971.12840	         7.12923e+57
          1971.93470	         5.26215e+57
          1972.74100	         5.72334e+57
          1973.54730	         7.08381e+57
          1974.35360	         7.50385e+57
          1975.15990	         7.39366e+57
          1975.96620	         7.00735e+57
          1976.77250	         8.29311e+57
          1977.57880	         8.34679e+57
          1978.38510	         5.63657e+57
          1979.19140	         7.09238e+57
          1979.99770	         7.68628e+57
          1980.80400	         8.05140e+57
          1981.61030	         6.70511e+57
          1982.41660	         6.46071e+57
          1983.22290	         6.19413e+57
          1984.02920	         5.19214e+57
          1984.83550	         5.48652e+57
          1985.64180	         5.45226e+57
          1986.44810	         6.49597e+57
          1987.25440	         5.13270e+57
          1988.06070	         5.47918e+57
          1988.86700	         6.29095e+57
          1989.67330	         7.03079e+57
          1990.47960	         6.88541e+57
          1991.28590	         6.15058e+57
          1992.09220	         6.37506e+57
          1992.89850	         6.37215e+57
          1993.70480	         5.93923e+57
          1994.51110	         5.23923e+57
          1995.31740	         4.41776e+57
          1996.12370	         4.57055e+57
          1996.93000	         5.85800e+57
          1997.73630	         6.84519e+57
          1998.54260	         8.62562e+57
          1999.34890	         7.71320e+57
          2000.15520	         6.50958e+57
          2000.96150	         5.76095e+57
          2001.76780	         6.16445e+57
          2002.57410	         5.41644e+57
          2003.38040	         6.72650e+57
          2004.18670	         5.48804e+57
          2004.99300	         4.79784e+57
          2005.79930	         6.63839e+57
          2006.60560	         7.42255e+57
          2007.41190	         6.84663e+57
          2008.21820	         7.28673e+57
          2009.02450	         8.44094e+57
          2009.83080	         6.76709e+57
          2010.63710	         5.77118e+57
          2011.44340	         6.61280e+57
          2012.24970	         7.96335e+57
          2013.05600	         7.09135e+57
          2013.86230	         6.59943e+57
          2014.66860	         5.40632e+57
          2015.47490	         6.83068e+57
          2016.28120	         5.96490e+57
          2017.08750	         6.12806e+57
          2017.89380	         6.04249e+57
          2018.70010	         5.06002e+57
          2019.50640	         4.99294e+57
          2020.31270	         7.39584e+57
          2021.11900	         7.08534e+57
          2021.92530	         7.45138e+57
          2022.73160	         8.47502e+57
          2023.53790	         7.65472e+57
          2024.34420	         6.70742e+57
          2025.15050	         5.30726e+57
          2025.95680	         4.69563e+57
          2026.76310	         5.08041e+57
          2027.56940	         5.98700e+57
          2028.37570	         7.06231e+57
          2029.18200	         6.13751e+57
          2029.98830	         5.69760e+57
          2030.79460	         6.19757e+57
          2031.60090	         5.67670e+57
          2032.40720	         5.23667e+57
          2033.21350	         5.09048e+57
          2034.01980	         5.03961e+57
          2034.82610	         5.59428e+57
          2035.63240	         5.14607e+57
          2036.43870	         5.07721e+57
          2037.24500	         6.28989e+57
          2038.05130	         8.03539e+57
          2038.85760	         6.98262e+57
          2039.66390	         6.58525e+57
          2040.47020	         5.69796e+57
          2041.27650	         5.73902e+57
          2042.08280	         4.88411e+57
          2042.88910	         6.53895e+57
          2043.69540	         6.13541e+57
          2044.50170	         5.81220e+57
          2045.30800	         3.77348e+57
          2046.11430	         3.74546e+57
          2046.92060	         6.50161e+57
          2047.72690	         6.64937e+57
          2048.53320	         7.93496e+57
          2049.33950	         6.56187e+57
          2050.14580	         7.28549e+57
          2050.95210	         6.96713e+57
          2051.75840	         7.08343e+57
          2052.56470	         5.46538e+57
          2053.37100	         4.78047e+57
          2054.17730	         5.19566e+57
          2054.98360	         5.97330e+57
          2055.78990	         3.81301e+57
          2056.59620	         3.38699e+57
          2057.40250	         5.76915e+57
          2058.20880	         5.79261e+57
          2059.01510	         5.20610e+57
          2059.82140	         5.65404e+57
          2060.62770	         9.36337e+57
          2061.43400	         1.65947e+58
          2062.24030	         1.22348e+58
          2063.04660	         4.57713e+57
          2063.85290	         1.19438e+57
          2064.65920	        -2.33461e+57
          2065.46550	        -6.55450e+57
          2066.27180	        -7.86900e+57
          2067.07810	         4.22626e+57
          2067.88440	         5.01724e+57
          2068.69070	         5.65475e+57
          2069.49700	         6.98874e+57
          2070.30330	         4.63432e+57
          2071.10960	         4.87580e+57
          2071.91590	         5.80664e+57
          2072.72220	         4.22980e+57
          2073.52850	         4.34443e+57
          2074.33480	         4.93209e+57
          2075.14110	         4.71065e+57
          2075.94740	         5.63240e+57
          2076.75370	         5.56143e+57
          2077.56000	         5.20889e+57
          2078.36630	         4.73314e+57
          2079.17260	         4.30543e+57
          2079.97890	         5.65812e+57
          2080.78520	         6.16220e+57
          2081.59150	         4.79370e+57
          2082.39780	         5.03090e+57
          2083.20410	         3.15437e+57
          2084.01040	         4.81691e+57
          2084.81670	         4.50084e+57
          2085.62300	         3.33200e+57
          2086.42930	         3.23319e+57
          2087.23560	         3.67011e+57
          2088.04190	         4.29665e+57
          2088.84820	         3.54940e+57
          2089.65450	         2.65527e+57
          2090.46080	         6.16959e+56
          2091.26710	         2.08135e+57
          2092.07340	         3.24258e+57
          2092.87970	         3.97597e+57
          2093.68600	        -8.36353e+55
          2094.49230	         2.73961e+57
          2095.29860	         7.26081e+57
          2096.10490	         7.19911e+57
          2096.91120	         3.00681e+57
          2097.71750	         1.43873e+57
          2098.52380	         1.51242e+56
          2099.33010	         1.55081e+57
          2100.13640	         1.24898e+57
          2100.94270	         1.12956e+57
          2101.74900	         3.84487e+57
          2102.55530	         3.55620e+57
          2103.36160	         2.00684e+57
          2104.16790	         2.33125e+57
          2104.97420	         3.49465e+57
          2105.78050	         5.07766e+56
          2106.58680	         3.20228e+56
          2107.39310	        -2.05312e+57
          2108.19940	        -7.19176e+55
          2109.00570	        -2.07813e+57
          2109.81200	        -3.53361e+57
          2110.61830	         1.18853e+57
          2111.42460	         2.81339e+57
          2112.23090	         3.45480e+57
          2113.03720	        -3.98238e+56
          2113.84350	        -3.48603e+57
          2114.64980	         2.22181e+57
          2115.45610	        -8.01844e+56
          2116.26240	        -2.99481e+57
          2117.06870	         1.19855e+57
          2117.87500	        -2.15668e+57
          2118.68130	        -4.19799e+55
          2119.48760	         3.85981e+57
          2120.29390	        -5.03072e+56
          2121.10020	        -5.98856e+57
          2121.90650	        -2.96392e+57
          2122.71280	         2.94545e+57
          2123.51910	         8.04683e+57
          2124.32540	         3.68776e+57
          2125.13170	        -1.16739e+57
          2125.93800	         1.91297e+57
          2126.74430	        -2.52866e+57
          2127.55060	        -8.12863e+57
          2128.35690	        -6.79459e+57
          2129.16320	        -1.57050e+57
          2129.96950	         6.28425e+56
          2130.77580	         4.34850e+56
          2131.58210	         1.82453e+57
          2132.38840	         2.55735e+57
          2133.19470	        -1.25698e+57
          2134.00100	        -3.18751e+55
          2134.80730	        -1.12264e+57
          2135.61360	         3.42581e+57
          2136.41990	        -3.46893e+57
          2137.22620	         5.07611e+57
          2138.03250	        -3.61709e+56
          2138.83880	        -5.09741e+57
          2139.64510	         1.01069e+57
          2140.45140	        -2.69142e+57
          2141.25770	        -8.15517e+57
          2142.06400	         2.02633e+57
          2142.87030	         8.32219e+57
          2143.67660	         1.31028e+58
          2144.48290	         1.13906e+58
          2145.28920	         1.01870e+58
          2146.09550	        -6.38686e+57
          2146.90180	        -7.77693e+57
          2147.70810	        -6.14441e+57
          2148.51440	        -2.63739e+57
          2149.32070	        -9.03016e+57
          2150.12700	        -6.84165e+57
          2150.93330	         3.17338e+57
          2151.73960	         3.21204e+57
          2152.54590	        -1.99071e+56
          2153.35220	        -8.40357e+57
          2154.15850	        -4.13191e+57
          2154.96480	        -4.03480e+57
          2155.77110	        -1.98385e+57
          2156.57740	        -1.55836e+58
          2157.38370	         3.58277e+57
          2158.19000	        -4.84255e+57
          2158.99630	         2.16773e+57
          2159.80260	        -1.09261e+58
          2160.60890	        -7.81311e+57
          2161.41520	         5.66254e+57
          2162.22150	         2.67000e+57
          2163.02780	        -3.87258e+57
          2163.83410	        -5.36003e+57
          2164.64040	        -6.15718e+57
          2165.44670	        -1.04630e+58
          2166.25300	         2.12073e+57
          2167.05930	         9.85828e+56
          2167.86560	        -7.97841e+57
          2168.67190	        -1.73907e+58
          2169.47820	        -1.27248e+58
          2170.28450	        -5.55043e+57
          2171.09080	        -5.55252e+57
          2171.89710	        -2.01041e+57
          2172.70340	        -4.43962e+57
          2173.50970	        -1.14595e+58
          2174.31600	        -3.71328e+57
          2175.12230	        -7.12102e+57
          2175.92860	        -1.44952e+57
          2176.73490	        -2.93289e+57
          2177.54120	        -8.93815e+57
          2178.34750	        -3.68360e+57
          2179.15380	                 nan
          2179.96010	                 nan
          2180.76640	                 nan
          2181.57270	                 nan
          2182.37900	                 nan
          2183.18530	                 nan
          2183.99160	                 nan
          2184.79790	                 nan
          2185.60420	                 nan
          2186.41050	                 nan
          2187.21680	                 nan
          2188.02310	                 nan
          2188.82940	                 nan
          2189.63570	                 nan
          2190.44200	                 nan
          2191.24830	                 nan
          2192.05460	                 nan
          2192.86090	                 nan
          2193.66720	                 nan
          2194.47350	                 nan
          2195.27980	                 nan
          2196.08610	                 nan
          2196.89240	                 nan
          2197.69870	                 nan
          2198.50500	                 nan
          2199.31130	                 nan
          2200.11760	                 nan
          2200.92390	                 nan
          2201.73020	                 nan
          2202.53650	                 nan
          2203.34280	                 nan
          2204.14910	                 nan
          2204.95540	                 nan
          2205.76170	                 nan
          2206.56800	                 nan
          2207.37430	                 nan
          2208.18060	                 nan
          2208.98690	                 nan
          2209.79320	                 nan
          2210.59950	                 nan
          2211.40580	                 nan
          2212.21210	                 nan
          2213.01840	                 nan
          2213.82470	                 nan
          2214.63100	                 nan
          2215.43730	         0.00000e+00
