#sample_431_stacked_spectrum_rest_UV-bands_median_H-alpha_noDC.txt
#median Lum: 1.71427e+42
#Rest-frame wavelength (A) | Luminosity (erg/s/A)
#
          1110.00000	         0.00000e+00
          1110.80630	         5.31709e+59
          1111.61260	         1.83864e+59
          1112.41890	        -4.15948e+58
          1113.22520	         9.79637e+57
          1114.03150	        -6.74176e+57
          1114.83780	         8.14846e+58
          1115.64410	         6.61786e+58
          1116.45040	         3.21632e+59
          1117.25670	         9.10160e+58
          1118.06300	         1.05183e+59
          1118.86930	         9.33376e+57
          1119.67560	         1.53494e+59
          1120.48190	        -8.47156e+57
          1121.28820	        -1.45931e+59
          1122.09450	         3.61573e+57
          1122.90080	         3.09637e+58
          1123.70710	         4.49558e+58
          1124.51340	         9.02017e+58
          1125.31970	         3.72172e+57
          1126.12600	         1.70574e+58
          1126.93230	        -3.10890e+58
          1127.73860	        -6.61583e+58
          1128.54490	        -1.59067e+58
          1129.35120	         1.31446e+58
          1130.15750	         3.00612e+57
          1130.96380	        -2.72823e+58
          1131.77010	         1.73961e+58
          1132.57640	         3.23405e+58
          1133.38270	         3.83318e+58
          1134.18900	         2.98144e+58
          1134.99530	         2.44129e+58
          1135.80160	         1.06015e+58
          1136.60790	         5.24829e+56
          1137.41420	        -1.18063e+58
          1138.22050	         3.87423e+58
          1139.02680	         4.55459e+58
          1139.83310	         2.66801e+58
          1140.63940	         1.10801e+58
          1141.44570	        -1.77607e+58
          1142.25200	         1.20251e+58
          1143.05830	         1.81079e+58
          1143.86460	         1.97701e+58
          1144.67090	         3.40911e+58
          1145.47720	         3.24274e+58
          1146.28350	         1.68355e+58
          1147.08980	         1.52650e+58
          1147.89610	         1.35831e+58
          1148.70240	         1.77494e+58
          1149.50870	         2.27572e+58
          1150.31500	         1.26283e+58
          1151.12130	         1.50766e+58
          1151.92760	         9.51270e+57
          1152.73390	         1.66139e+58
          1153.54020	         6.99345e+57
          1154.34650	         2.40567e+58
          1155.15280	         2.01699e+58
          1155.95910	         1.75126e+58
          1156.76540	         1.93930e+58
          1157.57170	         5.68556e+57
          1158.37800	         5.15802e+57
          1159.18430	         4.34365e+57
          1159.99060	         1.20846e+58
          1160.79690	         8.78243e+57
          1161.60320	         1.20726e+58
          1162.40950	         1.59716e+58
          1163.21580	         1.77951e+58
          1164.02210	         1.06513e+58
          1164.82840	         1.01702e+58
          1165.63470	         1.31201e+58
          1166.44100	         3.13374e+58
          1167.24730	         1.30158e+58
          1168.05360	         7.40989e+57
          1168.85990	         6.33349e+57
          1169.66620	         7.96324e+57
          1170.47250	         1.59165e+58
          1171.27880	         9.18301e+57
          1172.08510	         1.00278e+58
          1172.89140	         1.42058e+58
          1173.69770	         3.70749e+57
          1174.50400	         3.01588e+57
          1175.31030	         1.42638e+58
          1176.11660	         1.80394e+58
          1176.92290	         1.77930e+58
          1177.72920	         1.32446e+58
          1178.53550	         3.76099e+57
          1179.34180	        -2.34700e+57
          1180.14810	         6.47013e+56
          1180.95440	         6.00613e+57
          1181.76070	         1.08388e+58
          1182.56700	         1.12614e+58
          1183.37330	         7.37914e+57
          1184.17960	         1.42880e+58
          1184.98590	         1.09649e+58
          1185.79220	         8.37719e+57
          1186.59850	         1.65131e+58
          1187.40480	         1.37073e+58
          1188.21110	         1.80268e+58
          1189.01740	         1.23516e+58
          1189.82370	         1.05517e+58
          1190.63000	         1.31203e+58
          1191.43630	         1.95480e+58
          1192.24260	         1.26279e+58
          1193.04890	         1.46975e+58
          1193.85520	         1.15082e+58
          1194.66150	         4.79364e+57
          1195.46780	         1.36253e+58
          1196.27410	         1.78802e+58
          1197.08040	         1.07910e+58
          1197.88670	         1.38944e+58
          1198.69300	         1.20145e+58
          1199.49930	         1.52657e+58
          1200.30560	         1.51561e+58
          1201.11190	         1.04530e+58
          1201.91820	         8.86941e+57
          1202.72450	         8.24464e+57
          1203.53080	         1.49414e+58
          1204.33710	         9.39948e+57
          1205.14340	         6.71659e+57
          1205.94970	         8.09880e+57
          1206.75600	         9.72842e+57
          1207.56230	         7.37119e+57
          1208.36860	         1.03569e+58
          1209.17490	         2.31506e+57
          1209.98120	         3.38749e+57
          1210.78750	         8.98809e+57
          1211.59380	         1.34666e+58
          1212.40010	         1.78204e+58
          1213.20640	         2.21227e+58
          1214.01270	         1.83673e+58
          1214.81900	         2.42186e+58
          1215.62530	         4.50848e+58
          1216.43160	         9.21206e+58
          1217.23790	         1.56645e+59
          1218.04420	         1.21194e+59
          1218.85050	         8.43788e+58
          1219.65680	         4.93412e+58
          1220.46310	         2.90019e+58
          1221.26940	         2.53366e+58
          1222.07570	         1.42069e+58
          1222.88200	         7.74934e+57
          1223.68830	         8.28801e+57
          1224.49460	         7.56973e+57
          1225.30090	         3.99050e+57
          1226.10720	         8.48394e+57
          1226.91350	         9.73324e+57
          1227.71980	         8.76957e+57
          1228.52610	         1.07867e+58
          1229.33240	         8.75379e+57
          1230.13870	         1.02234e+58
          1230.94500	         1.01802e+58
          1231.75130	         7.13067e+57
          1232.55760	         9.81553e+57
          1233.36390	         8.22629e+57
          1234.17020	         1.10231e+58
          1234.97650	         9.75887e+57
          1235.78280	         5.91607e+57
          1236.58910	         6.56196e+57
          1237.39540	         1.04549e+58
          1238.20170	         1.19739e+58
          1239.00800	         1.51833e+58
          1239.81430	         1.71939e+58
          1240.62060	         1.05560e+58
          1241.42690	         8.43407e+57
          1242.23320	         1.00495e+58
          1243.03950	         7.95602e+57
          1243.84580	         7.42430e+57
          1244.65210	         1.15932e+58
          1245.45840	         1.21060e+58
          1246.26470	         9.62156e+57
          1247.07100	         6.38584e+57
          1247.87730	         4.38283e+57
          1248.68360	         4.44415e+57
          1249.48990	         8.37280e+57
          1250.29620	         8.63384e+57
          1251.10250	         7.72009e+57
          1251.90880	         4.89250e+57
          1252.71510	         4.49843e+57
          1253.52140	         6.62365e+57
          1254.32770	         1.00874e+58
          1255.13400	         1.36177e+58
          1255.94030	         1.19193e+58
          1256.74660	         9.72147e+57
          1257.55290	         9.21856e+57
          1258.35920	         7.59313e+57
          1259.16550	         6.12094e+57
          1259.97180	         5.72044e+57
          1260.77810	         7.75966e+57
          1261.58440	         8.19579e+57
          1262.39070	         9.19473e+57
          1263.19700	         7.76463e+57
          1264.00330	         1.08415e+58
          1264.80960	         1.31324e+58
          1265.61590	         1.23225e+58
          1266.42220	         1.09620e+58
          1267.22850	         1.07881e+58
          1268.03480	         1.41086e+58
          1268.84110	         1.37136e+58
          1269.64740	         1.27332e+58
          1270.45370	         1.47820e+58
          1271.26000	         1.38145e+58
          1272.06630	         1.10787e+58
          1272.87260	         1.29202e+58
          1273.67890	         1.30975e+58
          1274.48520	         1.31541e+58
          1275.29150	         1.29014e+58
          1276.09780	         1.26221e+58
          1276.90410	         1.68804e+58
          1277.71040	         1.56239e+58
          1278.51670	         1.26958e+58
          1279.32300	         1.34520e+58
          1280.12930	         1.28934e+58
          1280.93560	         1.19863e+58
          1281.74190	         1.16772e+58
          1282.54820	         1.48003e+58
          1283.35450	         1.34287e+58
          1284.16080	         1.24790e+58
          1284.96710	         1.42300e+58
          1285.77340	         1.24504e+58
          1286.57970	         1.08018e+58
          1287.38600	         1.32429e+58
          1288.19230	         1.50013e+58
          1288.99860	         1.34103e+58
          1289.80490	         1.14210e+58
          1290.61120	         1.32554e+58
          1291.41750	         1.39356e+58
          1292.22380	         1.27513e+58
          1293.03010	         1.11696e+58
          1293.83640	         1.18626e+58
          1294.64270	         9.78014e+57
          1295.44900	         7.47415e+57
          1296.25530	         8.42200e+57
          1297.06160	         1.11918e+58
          1297.86790	         1.22461e+58
          1298.67420	         9.38850e+57
          1299.48050	         9.68534e+57
          1300.28680	         1.10350e+58
          1301.09310	         9.50158e+57
          1301.89940	         7.25936e+57
          1302.70570	         8.58223e+57
          1303.51200	         1.02529e+58
          1304.31830	         1.03057e+58
          1305.12460	         1.06473e+58
          1305.93090	         1.26835e+58
          1306.73720	         1.36855e+58
          1307.54350	         1.36494e+58
          1308.34980	         1.40577e+58
          1309.15610	         1.52566e+58
          1309.96240	         1.77160e+58
          1310.76870	         1.35468e+58
          1311.57500	         8.93142e+57
          1312.38130	         9.88261e+57
          1313.18760	         1.45667e+58
          1313.99390	         1.73173e+58
          1314.80020	         1.58914e+58
          1315.60650	         1.61468e+58
          1316.41280	         1.40393e+58
          1317.21910	         1.09054e+58
          1318.02540	         1.14343e+58
          1318.83170	         1.23102e+58
          1319.63800	         1.13950e+58
          1320.44430	         1.18914e+58
          1321.25060	         1.37753e+58
          1322.05690	         1.24244e+58
          1322.86320	         1.27045e+58
          1323.66950	         1.25944e+58
          1324.47580	         9.18704e+57
          1325.28210	         9.52748e+57
          1326.08840	         1.15315e+58
          1326.89470	         1.17659e+58
          1327.70100	         1.11972e+58
          1328.50730	         8.12728e+57
          1329.31360	         7.62308e+57
          1330.11990	         8.09993e+57
          1330.92620	         8.17474e+57
          1331.73250	         1.09993e+58
          1332.53880	         1.01143e+58
          1333.34510	         9.13067e+57
          1334.15140	         9.67022e+57
          1334.95770	         1.04164e+58
          1335.76400	         1.09664e+58
          1336.57030	         1.20615e+58
          1337.37660	         1.26080e+58
          1338.18290	         1.15873e+58
          1338.98920	         1.17950e+58
          1339.79550	         1.13189e+58
          1340.60180	         1.14206e+58
          1341.40810	         1.40346e+58
          1342.21440	         1.17330e+58
          1343.02070	         1.18635e+58
          1343.82700	         1.48446e+58
          1344.63330	         1.41463e+58
          1345.43960	         1.31641e+58
          1346.24590	         8.92730e+57
          1347.05220	         1.04044e+58
          1347.85850	         1.02751e+58
          1348.66480	         1.09858e+58
          1349.47110	         1.26522e+58
          1350.27740	         1.30897e+58
          1351.08370	         1.26975e+58
          1351.89000	         1.21610e+58
          1352.69630	         1.09494e+58
          1353.50260	         1.05956e+58
          1354.30890	         1.22569e+58
          1355.11520	         1.18351e+58
          1355.92150	         1.12872e+58
          1356.72780	         1.15896e+58
          1357.53410	         1.11677e+58
          1358.34040	         1.18037e+58
          1359.14670	         1.11662e+58
          1359.95300	         1.06047e+58
          1360.75930	         1.14467e+58
          1361.56560	         1.15009e+58
          1362.37190	         1.23607e+58
          1363.17820	         1.20647e+58
          1363.98450	         1.14782e+58
          1364.79080	         1.25217e+58
          1365.59710	         1.35814e+58
          1366.40340	         1.20938e+58
          1367.20970	         1.14111e+58
          1368.01600	         1.09330e+58
          1368.82230	         1.04002e+58
          1369.62860	         9.45653e+57
          1370.43490	         8.43817e+57
          1371.24120	         9.67075e+57
          1372.04750	         8.13343e+57
          1372.85380	         9.96782e+57
          1373.66010	         1.15362e+58
          1374.46640	         1.00679e+58
          1375.27270	         1.09947e+58
          1376.07900	         8.93937e+57
          1376.88530	         8.65864e+57
          1377.69160	         1.00739e+58
          1378.49790	         8.84004e+57
          1379.30420	         8.43206e+57
          1380.11050	         9.99085e+57
          1380.91680	         7.81623e+57
          1381.72310	         7.63534e+57
          1382.52940	         8.12918e+57
          1383.33570	         7.54369e+57
          1384.14200	         9.26829e+57
          1384.94830	         1.11435e+58
          1385.75460	         1.04516e+58
          1386.56090	         1.21905e+58
          1387.36720	         1.17337e+58
          1388.17350	         1.21051e+58
          1388.97980	         1.26503e+58
          1389.78610	         1.01928e+58
          1390.59240	         8.11068e+57
          1391.39870	         7.26950e+57
          1392.20500	         9.34288e+57
          1393.01130	         8.72898e+57
          1393.81760	         8.36451e+57
          1394.62390	         8.24142e+57
          1395.43020	         6.88370e+57
          1396.23650	         6.64751e+57
          1397.04280	         8.04279e+57
          1397.84910	         8.62018e+57
          1398.65540	         8.68833e+57
          1399.46170	         1.02845e+58
          1400.26800	         8.99116e+57
          1401.07430	         8.06121e+57
          1401.88060	         8.81242e+57
          1402.68690	         8.79622e+57
          1403.49320	         9.61251e+57
          1404.29950	         1.09965e+58
          1405.10580	         1.07951e+58
          1405.91210	         1.11067e+58
          1406.71840	         1.18118e+58
          1407.52470	         1.18797e+58
          1408.33100	         1.20938e+58
          1409.13730	         1.28127e+58
          1409.94360	         1.33609e+58
          1410.74990	         1.28799e+58
          1411.55620	         1.18744e+58
          1412.36250	         9.84343e+57
          1413.16880	         8.30399e+57
          1413.97510	         9.43835e+57
          1414.78140	         9.64693e+57
          1415.58770	         1.04723e+58
          1416.39400	         1.09921e+58
          1417.20030	         1.04607e+58
          1418.00660	         8.44655e+57
          1418.81290	         1.03660e+58
          1419.61920	         1.09304e+58
          1420.42550	         1.23371e+58
          1421.23180	         1.29061e+58
          1422.03810	         1.03436e+58
          1422.84440	         1.11347e+58
          1423.65070	         1.33442e+58
          1424.45700	         9.28555e+57
          1425.26330	         8.31127e+57
          1426.06960	         1.02605e+58
          1426.87590	         1.08233e+58
          1427.68220	         1.13348e+58
          1428.48850	         1.19843e+58
          1429.29480	         1.20068e+58
          1430.10110	         1.12892e+58
          1430.90740	         9.10381e+57
          1431.71370	         8.17986e+57
          1432.52000	         8.49074e+57
          1433.32630	         8.04441e+57
          1434.13260	         8.15688e+57
          1434.93890	         8.44392e+57
          1435.74520	         9.74802e+57
          1436.55150	         9.91703e+57
          1437.35780	         9.72542e+57
          1438.16410	         9.57297e+57
          1438.97040	         9.60951e+57
          1439.77670	         9.23802e+57
          1440.58300	         8.49963e+57
          1441.38930	         9.25381e+57
          1442.19560	         1.00171e+58
          1443.00190	         9.80881e+57
          1443.80820	         1.04632e+58
          1444.61450	         1.00670e+58
          1445.42080	         9.49528e+57
          1446.22710	         1.15428e+58
          1447.03340	         1.08356e+58
          1447.83970	         1.05910e+58
          1448.64600	         1.12178e+58
          1449.45230	         1.06966e+58
          1450.25860	         1.08045e+58
          1451.06490	         8.64838e+57
          1451.87120	         6.85800e+57
          1452.67750	         7.10810e+57
          1453.48380	         9.20780e+57
          1454.29010	         9.39598e+57
          1455.09640	         8.25223e+57
          1455.90270	         9.87948e+57
          1456.70900	         1.03591e+58
          1457.51530	         9.85081e+57
          1458.32160	         1.24899e+58
          1459.12790	         1.29406e+58
          1459.93420	         9.57070e+57
          1460.74050	         8.50462e+57
          1461.54680	         9.83215e+57
          1462.35310	         8.16290e+57
          1463.15940	         9.60469e+57
          1463.96570	         1.22355e+58
          1464.77200	         1.25707e+58
          1465.57830	         1.03548e+58
          1466.38460	         9.18737e+57
          1467.19090	         9.00159e+57
          1467.99720	         8.96530e+57
          1468.80350	         9.43854e+57
          1469.60980	         9.34525e+57
          1470.41610	         9.02700e+57
          1471.22240	         9.18980e+57
          1472.02870	         9.77610e+57
          1472.83500	         1.01708e+58
          1473.64130	         1.04977e+58
          1474.44760	         1.01306e+58
          1475.25390	         1.07222e+58
          1476.06020	         1.05895e+58
          1476.86650	         8.92266e+57
          1477.67280	         8.32351e+57
          1478.47910	         7.61278e+57
          1479.28540	         8.46807e+57
          1480.09170	         9.81283e+57
          1480.89800	         8.76343e+57
          1481.70430	         8.58494e+57
          1482.51060	         8.13731e+57
          1483.31690	         7.62742e+57
          1484.12320	         7.47208e+57
          1484.92950	         7.84457e+57
          1485.73580	         9.25706e+57
          1486.54210	         1.07667e+58
          1487.34840	         1.05856e+58
          1488.15470	         1.02875e+58
          1488.96100	         9.20331e+57
          1489.76730	         9.26100e+57
          1490.57360	         9.32083e+57
          1491.37990	         8.39381e+57
          1492.18620	         9.10790e+57
          1492.99250	         8.76296e+57
          1493.79880	         8.12182e+57
          1494.60510	         8.53382e+57
          1495.41140	         8.17145e+57
          1496.21770	         8.82931e+57
          1497.02400	         1.11284e+58
          1497.83030	         9.46677e+57
          1498.63660	         7.91160e+57
          1499.44290	         7.90081e+57
          1500.24920	         7.94042e+57
          1501.05550	         9.11509e+57
          1501.86180	         9.50654e+57
          1502.66810	         9.63859e+57
          1503.47440	         9.56939e+57
          1504.28070	         9.19835e+57
          1505.08700	         9.79693e+57
          1505.89330	         8.74421e+57
          1506.69960	         7.58116e+57
          1507.50590	         8.58305e+57
          1508.31220	         9.35911e+57
          1509.11850	         9.16470e+57
          1509.92480	         9.15535e+57
          1510.73110	         9.33978e+57
          1511.53740	         8.66685e+57
          1512.34370	         8.23212e+57
          1513.15000	         9.77236e+57
          1513.95630	         1.01962e+58
          1514.76260	         9.58082e+57
          1515.56890	         8.70690e+57
          1516.37520	         8.70590e+57
          1517.18150	         8.05793e+57
          1517.98780	         7.07835e+57
          1518.79410	         6.82114e+57
          1519.60040	         8.36206e+57
          1520.40670	         1.03223e+58
          1521.21300	         9.84204e+57
          1522.01930	         8.87716e+57
          1522.82560	         9.01344e+57
          1523.63190	         9.96587e+57
          1524.43820	         7.98670e+57
          1525.24450	         6.15279e+57
          1526.05080	         7.15667e+57
          1526.85710	         6.77814e+57
          1527.66340	         6.98840e+57
          1528.46970	         8.23024e+57
          1529.27600	         8.28152e+57
          1530.08230	         8.86096e+57
          1530.88860	         8.91086e+57
          1531.69490	         8.77541e+57
          1532.50120	         9.14125e+57
          1533.30750	         1.03292e+58
          1534.11380	         9.66708e+57
          1534.92010	         9.45858e+57
          1535.72640	         1.00114e+58
          1536.53270	         1.00254e+58
          1537.33900	         9.08227e+57
          1538.14530	         7.98560e+57
          1538.95160	         8.53415e+57
          1539.75790	         8.98378e+57
          1540.56420	         8.27932e+57
          1541.37050	         8.28679e+57
          1542.17680	         7.38111e+57
          1542.98310	         7.42534e+57
          1543.78940	         7.67364e+57
          1544.59570	         7.71922e+57
          1545.40200	         7.69490e+57
          1546.20830	         9.04937e+57
          1547.01460	         1.16530e+58
          1547.82090	         1.19452e+58
          1548.62720	         1.27083e+58
          1549.43350	         1.18122e+58
          1550.23980	         1.13017e+58
          1551.04610	         1.19703e+58
          1551.85240	         1.26776e+58
          1552.65870	         1.17326e+58
          1553.46500	         1.05857e+58
          1554.27130	         1.02054e+58
          1555.07760	         1.03968e+58
          1555.88390	         8.56875e+57
          1556.69020	         8.39481e+57
          1557.49650	         8.61525e+57
          1558.30280	         8.41826e+57
          1559.10910	         9.51364e+57
          1559.91540	         9.28344e+57
          1560.72170	         8.87970e+57
          1561.52800	         9.25358e+57
          1562.33430	         9.42011e+57
          1563.14060	         8.37503e+57
          1563.94690	         8.51518e+57
          1564.75320	         8.76973e+57
          1565.55950	         7.34159e+57
          1566.36580	         7.34020e+57
          1567.17210	         9.41103e+57
          1567.97840	         9.91485e+57
          1568.78470	         9.59945e+57
          1569.59100	         9.69429e+57
          1570.39730	         9.25875e+57
          1571.20360	         7.74911e+57
          1572.00990	         7.67021e+57
          1572.81620	         9.18761e+57
          1573.62250	         1.07799e+58
          1574.42880	         9.11118e+57
          1575.23510	         7.39339e+57
          1576.04140	         8.94437e+57
          1576.84770	         1.05831e+58
          1577.65400	         1.05666e+58
          1578.46030	         1.02625e+58
          1579.26660	         1.08076e+58
          1580.07290	         9.16762e+57
          1580.87920	         8.10631e+57
          1581.68550	         8.08332e+57
          1582.49180	         8.49221e+57
          1583.29810	         8.36838e+57
          1584.10440	         8.66216e+57
          1584.91070	         8.55814e+57
          1585.71700	         9.24213e+57
          1586.52330	         9.35325e+57
          1587.32960	         8.73097e+57
          1588.13590	         8.35429e+57
          1588.94220	         7.98432e+57
          1589.74850	         8.83862e+57
          1590.55480	         9.34164e+57
          1591.36110	         9.01994e+57
          1592.16740	         8.45265e+57
          1592.97370	         8.07064e+57
          1593.78000	         8.53823e+57
          1594.58630	         9.60057e+57
          1595.39260	         9.24764e+57
          1596.19890	         9.52113e+57
          1597.00520	         9.76992e+57
          1597.81150	         9.28677e+57
          1598.61780	         7.74952e+57
          1599.42410	         7.30342e+57
          1600.23040	         7.63349e+57
          1601.03670	         8.08676e+57
          1601.84300	         7.35996e+57
          1602.64930	         8.68363e+57
          1603.45560	         9.69737e+57
          1604.26190	         7.88179e+57
          1605.06820	         7.83242e+57
          1605.87450	         8.40681e+57
          1606.68080	         8.41889e+57
          1607.48710	         6.45417e+57
          1608.29340	         5.63080e+57
          1609.09970	         6.98721e+57
          1609.90600	         7.83360e+57
          1610.71230	         7.29387e+57
          1611.51860	         6.95586e+57
          1612.32490	         7.19178e+57
          1613.13120	         8.37121e+57
          1613.93750	         8.07616e+57
          1614.74380	         8.97269e+57
          1615.55010	         8.89479e+57
          1616.35640	         9.59148e+57
          1617.16270	         1.05523e+58
          1617.96900	         1.01211e+58
          1618.77530	         9.06466e+57
          1619.58160	         9.47548e+57
          1620.38790	         9.21165e+57
          1621.19420	         9.91509e+57
          1622.00050	         9.72848e+57
          1622.80680	         9.54681e+57
          1623.61310	         9.68919e+57
          1624.41940	         9.35091e+57
          1625.22570	         1.02958e+58
          1626.03200	         9.80749e+57
          1626.83830	         8.09165e+57
          1627.64460	         8.02345e+57
          1628.45090	         8.17033e+57
          1629.25720	         9.73216e+57
          1630.06350	         1.06095e+58
          1630.86980	         6.49184e+57
          1631.67610	         7.56959e+57
          1632.48240	         8.50445e+57
          1633.28870	         9.24421e+57
          1634.09500	         1.00413e+58
          1634.90130	         1.07072e+58
          1635.70760	         9.21999e+57
          1636.51390	         8.67432e+57
          1637.32020	         8.65057e+57
          1638.12650	         9.96902e+57
          1638.93280	         1.05406e+58
          1639.73910	         1.13076e+58
          1640.54540	         1.28817e+58
          1641.35170	         9.98720e+57
          1642.15800	         8.27310e+57
          1642.96430	         8.23755e+57
          1643.77060	         9.46631e+57
          1644.57690	         8.91672e+57
          1645.38320	         8.33995e+57
          1646.18950	         7.34347e+57
          1646.99580	         8.50359e+57
          1647.80210	         8.08700e+57
          1648.60840	         7.50719e+57
          1649.41470	         8.72598e+57
          1650.22100	         7.91106e+57
          1651.02730	         7.65054e+57
          1651.83360	         7.14477e+57
          1652.63990	         8.22237e+57
          1653.44620	         9.15243e+57
          1654.25250	         8.58306e+57
          1655.05880	         6.80640e+57
          1655.86510	         7.54586e+57
          1656.67140	         8.06809e+57
          1657.47770	         8.51798e+57
          1658.28400	         8.87281e+57
          1659.09030	         8.43703e+57
          1659.89660	         9.56274e+57
          1660.70290	         1.01243e+58
          1661.50920	         1.02142e+58
          1662.31550	         9.66681e+57
          1663.12180	         9.37437e+57
          1663.92810	         1.04524e+58
          1664.73440	         1.09338e+58
          1665.54070	         1.15342e+58
          1666.34700	         1.15084e+58
          1667.15330	         1.07473e+58
          1667.95960	         9.47980e+57
          1668.76590	         8.29969e+57
          1669.57220	         7.49681e+57
          1670.37850	         7.98577e+57
          1671.18480	         8.16131e+57
          1671.99110	         8.22045e+57
          1672.79740	         8.05601e+57
          1673.60370	         7.04059e+57
          1674.41000	         7.06252e+57
          1675.21630	         6.67894e+57
          1676.02260	         6.81075e+57
          1676.82890	         7.09721e+57
          1677.63520	         7.43142e+57
          1678.44150	         7.18715e+57
          1679.24780	         8.73373e+57
          1680.05410	         8.74691e+57
          1680.86040	         6.60524e+57
          1681.66670	         7.16895e+57
          1682.47300	         9.11352e+57
          1683.27930	         9.28034e+57
          1684.08560	         9.19743e+57
          1684.89190	         7.83287e+57
          1685.69820	         6.00863e+57
          1686.50450	         5.47767e+57
          1687.31080	         7.04041e+57
          1688.11710	         8.81637e+57
          1688.92340	         7.72478e+57
          1689.72970	         6.74326e+57
          1690.53600	         6.04571e+57
          1691.34230	         6.53937e+57
          1692.14860	         8.26195e+57
          1692.95490	         8.48400e+57
          1693.76120	         7.25901e+57
          1694.56750	         7.24055e+57
          1695.37380	         9.26979e+57
          1696.18010	         9.00264e+57
          1696.98640	         9.07464e+57
          1697.79270	         8.99392e+57
          1698.59900	         8.81528e+57
          1699.40530	         7.39548e+57
          1700.21160	         8.22191e+57
          1701.01790	         1.00083e+58
          1701.82420	         8.31014e+57
          1702.63050	         7.21438e+57
          1703.43680	         8.91184e+57
          1704.24310	         9.20778e+57
          1705.04940	         8.54634e+57
          1705.85570	         7.87079e+57
          1706.66200	         7.73350e+57
          1707.46830	         8.69172e+57
          1708.27460	         8.43579e+57
          1709.08090	         7.16166e+57
          1709.88720	         6.57864e+57
          1710.69350	         6.39681e+57
          1711.49980	         7.07032e+57
          1712.30610	         7.93135e+57
          1713.11240	         9.41619e+57
          1713.91870	         8.14319e+57
          1714.72500	         8.25669e+57
          1715.53130	         9.51801e+57
          1716.33760	         8.10274e+57
          1717.14390	         7.50369e+57
          1717.95020	         8.98092e+57
          1718.75650	         9.06452e+57
          1719.56280	         7.92516e+57
          1720.36910	         7.65780e+57
          1721.17540	         7.47040e+57
          1721.98170	         7.05178e+57
          1722.78800	         6.09553e+57
          1723.59430	         5.98214e+57
          1724.40060	         6.84806e+57
          1725.20690	         7.66741e+57
          1726.01320	         7.81627e+57
          1726.81950	         7.81072e+57
          1727.62580	         8.18680e+57
          1728.43210	         7.78971e+57
          1729.23840	         7.42137e+57
          1730.04470	         7.68655e+57
          1730.85100	         8.25569e+57
          1731.65730	         8.21421e+57
          1732.46360	         8.37299e+57
          1733.26990	         7.18820e+57
          1734.07620	         6.27757e+57
          1734.88250	         7.26304e+57
          1735.68880	         7.62622e+57
          1736.49510	         7.77188e+57
          1737.30140	         8.07455e+57
          1738.10770	         7.06562e+57
          1738.91400	         7.06564e+57
          1739.72030	         7.76331e+57
          1740.52660	         5.58993e+57
          1741.33290	         4.77464e+57
          1742.13920	         5.55352e+57
          1742.94550	         6.79037e+57
          1743.75180	         7.64463e+57
          1744.55810	         7.52420e+57
          1745.36440	         6.95932e+57
          1746.17070	         5.74229e+57
          1746.97700	         5.67740e+57
          1747.78330	         7.01226e+57
          1748.58960	         7.18244e+57
          1749.39590	         7.09886e+57
          1750.20220	         6.55104e+57
          1751.00850	         5.83233e+57
          1751.81480	         6.67288e+57
          1752.62110	         7.83459e+57
          1753.42740	         8.56551e+57
          1754.23370	         6.78465e+57
          1755.04000	         6.08452e+57
          1755.84630	         7.38282e+57
          1756.65260	         8.56814e+57
          1757.45890	         8.50784e+57
          1758.26520	         7.43098e+57
          1759.07150	         9.66254e+57
          1759.87780	         8.61426e+57
          1760.68410	         7.95392e+57
          1761.49040	         8.14003e+57
          1762.29670	         6.27962e+57
          1763.10300	         7.10747e+57
          1763.90930	         6.83632e+57
          1764.71560	         7.58185e+57
          1765.52190	         8.26582e+57
          1766.32820	         9.18670e+57
          1767.13450	         8.83761e+57
          1767.94080	         7.69451e+57
          1768.74710	         7.59362e+57
          1769.55340	         7.65413e+57
          1770.35970	         7.45141e+57
          1771.16600	         8.22594e+57
          1771.97230	         8.64576e+57
          1772.77860	         7.93518e+57
          1773.58490	         7.92912e+57
          1774.39120	         7.42865e+57
          1775.19750	         6.07493e+57
          1776.00380	         6.16202e+57
          1776.81010	         6.70305e+57
          1777.61640	         6.79803e+57
          1778.42270	         6.67924e+57
          1779.22900	         6.97655e+57
          1780.03530	         7.06365e+57
          1780.84160	         7.64325e+57
          1781.64790	         8.81063e+57
          1782.45420	         8.14236e+57
          1783.26050	         7.52834e+57
          1784.06680	         7.16423e+57
          1784.87310	         6.96504e+57
          1785.67940	         7.88442e+57
          1786.48570	         6.80320e+57
          1787.29200	         6.01026e+57
          1788.09830	         5.82442e+57
          1788.90460	         5.90580e+57
          1789.71090	         5.00877e+57
          1790.51720	         4.98386e+57
          1791.32350	         7.43607e+57
          1792.12980	         8.80590e+57
          1792.93610	         7.92887e+57
          1793.74240	         8.15985e+57
          1794.54870	         8.78149e+57
          1795.35500	         8.37865e+57
          1796.16130	         8.55430e+57
          1796.96760	         7.49280e+57
          1797.77390	         7.58731e+57
          1798.58020	         8.30283e+57
          1799.38650	         7.21495e+57
          1800.19280	         6.66393e+57
          1800.99910	         7.92599e+57
          1801.80540	         7.84858e+57
          1802.61170	         8.34452e+57
          1803.41800	         8.13776e+57
          1804.22430	         8.57278e+57
          1805.03060	         8.02526e+57
          1805.83690	         7.62987e+57
          1806.64320	         8.22334e+57
          1807.44950	         7.22784e+57
          1808.25580	         7.32274e+57
          1809.06210	         8.78454e+57
          1809.86840	         7.90256e+57
          1810.67470	         6.85323e+57
          1811.48100	         9.37689e+57
          1812.28730	         9.76482e+57
          1813.09360	         7.48183e+57
          1813.89990	         8.61201e+57
          1814.70620	         8.34944e+57
          1815.51250	         8.58722e+57
          1816.31880	         8.98963e+57
          1817.12510	         6.92273e+57
          1817.93140	         6.01232e+57
          1818.73770	         7.24537e+57
          1819.54400	         7.20454e+57
          1820.35030	         7.89152e+57
          1821.15660	         7.08072e+57
          1821.96290	         5.94661e+57
          1822.76920	         6.98270e+57
          1823.57550	         7.89325e+57
          1824.38180	         8.25608e+57
          1825.18810	         8.27894e+57
          1825.99440	         8.39269e+57
          1826.80070	         8.15640e+57
          1827.60700	         7.58450e+57
          1828.41330	         6.72140e+57
          1829.21960	         7.21062e+57
          1830.02590	         7.39713e+57
          1830.83220	         8.23279e+57
          1831.63850	         8.16835e+57
          1832.44480	         7.96220e+57
          1833.25110	         8.14183e+57
          1834.05740	         8.72896e+57
          1834.86370	         7.37356e+57
          1835.67000	         6.12721e+57
          1836.47630	         7.82536e+57
          1837.28260	         1.00076e+58
          1838.08890	         9.53603e+57
          1838.89520	         8.88483e+57
          1839.70150	         8.07232e+57
          1840.50780	         6.95363e+57
          1841.31410	         7.05883e+57
          1842.12040	         7.31743e+57
          1842.92670	         7.82718e+57
          1843.73300	         7.40630e+57
          1844.53930	         7.69377e+57
          1845.34560	         8.57528e+57
          1846.15190	         7.71923e+57
          1846.95820	         6.95888e+57
          1847.76450	         6.07443e+57
          1848.57080	         5.60094e+57
          1849.37710	         5.78096e+57
          1850.18340	         7.59825e+57
          1850.98970	         8.85128e+57
          1851.79600	         8.49117e+57
          1852.60230	         8.27821e+57
          1853.40860	         8.36672e+57
          1854.21490	         7.54051e+57
          1855.02120	         5.63779e+57
          1855.82750	         5.12414e+57
          1856.63380	         5.68758e+57
          1857.44010	         7.41491e+57
          1858.24640	         7.11041e+57
          1859.05270	         7.28463e+57
          1859.85900	         6.50854e+57
          1860.66530	         6.93446e+57
          1861.47160	         8.19390e+57
          1862.27790	         7.16389e+57
          1863.08420	         6.98406e+57
          1863.89050	         8.39500e+57
          1864.69680	         7.87716e+57
          1865.50310	         7.62997e+57
          1866.30940	         6.73677e+57
          1867.11570	         6.03849e+57
          1867.92200	         7.08824e+57
          1868.72830	         7.43598e+57
          1869.53460	         7.34297e+57
          1870.34090	         7.47714e+57
          1871.14720	         8.04518e+57
          1871.95350	         7.28638e+57
          1872.75980	         7.39196e+57
          1873.56610	         7.75760e+57
          1874.37240	         6.38552e+57
          1875.17870	         6.47959e+57
          1875.98500	         7.89350e+57
          1876.79130	         8.79555e+57
          1877.59760	         7.54124e+57
          1878.40390	         6.34351e+57
          1879.21020	         6.50821e+57
          1880.01650	         7.78944e+57
          1880.82280	         9.11270e+57
          1881.62910	         8.55094e+57
          1882.43540	         9.42796e+57
          1883.24170	         8.40320e+57
          1884.04800	         7.38540e+57
          1884.85430	         7.86270e+57
          1885.66060	         7.89491e+57
          1886.46690	         7.52857e+57
          1887.27320	         7.91056e+57
          1888.07950	         6.37888e+57
          1888.88580	         6.82634e+57
          1889.69210	         9.19600e+57
          1890.49840	         8.42858e+57
          1891.30470	         7.55866e+57
          1892.11100	         9.09956e+57
          1892.91730	         9.32768e+57
          1893.72360	         8.00057e+57
          1894.52990	         7.23296e+57
          1895.33620	         8.79402e+57
          1896.14250	         8.10206e+57
          1896.94880	         6.30548e+57
          1897.75510	         4.42439e+57
          1898.56140	         6.77537e+57
          1899.36770	         8.48296e+57
          1900.17400	         6.98171e+57
          1900.98030	         5.95261e+57
          1901.78660	         6.82390e+57
          1902.59290	         7.70949e+57
          1903.39920	         9.62413e+57
          1904.20550	         9.87508e+57
          1905.01180	         8.95625e+57
          1905.81810	         9.70407e+57
          1906.62440	         1.17442e+58
          1907.43070	         1.49332e+58
          1908.23700	         1.64482e+58
          1909.04330	         1.43168e+58
          1909.84960	         1.22080e+58
          1910.65590	         1.03332e+58
          1911.46220	         9.55081e+57
          1912.26850	         8.62676e+57
          1913.07480	         7.03985e+57
          1913.88110	         5.55683e+57
          1914.68740	         5.71701e+57
          1915.49370	         6.08902e+57
          1916.30000	         5.95163e+57
          1917.10630	         6.72897e+57
          1917.91260	         6.73847e+57
          1918.71890	         7.18864e+57
          1919.52520	         6.96013e+57
          1920.33150	         6.19541e+57
          1921.13780	         6.74769e+57
          1921.94410	         8.18120e+57
          1922.75040	         8.57074e+57
          1923.55670	         7.57834e+57
          1924.36300	         7.78591e+57
          1925.16930	         5.88826e+57
          1925.97560	         5.97050e+57
          1926.78190	         5.41612e+57
          1927.58820	         6.55481e+57
          1928.39450	         5.74355e+57
          1929.20080	         5.23271e+57
          1930.00710	         6.83254e+57
          1930.81340	         7.64611e+57
          1931.61970	         6.85047e+57
          1932.42600	         6.90436e+57
          1933.23230	         7.71993e+57
          1934.03860	         6.72349e+57
          1934.84490	         5.54028e+57
          1935.65120	         8.20072e+57
          1936.45750	         8.55908e+57
          1937.26380	         6.97879e+57
          1938.07010	         7.64730e+57
          1938.87640	         7.79534e+57
          1939.68270	         7.84298e+57
          1940.48900	         7.66541e+57
          1941.29530	         8.16198e+57
          1942.10160	         7.92915e+57
          1942.90790	         6.83132e+57
          1943.71420	         7.04890e+57
          1944.52050	         7.58449e+57
          1945.32680	         6.65044e+57
          1946.13310	         6.72076e+57
          1946.93940	         7.02376e+57
          1947.74570	         7.53371e+57
          1948.55200	         7.74198e+57
          1949.35830	         7.66538e+57
          1950.16460	         6.60707e+57
          1950.97090	         6.95863e+57
          1951.77720	         7.57231e+57
          1952.58350	         7.42199e+57
          1953.38980	         6.83016e+57
          1954.19610	         5.78656e+57
          1955.00240	         5.15218e+57
          1955.80870	         6.23982e+57
          1956.61500	         5.60351e+57
          1957.42130	         6.09723e+57
          1958.22760	         6.11273e+57
          1959.03390	         6.89952e+57
          1959.84020	         6.76650e+57
          1960.64650	         6.81872e+57
          1961.45280	         6.63733e+57
          1962.25910	         6.26335e+57
          1963.06540	         6.31208e+57
          1963.87170	         6.13630e+57
          1964.67800	         6.30388e+57
          1965.48430	         7.03242e+57
          1966.29060	         7.07979e+57
          1967.09690	         7.03066e+57
          1967.90320	         6.72158e+57
          1968.70950	         6.98727e+57
          1969.51580	         7.13908e+57
          1970.32210	         8.09921e+57
          1971.12840	         7.16142e+57
          1971.93470	         4.59725e+57
          1972.74100	         4.57326e+57
          1973.54730	         7.74801e+57
          1974.35360	         7.40111e+57
          1975.15990	         7.41803e+57
          1975.96620	         6.94882e+57
          1976.77250	         7.65939e+57
          1977.57880	         8.18910e+57
          1978.38510	         6.36672e+57
          1979.19140	         6.46639e+57
          1979.99770	         7.44171e+57
          1980.80400	         8.60445e+57
          1981.61030	         7.29390e+57
          1982.41660	         5.73575e+57
          1983.22290	         4.99981e+57
          1984.02920	         6.19853e+57
          1984.83550	         6.02026e+57
          1985.64180	         6.68299e+57
          1986.44810	         7.47689e+57
          1987.25440	         6.88515e+57
          1988.06070	         5.81941e+57
          1988.86700	         6.21044e+57
          1989.67330	         6.64302e+57
          1990.47960	         7.48685e+57
          1991.28590	         6.29374e+57
          1992.09220	         5.62248e+57
          1992.89850	         6.24040e+57
          1993.70480	         5.85773e+57
          1994.51110	         4.60094e+57
          1995.31740	         4.73175e+57
          1996.12370	         5.28647e+57
          1996.93000	         5.26608e+57
          1997.73630	         7.67525e+57
          1998.54260	         8.07945e+57
          1999.34890	         7.47172e+57
          2000.15520	         6.85821e+57
          2000.96150	         6.36717e+57
          2001.76780	         6.65966e+57
          2002.57410	         4.63676e+57
          2003.38040	         6.00710e+57
          2004.18670	         5.79811e+57
          2004.99300	         5.58089e+57
          2005.79930	         7.58293e+57
          2006.60560	         7.13690e+57
          2007.41190	         6.26750e+57
          2008.21820	         6.26598e+57
          2009.02450	         7.87089e+57
          2009.83080	         6.08000e+57
          2010.63710	         6.45451e+57
          2011.44340	         7.17522e+57
          2012.24970	         7.77759e+57
          2013.05600	         8.23310e+57
          2013.86230	         6.81874e+57
          2014.66860	         6.09187e+57
          2015.47490	         6.70563e+57
          2016.28120	         4.99350e+57
          2017.08750	         5.64180e+57
          2017.89380	         7.10191e+57
          2018.70010	         6.32965e+57
          2019.50640	         6.09219e+57
          2020.31270	         7.11478e+57
          2021.11900	         7.90285e+57
          2021.92530	         8.02538e+57
          2022.73160	         7.90949e+57
          2023.53790	         7.00062e+57
          2024.34420	         6.63102e+57
          2025.15050	         6.30778e+57
          2025.95680	         5.25461e+57
          2026.76310	         6.95573e+57
          2027.56940	         7.36165e+57
          2028.37570	         7.14118e+57
          2029.18200	         7.59792e+57
          2029.98830	         6.41971e+57
          2030.79460	         6.03978e+57
          2031.60090	         6.40564e+57
          2032.40720	         5.79926e+57
          2033.21350	         6.24272e+57
          2034.01980	         6.01980e+57
          2034.82610	         4.61309e+57
          2035.63240	         4.46061e+57
          2036.43870	         5.18362e+57
          2037.24500	         5.62170e+57
          2038.05130	         6.66409e+57
          2038.85760	         6.93393e+57
          2039.66390	         6.19788e+57
          2040.47020	         6.40677e+57
          2041.27650	         6.32060e+57
          2042.08280	         5.27326e+57
          2042.88910	         5.13043e+57
          2043.69540	         5.57238e+57
          2044.50170	         5.73055e+57
          2045.30800	         5.41861e+57
          2046.11430	         4.48495e+57
          2046.92060	         5.68676e+57
          2047.72690	         6.95914e+57
          2048.53320	         6.29068e+57
          2049.33950	         4.91666e+57
          2050.14580	         5.92670e+57
          2050.95210	         6.95223e+57
          2051.75840	         7.51721e+57
          2052.56470	         7.09590e+57
          2053.37100	         5.34855e+57
          2054.17730	         5.65094e+57
          2054.98360	         6.65383e+57
          2055.78990	         4.67414e+57
          2056.59620	         3.50700e+57
          2057.40250	         6.03008e+57
          2058.20880	         6.66916e+57
          2059.01510	         5.69437e+57
          2059.82140	         6.17872e+57
          2060.62770	         1.00270e+58
          2061.43400	         1.67188e+58
          2062.24030	         1.04254e+58
          2063.04660	         3.18300e+57
          2063.85290	         1.45361e+57
          2064.65920	        -3.32233e+57
          2065.46550	        -9.92967e+57
          2066.27180	        -9.80479e+57
          2067.07810	         4.04762e+57
          2067.88440	         4.34308e+57
          2068.69070	         6.07836e+57
          2069.49700	         4.58506e+57
          2070.30330	         3.99981e+57
          2071.10960	         6.00427e+57
          2071.91590	         7.28033e+57
          2072.72220	         4.87025e+57
          2073.52850	         5.34027e+57
          2074.33480	         5.03828e+57
          2075.14110	         4.99271e+57
          2075.94740	         5.86470e+57
          2076.75370	         4.68042e+57
          2077.56000	         4.96034e+57
          2078.36630	         7.00198e+57
          2079.17260	         5.01351e+57
          2079.97890	         5.37689e+57
          2080.78520	         5.81788e+57
          2081.59150	         5.07481e+57
          2082.39780	         5.54186e+57
          2083.20410	         2.26441e+57
          2084.01040	         1.71364e+57
          2084.81670	         3.82454e+57
          2085.62300	         3.86826e+57
          2086.42930	         2.96669e+57
          2087.23560	         4.02580e+57
          2088.04190	         3.24904e+57
          2088.84820	         2.13966e+57
          2089.65450	         1.87768e+57
          2090.46080	         2.72777e+57
          2091.26710	         4.49967e+57
          2092.07340	         2.35422e+57
          2092.87970	         2.52600e+57
          2093.68600	         6.92182e+56
          2094.49230	         1.78417e+56
          2095.29860	         3.39234e+57
          2096.10490	         2.87350e+57
          2096.91120	         8.29655e+56
          2097.71750	        -7.49936e+55
          2098.52380	         2.02410e+57
          2099.33010	         2.11551e+55
          2100.13640	        -1.38797e+57
          2100.94270	         1.56239e+56
          2101.74900	         2.77250e+57
          2102.55530	         4.20734e+57
          2103.36160	         8.57551e+56
          2104.16790	         2.25072e+57
          2104.97420	         2.06268e+57
          2105.78050	         1.12914e+57
          2106.58680	         2.36280e+56
          2107.39310	        -1.79570e+57
          2108.19940	         1.12292e+56
          2109.00570	         1.82641e+56
          2109.81200	        -4.12673e+56
          2110.61830	         1.33655e+57
          2111.42460	         1.07625e+55
          2112.23090	        -1.24012e+57
          2113.03720	         1.43144e+57
          2113.84350	         1.77239e+57
          2114.64980	         2.99605e+57
          2115.45610	        -1.29280e+57
          2116.26240	        -1.00014e+58
          2117.06870	        -1.03916e+57
          2117.87500	         2.30478e+57
          2118.68130	        -8.08057e+56
          2119.48760	         2.37702e+57
          2120.29390	         6.48676e+56
          2121.10020	        -4.57679e+57
          2121.90650	        -3.23689e+57
          2122.71280	        -2.45932e+57
          2123.51910	         6.73249e+57
          2124.32540	         8.60598e+56
          2125.13170	        -2.61966e+57
          2125.93800	        -5.15171e+56
          2126.74430	        -6.01267e+57
          2127.55060	        -7.07451e+57
          2128.35690	        -2.51794e+57
          2129.16320	        -1.74926e+57
          2129.96950	        -2.92766e+57
          2130.77580	         6.06630e+57
          2131.58210	         3.02925e+57
          2132.38840	        -3.43175e+57
          2133.19470	        -2.24171e+57
          2134.00100	        -6.24529e+57
          2134.80730	        -4.22967e+57
          2135.61360	         4.80364e+57
          2136.41990	        -3.65207e+56
          2137.22620	        -1.47996e+57
          2138.03250	        -3.62018e+57
          2138.83880	        -8.48949e+57
          2139.64510	         8.61496e+57
          2140.45140	         3.61589e+57
          2141.25770	        -1.13213e+58
          2142.06400	        -5.93080e+57
          2142.87030	         3.17524e+57
          2143.67660	         7.19775e+56
          2144.48290	         8.35130e+57
          2145.28920	         1.30092e+58
          2146.09550	        -1.19724e+58
          2146.90180	        -1.09595e+58
          2147.70810	        -1.11694e+57
          2148.51440	        -2.73871e+57
          2149.32070	        -1.38299e+58
          2150.12700	        -1.30648e+58
          2150.93330	        -1.68278e+57
          2151.73960	         2.33800e+57
          2152.54590	         3.99656e+56
          2153.35220	        -6.67748e+56
          2154.15850	        -7.87809e+57
          2154.96480	        -8.97973e+57
          2155.77110	        -6.12734e+57
          2156.57740	        -6.70771e+57
          2157.38370	        -2.15732e+57
          2158.19000	         5.69899e+56
          2158.99630	        -2.57247e+57
          2159.80260	        -1.33751e+58
          2160.60890	        -7.17953e+57
          2161.41520	        -5.12083e+57
          2162.22150	         5.75632e+56
          2163.02780	        -6.49231e+56
          2163.83410	        -1.01929e+58
          2164.64040	        -6.18151e+57
          2165.44670	        -1.07948e+58
          2166.25300	        -3.52087e+57
          2167.05930	        -1.42943e+58
          2167.86560	        -1.47401e+58
          2168.67190	        -3.80509e+57
          2169.47820	        -7.65215e+57
          2170.28450	        -1.20492e+58
          2171.09080	         6.59834e+56
          2171.89710	         1.09618e+57
          2172.70340	         1.42882e+57
          2173.50970	        -5.86760e+57
          2174.31600	        -2.22715e+57
          2175.12230	         3.48577e+56
          2175.92860	        -5.54062e+57
          2176.73490	        -7.85741e+57
          2177.54120	        -5.70927e+57
          2178.34750	        -4.96427e+57
          2179.15380	                 nan
          2179.96010	                 nan
          2180.76640	                 nan
          2181.57270	                 nan
          2182.37900	                 nan
          2183.18530	                 nan
          2183.99160	                 nan
          2184.79790	                 nan
          2185.60420	                 nan
          2186.41050	                 nan
          2187.21680	                 nan
          2188.02310	                 nan
          2188.82940	                 nan
          2189.63570	                 nan
          2190.44200	                 nan
          2191.24830	                 nan
          2192.05460	                 nan
          2192.86090	                 nan
          2193.66720	                 nan
          2194.47350	                 nan
          2195.27980	                 nan
          2196.08610	                 nan
          2196.89240	                 nan
          2197.69870	                 nan
          2198.50500	                 nan
          2199.31130	                 nan
          2200.11760	                 nan
          2200.92390	                 nan
          2201.73020	                 nan
          2202.53650	                 nan
          2203.34280	                 nan
          2204.14910	                 nan
          2204.95540	                 nan
          2205.76170	                 nan
          2206.56800	                 nan
          2207.37430	                 nan
          2208.18060	                 nan
          2208.98690	                 nan
          2209.79320	                 nan
          2210.59950	                 nan
          2211.40580	                 nan
          2212.21210	                 nan
          2213.01840	                 nan
          2213.82470	                 nan
          2214.63100	                 nan
          2215.43730	         0.00000e+00
