#sample_243_stacked_spectrum_rest_UV-bands_median_H-alpha_noDC.txt
#median Lum: 1.69280e+42
#Rest-frame wavelength (A) | Luminosity (erg/s/A)
#
          1110.00000	         0.00000e+00
          1110.80630	        -1.75379e+59
          1111.61260	         1.21502e+59
          1112.41890	        -1.25215e+59
          1113.22520	        -6.43809e+58
          1114.03150	        -1.00629e+59
          1114.83780	         2.34407e+59
          1115.64410	         1.03301e+59
          1116.45040	         7.73116e+58
          1117.25670	        -8.65389e+58
          1118.06300	         1.81059e+59
          1118.86930	         7.26975e+58
          1119.67560	         4.01833e+58
          1120.48190	        -5.07351e+57
          1121.28820	        -9.30249e+58
          1122.09450	        -1.37465e+58
          1122.90080	        -3.04319e+58
          1123.70710	         4.86425e+58
          1124.51340	         3.58016e+58
          1125.31970	        -4.58465e+58
          1126.12600	        -3.53835e+58
          1126.93230	        -2.96863e+58
          1127.73860	        -5.91142e+58
          1128.54490	        -2.54903e+58
          1129.35120	        -1.08263e+58
          1130.15750	        -2.60656e+58
          1130.96380	        -1.85924e+57
          1131.77010	         2.99464e+58
          1132.57640	         4.02764e+58
          1133.38270	         2.79321e+58
          1134.18900	         2.12563e+58
          1134.99530	        -8.45482e+56
          1135.80160	         2.21373e+58
          1136.60790	         1.36416e+58
          1137.41420	        -2.89921e+57
          1138.22050	         5.32532e+58
          1139.02680	         5.36843e+58
          1139.83310	         4.40788e+58
          1140.63940	         2.08014e+58
          1141.44570	        -1.68956e+58
          1142.25200	         2.64917e+57
          1143.05830	        -1.42134e+58
          1143.86460	         1.00888e+58
          1144.67090	         2.05563e+58
          1145.47720	         1.92115e+58
          1146.28350	         1.46024e+58
          1147.08980	         2.11520e+58
          1147.89610	         1.57647e+58
          1148.70240	         2.62772e+58
          1149.50870	         1.08252e+58
          1150.31500	         4.38331e+57
          1151.12130	        -8.18537e+56
          1151.92760	         4.11258e+57
          1152.73390	         4.69191e+57
          1153.54020	         6.32202e+57
          1154.34650	         2.73432e+58
          1155.15280	         2.73165e+58
          1155.95910	         1.14597e+58
          1156.76540	         1.46403e+58
          1157.57170	         2.85766e+57
          1158.37800	         4.70122e+57
          1159.18430	         4.87093e+57
          1159.99060	         1.38462e+58
          1160.79690	         1.00335e+58
          1161.60320	         1.11961e+58
          1162.40950	         1.85566e+58
          1163.21580	         1.97339e+58
          1164.02210	         1.79094e+58
          1164.82840	         7.32234e+57
          1165.63470	         2.23286e+58
          1166.44100	         2.46564e+58
          1167.24730	         1.53351e+58
          1168.05360	         8.61239e+57
          1168.85990	         7.49156e+57
          1169.66620	         1.38605e+58
          1170.47250	         1.23754e+58
          1171.27880	         1.13420e+58
          1172.08510	         1.40141e+58
          1172.89140	         8.94569e+57
          1173.69770	         8.44166e+57
          1174.50400	         1.22560e+58
          1175.31030	         1.88833e+58
          1176.11660	         1.69270e+58
          1176.92290	         1.72840e+58
          1177.72920	         1.44616e+58
          1178.53550	         1.05276e+58
          1179.34180	         3.42312e+57
          1180.14810	         4.13757e+57
          1180.95440	         7.56242e+57
          1181.76070	         4.01181e+57
          1182.56700	         3.39838e+57
          1183.37330	         5.75838e+57
          1184.17960	         9.09212e+57
          1184.98590	         9.94272e+57
          1185.79220	         8.84671e+57
          1186.59850	         1.80111e+58
          1187.40480	         1.25943e+58
          1188.21110	         1.08207e+58
          1189.01740	         1.32052e+58
          1189.82370	         1.08422e+58
          1190.63000	         1.39861e+58
          1191.43630	         1.59952e+58
          1192.24260	         1.09836e+58
          1193.04890	         1.28206e+58
          1193.85520	         8.82482e+57
          1194.66150	         3.07443e+57
          1195.46780	         9.48901e+57
          1196.27410	         1.40272e+58
          1197.08040	         1.21068e+58
          1197.88670	         1.26331e+58
          1198.69300	         1.32859e+58
          1199.49930	         1.53106e+58
          1200.30560	         1.12204e+58
          1201.11190	         8.73754e+57
          1201.91820	         8.30391e+57
          1202.72450	         6.12480e+57
          1203.53080	         1.59512e+58
          1204.33710	         9.73700e+57
          1205.14340	         5.64867e+57
          1205.94970	         5.76673e+57
          1206.75600	         6.78607e+57
          1207.56230	         6.77686e+57
          1208.36860	         8.53748e+57
          1209.17490	         5.11036e+57
          1209.98120	         3.07677e+57
          1210.78750	         3.51679e+57
          1211.59380	         9.04203e+57
          1212.40010	         2.02464e+58
          1213.20640	         2.08495e+58
          1214.01270	         2.28991e+58
          1214.81900	         2.80706e+58
          1215.62530	         4.68877e+58
          1216.43160	         9.34666e+58
          1217.23790	         1.49519e+59
          1218.04420	         1.12995e+59
          1218.85050	         8.64705e+58
          1219.65680	         5.92689e+58
          1220.46310	         3.73967e+58
          1221.26940	         2.32076e+58
          1222.07570	         9.97169e+57
          1222.88200	         6.52361e+57
          1223.68830	         6.64461e+57
          1224.49460	         6.67439e+57
          1225.30090	         6.78995e+57
          1226.10720	         7.50066e+57
          1226.91350	         5.77938e+57
          1227.71980	         7.62391e+57
          1228.52610	         1.31637e+58
          1229.33240	         9.17712e+57
          1230.13870	         5.35990e+57
          1230.94500	         7.82465e+57
          1231.75130	         8.18573e+57
          1232.55760	         9.47998e+57
          1233.36390	         1.00035e+58
          1234.17020	         9.23376e+57
          1234.97650	         7.61855e+57
          1235.78280	         6.62694e+57
          1236.58910	         7.24629e+57
          1237.39540	         9.86762e+57
          1238.20170	         1.13425e+58
          1239.00800	         1.05226e+58
          1239.81430	         1.23684e+58
          1240.62060	         1.06528e+58
          1241.42690	         1.19120e+58
          1242.23320	         1.22793e+58
          1243.03950	         8.68334e+57
          1243.84580	         9.03945e+57
          1244.65210	         7.46958e+57
          1245.45840	         6.97743e+57
          1246.26470	         9.03082e+57
          1247.07100	         9.11267e+57
          1247.87730	         7.75560e+57
          1248.68360	         4.33341e+57
          1249.48990	         6.76365e+57
          1250.29620	         8.26781e+57
          1251.10250	         4.96489e+57
          1251.90880	         5.62188e+57
          1252.71510	         7.24533e+57
          1253.52140	         7.36451e+57
          1254.32770	         9.86601e+57
          1255.13400	         1.27759e+58
          1255.94030	         1.25330e+58
          1256.74660	         1.09000e+58
          1257.55290	         1.01177e+58
          1258.35920	         7.71297e+57
          1259.16550	         6.80090e+57
          1259.97180	         5.23269e+57
          1260.77810	         7.95943e+57
          1261.58440	         1.25570e+58
          1262.39070	         1.06301e+58
          1263.19700	         9.24827e+57
          1264.00330	         8.19398e+57
          1264.80960	         9.50345e+57
          1265.61590	         1.10800e+58
          1266.42220	         1.24024e+58
          1267.22850	         1.07549e+58
          1268.03480	         1.29355e+58
          1268.84110	         1.47726e+58
          1269.64740	         1.30888e+58
          1270.45370	         1.21360e+58
          1271.26000	         1.14883e+58
          1272.06630	         1.20220e+58
          1272.87260	         1.35733e+58
          1273.67890	         1.33085e+58
          1274.48520	         1.11233e+58
          1275.29150	         1.39649e+58
          1276.09780	         1.14176e+58
          1276.90410	         1.24443e+58
          1277.71040	         1.25859e+58
          1278.51670	         1.19700e+58
          1279.32300	         1.26409e+58
          1280.12930	         1.19198e+58
          1280.93560	         9.65672e+57
          1281.74190	         1.13410e+58
          1282.54820	         1.50242e+58
          1283.35450	         1.13311e+58
          1284.16080	         1.00709e+58
          1284.96710	         1.26467e+58
          1285.77340	         1.08566e+58
          1286.57970	         1.25010e+58
          1287.38600	         1.70623e+58
          1288.19230	         1.92621e+58
          1288.99860	         1.73915e+58
          1289.80490	         1.17466e+58
          1290.61120	         1.25921e+58
          1291.41750	         1.35269e+58
          1292.22380	         1.03791e+58
          1293.03010	         7.69647e+57
          1293.83640	         1.01298e+58
          1294.64270	         1.00988e+58
          1295.44900	         6.85124e+57
          1296.25530	         7.09945e+57
          1297.06160	         7.93312e+57
          1297.86790	         8.25091e+57
          1298.67420	         1.08345e+58
          1299.48050	         1.14922e+58
          1300.28680	         1.08932e+58
          1301.09310	         7.93634e+57
          1301.89940	         4.31191e+57
          1302.70570	         7.64698e+57
          1303.51200	         8.54528e+57
          1304.31830	         9.78180e+57
          1305.12460	         1.25347e+58
          1305.93090	         1.33621e+58
          1306.73720	         1.27059e+58
          1307.54350	         1.27607e+58
          1308.34980	         1.41385e+58
          1309.15610	         1.36408e+58
          1309.96240	         1.15949e+58
          1310.76870	         9.22056e+57
          1311.57500	         1.02421e+58
          1312.38130	         1.08211e+58
          1313.18760	         1.28623e+58
          1313.99390	         1.52254e+58
          1314.80020	         1.62255e+58
          1315.60650	         1.48649e+58
          1316.41280	         1.32671e+58
          1317.21910	         9.40661e+57
          1318.02540	         1.05368e+58
          1318.83170	         1.28427e+58
          1319.63800	         1.19634e+58
          1320.44430	         1.11370e+58
          1321.25060	         1.22003e+58
          1322.05690	         1.26466e+58
          1322.86320	         1.12754e+58
          1323.66950	         1.07202e+58
          1324.47580	         9.43783e+57
          1325.28210	         8.92867e+57
          1326.08840	         9.78573e+57
          1326.89470	         1.21316e+58
          1327.70100	         1.08705e+58
          1328.50730	         9.28649e+57
          1329.31360	         1.00837e+58
          1330.11990	         9.38729e+57
          1330.92620	         9.45535e+57
          1331.73250	         1.09725e+58
          1332.53880	         1.00097e+58
          1333.34510	         9.28430e+57
          1334.15140	         8.59384e+57
          1334.95770	         8.12187e+57
          1335.76400	         8.86273e+57
          1336.57030	         1.06331e+58
          1337.37660	         1.20626e+58
          1338.18290	         1.06636e+58
          1338.98920	         9.66140e+57
          1339.79550	         9.41646e+57
          1340.60180	         1.05195e+58
          1341.40810	         1.16454e+58
          1342.21440	         1.03876e+58
          1343.02070	         1.15765e+58
          1343.82700	         1.27463e+58
          1344.63330	         1.15452e+58
          1345.43960	         1.22336e+58
          1346.24590	         1.00801e+58
          1347.05220	         1.15027e+58
          1347.85850	         1.08787e+58
          1348.66480	         9.77305e+57
          1349.47110	         1.23426e+58
          1350.27740	         1.20938e+58
          1351.08370	         1.19099e+58
          1351.89000	         1.10852e+58
          1352.69630	         1.14729e+58
          1353.50260	         1.24598e+58
          1354.30890	         1.26246e+58
          1355.11520	         1.13114e+58
          1355.92150	         1.08755e+58
          1356.72780	         1.11655e+58
          1357.53410	         1.04384e+58
          1358.34040	         1.11135e+58
          1359.14670	         1.08596e+58
          1359.95300	         1.04362e+58
          1360.75930	         1.14571e+58
          1361.56560	         1.12271e+58
          1362.37190	         1.10547e+58
          1363.17820	         1.04548e+58
          1363.98450	         1.09005e+58
          1364.79080	         1.23254e+58
          1365.59710	         1.29064e+58
          1366.40340	         1.19328e+58
          1367.20970	         9.24700e+57
          1368.01600	         9.35116e+57
          1368.82230	         9.30544e+57
          1369.62860	         9.88185e+57
          1370.43490	         8.87176e+57
          1371.24120	         9.07240e+57
          1372.04750	         1.06038e+58
          1372.85380	         1.17390e+58
          1373.66010	         1.06327e+58
          1374.46640	         1.04948e+58
          1375.27270	         9.99811e+57
          1376.07900	         8.06050e+57
          1376.88530	         8.72395e+57
          1377.69160	         9.22247e+57
          1378.49790	         7.59982e+57
          1379.30420	         7.47204e+57
          1380.11050	         8.80281e+57
          1380.91680	         8.68681e+57
          1381.72310	         7.62378e+57
          1382.52940	         7.74074e+57
          1383.33570	         8.17883e+57
          1384.14200	         9.25314e+57
          1384.94830	         1.08041e+58
          1385.75460	         1.00597e+58
          1386.56090	         1.11559e+58
          1387.36720	         1.05511e+58
          1388.17350	         1.36226e+58
          1388.97980	         1.18740e+58
          1389.78610	         9.80654e+57
          1390.59240	         9.06741e+57
          1391.39870	         6.50471e+57
          1392.20500	         7.20599e+57
          1393.01130	         7.87530e+57
          1393.81760	         8.48980e+57
          1394.62390	         7.24565e+57
          1395.43020	         6.10116e+57
          1396.23650	         5.64783e+57
          1397.04280	         7.03521e+57
          1397.84910	         9.33412e+57
          1398.65540	         9.42310e+57
          1399.46170	         9.60685e+57
          1400.26800	         8.23936e+57
          1401.07430	         7.92555e+57
          1401.88060	         8.36246e+57
          1402.68690	         8.75751e+57
          1403.49320	         8.95351e+57
          1404.29950	         9.91731e+57
          1405.10580	         1.12906e+58
          1405.91210	         1.08032e+58
          1406.71840	         1.07033e+58
          1407.52470	         9.94135e+57
          1408.33100	         1.03064e+58
          1409.13730	         1.20606e+58
          1409.94360	         1.19249e+58
          1410.74990	         1.07049e+58
          1411.55620	         8.55174e+57
          1412.36250	         8.42080e+57
          1413.16880	         9.34811e+57
          1413.97510	         8.09557e+57
          1414.78140	         8.40480e+57
          1415.58770	         1.07415e+58
          1416.39400	         1.17323e+58
          1417.20030	         9.79886e+57
          1418.00660	         8.39475e+57
          1418.81290	         8.96330e+57
          1419.61920	         9.78431e+57
          1420.42550	         1.27604e+58
          1421.23180	         1.41884e+58
          1422.03810	         1.19969e+58
          1422.84440	         1.00507e+58
          1423.65070	         1.20239e+58
          1424.45700	         1.14336e+58
          1425.26330	         8.98840e+57
          1426.06960	         8.30303e+57
          1426.87590	         8.96659e+57
          1427.68220	         1.05669e+58
          1428.48850	         1.17151e+58
          1429.29480	         1.05954e+58
          1430.10110	         9.70692e+57
          1430.90740	         8.96527e+57
          1431.71370	         8.62766e+57
          1432.52000	         8.39434e+57
          1433.32630	         8.43400e+57
          1434.13260	         8.88539e+57
          1434.93890	         8.85434e+57
          1435.74520	         9.56890e+57
          1436.55150	         9.47642e+57
          1437.35780	         8.56075e+57
          1438.16410	         8.89912e+57
          1438.97040	         9.00343e+57
          1439.77670	         8.90327e+57
          1440.58300	         8.72983e+57
          1441.38930	         8.34310e+57
          1442.19560	         8.56084e+57
          1443.00190	         8.96809e+57
          1443.80820	         9.74148e+57
          1444.61450	         8.77637e+57
          1445.42080	         8.10308e+57
          1446.22710	         9.68858e+57
          1447.03340	         9.30138e+57
          1447.83970	         1.11595e+58
          1448.64600	         1.17745e+58
          1449.45230	         1.00189e+58
          1450.25860	         1.00985e+58
          1451.06490	         8.94372e+57
          1451.87120	         8.00410e+57
          1452.67750	         8.07909e+57
          1453.48380	         9.24782e+57
          1454.29010	         8.31465e+57
          1455.09640	         7.15043e+57
          1455.90270	         7.98157e+57
          1456.70900	         9.41301e+57
          1457.51530	         1.11717e+58
          1458.32160	         1.31088e+58
          1459.12790	         1.23007e+58
          1459.93420	         9.97989e+57
          1460.74050	         8.14201e+57
          1461.54680	         7.67041e+57
          1462.35310	         7.60806e+57
          1463.15940	         9.19135e+57
          1463.96570	         1.02097e+58
          1464.77200	         1.03574e+58
          1465.57830	         9.99050e+57
          1466.38460	         9.64907e+57
          1467.19090	         9.22255e+57
          1467.99720	         8.92893e+57
          1468.80350	         9.63315e+57
          1469.60980	         9.32803e+57
          1470.41610	         1.00550e+58
          1471.22240	         9.58580e+57
          1472.02870	         9.43259e+57
          1472.83500	         9.59959e+57
          1473.64130	         9.36855e+57
          1474.44760	         1.00580e+58
          1475.25390	         9.20648e+57
          1476.06020	         8.36491e+57
          1476.86650	         8.03673e+57
          1477.67280	         8.00527e+57
          1478.47910	         7.08608e+57
          1479.28540	         6.80954e+57
          1480.09170	         7.92219e+57
          1480.89800	         7.59794e+57
          1481.70430	         7.79397e+57
          1482.51060	         8.33421e+57
          1483.31690	         8.20305e+57
          1484.12320	         6.93016e+57
          1484.92950	         6.50572e+57
          1485.73580	         7.81094e+57
          1486.54210	         8.14531e+57
          1487.34840	         8.09115e+57
          1488.15470	         8.18910e+57
          1488.96100	         8.81954e+57
          1489.76730	         9.54672e+57
          1490.57360	         9.47599e+57
          1491.37990	         7.85330e+57
          1492.18620	         8.00760e+57
          1492.99250	         8.27324e+57
          1493.79880	         8.20518e+57
          1494.60510	         8.33400e+57
          1495.41140	         7.58629e+57
          1496.21770	         7.30769e+57
          1497.02400	         9.10423e+57
          1497.83030	         9.40828e+57
          1498.63660	         7.89491e+57
          1499.44290	         6.85345e+57
          1500.24920	         7.39207e+57
          1501.05550	         8.04521e+57
          1501.86180	         8.48636e+57
          1502.66810	         8.85216e+57
          1503.47440	         8.69443e+57
          1504.28070	         8.81175e+57
          1505.08700	         9.30458e+57
          1505.89330	         8.30464e+57
          1506.69960	         7.48822e+57
          1507.50590	         8.20312e+57
          1508.31220	         8.62713e+57
          1509.11850	         8.75032e+57
          1509.92480	         9.16655e+57
          1510.73110	         8.99731e+57
          1511.53740	         7.54130e+57
          1512.34370	         5.96532e+57
          1513.15000	         8.21092e+57
          1513.95630	         9.63704e+57
          1514.76260	         8.85680e+57
          1515.56890	         7.02181e+57
          1516.37520	         6.87264e+57
          1517.18150	         8.36448e+57
          1517.98780	         7.49019e+57
          1518.79410	         7.05193e+57
          1519.60040	         7.76443e+57
          1520.40670	         8.85628e+57
          1521.21300	         7.88605e+57
          1522.01930	         8.11192e+57
          1522.82560	         9.44118e+57
          1523.63190	         1.02319e+58
          1524.43820	         9.14515e+57
          1525.24450	         6.86827e+57
          1526.05080	         5.48782e+57
          1526.85710	         5.82111e+57
          1527.66340	         6.70037e+57
          1528.46970	         6.91834e+57
          1529.27600	         7.53714e+57
          1530.08230	         7.23442e+57
          1530.88860	         7.56059e+57
          1531.69490	         7.87046e+57
          1532.50120	         9.03880e+57
          1533.30750	         9.68428e+57
          1534.11380	         9.33065e+57
          1534.92010	         8.81210e+57
          1535.72640	         9.46063e+57
          1536.53270	         9.50829e+57
          1537.33900	         8.71680e+57
          1538.14530	         8.57564e+57
          1538.95160	         8.35319e+57
          1539.75790	         7.98475e+57
          1540.56420	         7.74157e+57
          1541.37050	         7.98986e+57
          1542.17680	         6.54206e+57
          1542.98310	         5.83239e+57
          1543.78940	         7.37784e+57
          1544.59570	         7.29657e+57
          1545.40200	         8.63218e+57
          1546.20830	         1.02324e+58
          1547.01460	         1.08416e+58
          1547.82090	         1.06095e+58
          1548.62720	         1.11805e+58
          1549.43350	         1.13422e+58
          1550.23980	         1.10328e+58
          1551.04610	         1.22343e+58
          1551.85240	         1.21173e+58
          1552.65870	         1.01808e+58
          1553.46500	         9.05401e+57
          1554.27130	         8.90197e+57
          1555.07760	         9.16797e+57
          1555.88390	         9.55128e+57
          1556.69020	         9.18610e+57
          1557.49650	         9.15528e+57
          1558.30280	         8.58144e+57
          1559.10910	         8.65599e+57
          1559.91540	         8.53451e+57
          1560.72170	         7.86967e+57
          1561.52800	         7.26430e+57
          1562.33430	         8.27454e+57
          1563.14060	         8.61380e+57
          1563.94690	         8.14028e+57
          1564.75320	         8.50900e+57
          1565.55950	         7.37228e+57
          1566.36580	         7.01167e+57
          1567.17210	         8.35643e+57
          1567.97840	         8.81678e+57
          1568.78470	         8.69616e+57
          1569.59100	         9.04438e+57
          1570.39730	         8.72828e+57
          1571.20360	         7.34358e+57
          1572.00990	         7.26605e+57
          1572.81620	         8.59617e+57
          1573.62250	         1.01388e+58
          1574.42880	         9.78605e+57
          1575.23510	         7.89999e+57
          1576.04140	         8.20850e+57
          1576.84770	         8.42236e+57
          1577.65400	         8.69667e+57
          1578.46030	         9.20923e+57
          1579.26660	         1.04229e+58
          1580.07290	         9.23863e+57
          1580.87920	         7.48629e+57
          1581.68550	         7.31489e+57
          1582.49180	         7.68089e+57
          1583.29810	         7.13035e+57
          1584.10440	         8.29731e+57
          1584.91070	         8.45499e+57
          1585.71700	         7.99029e+57
          1586.52330	         8.22413e+57
          1587.32960	         8.28515e+57
          1588.13590	         8.59545e+57
          1588.94220	         8.90017e+57
          1589.74850	         8.61735e+57
          1590.55480	         8.91731e+57
          1591.36110	         8.33537e+57
          1592.16740	         8.21600e+57
          1592.97370	         8.15990e+57
          1593.78000	         9.27334e+57
          1594.58630	         9.09305e+57
          1595.39260	         8.10153e+57
          1596.19890	         8.97646e+57
          1597.00520	         9.59603e+57
          1597.81150	         9.02270e+57
          1598.61780	         7.67877e+57
          1599.42410	         7.30656e+57
          1600.23040	         6.95281e+57
          1601.03670	         7.05134e+57
          1601.84300	         6.99059e+57
          1602.64930	         8.71585e+57
          1603.45560	         9.48302e+57
          1604.26190	         8.39833e+57
          1605.06820	         7.70239e+57
          1605.87450	         7.54266e+57
          1606.68080	         7.37933e+57
          1607.48710	         6.21548e+57
          1608.29340	         5.52777e+57
          1609.09970	         6.79263e+57
          1609.90600	         7.35211e+57
          1610.71230	         6.23729e+57
          1611.51860	         6.28555e+57
          1612.32490	         6.56570e+57
          1613.13120	         8.31019e+57
          1613.93750	         8.25854e+57
          1614.74380	         7.78078e+57
          1615.55010	         9.20538e+57
          1616.35640	         9.72175e+57
          1617.16270	         9.99653e+57
          1617.96900	         9.47992e+57
          1618.77530	         7.48281e+57
          1619.58160	         7.86281e+57
          1620.38790	         8.11507e+57
          1621.19420	         9.01394e+57
          1622.00050	         8.64854e+57
          1622.80680	         7.55086e+57
          1623.61310	         8.14636e+57
          1624.41940	         8.00639e+57
          1625.22570	         7.72120e+57
          1626.03200	         7.48044e+57
          1626.83830	         7.60072e+57
          1627.64460	         7.35785e+57
          1628.45090	         6.39216e+57
          1629.25720	         8.61955e+57
          1630.06350	         9.99634e+57
          1630.86980	         6.79780e+57
          1631.67610	         6.98978e+57
          1632.48240	         8.40294e+57
          1633.28870	         9.44543e+57
          1634.09500	         9.62182e+57
          1634.90130	         9.21435e+57
          1635.70760	         7.49086e+57
          1636.51390	         6.39621e+57
          1637.32020	         7.09031e+57
          1638.12650	         8.36200e+57
          1638.93280	         8.95433e+57
          1639.73910	         8.51823e+57
          1640.54540	         8.45044e+57
          1641.35170	         8.27421e+57
          1642.15800	         7.79600e+57
          1642.96430	         8.34674e+57
          1643.77060	         8.07867e+57
          1644.57690	         7.07079e+57
          1645.38320	         7.66423e+57
          1646.18950	         7.77787e+57
          1646.99580	         9.01988e+57
          1647.80210	         8.49918e+57
          1648.60840	         7.93761e+57
          1649.41470	         8.62730e+57
          1650.22100	         7.85229e+57
          1651.02730	         6.91766e+57
          1651.83360	         7.18641e+57
          1652.63990	         7.93238e+57
          1653.44620	         8.85601e+57
          1654.25250	         7.65949e+57
          1655.05880	         7.13835e+57
          1655.86510	         7.84290e+57
          1656.67140	         8.09557e+57
          1657.47770	         7.64122e+57
          1658.28400	         7.67682e+57
          1659.09030	         8.77545e+57
          1659.89660	         8.53287e+57
          1660.70290	         8.55016e+57
          1661.50920	         9.28356e+57
          1662.31550	         8.40542e+57
          1663.12180	         7.31821e+57
          1663.92810	         8.85838e+57
          1664.73440	         1.07555e+58
          1665.54070	         1.19539e+58
          1666.34700	         1.14562e+58
          1667.15330	         1.05622e+58
          1667.95960	         8.58062e+57
          1668.76590	         7.18253e+57
          1669.57220	         6.38116e+57
          1670.37850	         6.78412e+57
          1671.18480	         7.44261e+57
          1671.99110	         8.29654e+57
          1672.79740	         7.16623e+57
          1673.60370	         6.36115e+57
          1674.41000	         7.40989e+57
          1675.21630	         6.60962e+57
          1676.02260	         5.87850e+57
          1676.82890	         6.17234e+57
          1677.63520	         5.74283e+57
          1678.44150	         6.15953e+57
          1679.24780	         8.03421e+57
          1680.05410	         7.08719e+57
          1680.86040	         6.45139e+57
          1681.66670	         7.77125e+57
          1682.47300	         8.84370e+57
          1683.27930	         8.57235e+57
          1684.08560	         9.33765e+57
          1684.89190	         7.65594e+57
          1685.69820	         5.51163e+57
          1686.50450	         5.96952e+57
          1687.31080	         6.54916e+57
          1688.11710	         6.21597e+57
          1688.92340	         5.69444e+57
          1689.72970	         5.97320e+57
          1690.53600	         7.10920e+57
          1691.34230	         8.24108e+57
          1692.14860	         8.48652e+57
          1692.95490	         8.15363e+57
          1693.76120	         7.87337e+57
          1694.56750	         7.42417e+57
          1695.37380	         6.95572e+57
          1696.18010	         7.12839e+57
          1696.98640	         8.01676e+57
          1697.79270	         7.86608e+57
          1698.59900	         7.47148e+57
          1699.40530	         6.36999e+57
          1700.21160	         7.30470e+57
          1701.01790	         8.45780e+57
          1701.82420	         6.68574e+57
          1702.63050	         6.16440e+57
          1703.43680	         7.66690e+57
          1704.24310	         8.32185e+57
          1705.04940	         9.62682e+57
          1705.85570	         8.51903e+57
          1706.66200	         8.36743e+57
          1707.46830	         8.29669e+57
          1708.27460	         7.32307e+57
          1709.08090	         6.58293e+57
          1709.88720	         6.81629e+57
          1710.69350	         6.87465e+57
          1711.49980	         6.94220e+57
          1712.30610	         7.10440e+57
          1713.11240	         8.62974e+57
          1713.91870	         7.64801e+57
          1714.72500	         7.47597e+57
          1715.53130	         8.07780e+57
          1716.33760	         7.64953e+57
          1717.14390	         6.72906e+57
          1717.95020	         8.39860e+57
          1718.75650	         8.35048e+57
          1719.56280	         8.16782e+57
          1720.36910	         7.19129e+57
          1721.17540	         7.06215e+57
          1721.98170	         5.96197e+57
          1722.78800	         6.29975e+57
          1723.59430	         6.27906e+57
          1724.40060	         7.65755e+57
          1725.20690	         8.24730e+57
          1726.01320	         8.47208e+57
          1726.81950	         8.48445e+57
          1727.62580	         7.59108e+57
          1728.43210	         7.25366e+57
          1729.23840	         7.50579e+57
          1730.04470	         8.21520e+57
          1730.85100	         8.71412e+57
          1731.65730	         8.14087e+57
          1732.46360	         7.72602e+57
          1733.26990	         6.94643e+57
          1734.07620	         6.78989e+57
          1734.88250	         7.49443e+57
          1735.68880	         7.66106e+57
          1736.49510	         7.68193e+57
          1737.30140	         7.31051e+57
          1738.10770	         6.52568e+57
          1738.91400	         6.70290e+57
          1739.72030	         6.35281e+57
          1740.52660	         5.99952e+57
          1741.33290	         5.58465e+57
          1742.13920	         5.73205e+57
          1742.94550	         6.56127e+57
          1743.75180	         6.45428e+57
          1744.55810	         6.18117e+57
          1745.36440	         6.16097e+57
          1746.17070	         5.41627e+57
          1746.97700	         5.11220e+57
          1747.78330	         6.80221e+57
          1748.58960	         6.99736e+57
          1749.39590	         6.05901e+57
          1750.20220	         6.34537e+57
          1751.00850	         6.05568e+57
          1751.81480	         5.30171e+57
          1752.62110	         6.63320e+57
          1753.42740	         8.18039e+57
          1754.23370	         7.49829e+57
          1755.04000	         6.44970e+57
          1755.84630	         7.07958e+57
          1756.65260	         7.95827e+57
          1757.45890	         9.11083e+57
          1758.26520	         8.50153e+57
          1759.07150	         8.47849e+57
          1759.87780	         6.95375e+57
          1760.68410	         6.73774e+57
          1761.49040	         7.78247e+57
          1762.29670	         6.40849e+57
          1763.10300	         7.17598e+57
          1763.90930	         7.32929e+57
          1764.71560	         7.25203e+57
          1765.52190	         7.75009e+57
          1766.32820	         8.39857e+57
          1767.13450	         8.48890e+57
          1767.94080	         6.20736e+57
          1768.74710	         5.61385e+57
          1769.55340	         7.17375e+57
          1770.35970	         7.36057e+57
          1771.16600	         7.91710e+57
          1771.97230	         8.16751e+57
          1772.77860	         8.62509e+57
          1773.58490	         7.99378e+57
          1774.39120	         6.16647e+57
          1775.19750	         5.80571e+57
          1776.00380	         5.89272e+57
          1776.81010	         6.07489e+57
          1777.61640	         6.33902e+57
          1778.42270	         6.93173e+57
          1779.22900	         6.82304e+57
          1780.03530	         5.97634e+57
          1780.84160	         6.83981e+57
          1781.64790	         9.12958e+57
          1782.45420	         7.40667e+57
          1783.26050	         5.53008e+57
          1784.06680	         6.68666e+57
          1784.87310	         7.90262e+57
          1785.67940	         7.85328e+57
          1786.48570	         6.90033e+57
          1787.29200	         6.17492e+57
          1788.09830	         5.88881e+57
          1788.90460	         4.89298e+57
          1789.71090	         4.29578e+57
          1790.51720	         5.08952e+57
          1791.32350	         6.37239e+57
          1792.12980	         7.64916e+57
          1792.93610	         6.88241e+57
          1793.74240	         6.62049e+57
          1794.54870	         7.81212e+57
          1795.35500	         8.56859e+57
          1796.16130	         7.86820e+57
          1796.96760	         7.03600e+57
          1797.77390	         7.16208e+57
          1798.58020	         6.85675e+57
          1799.38650	         7.47825e+57
          1800.19280	         7.10940e+57
          1800.99910	         7.96881e+57
          1801.80540	         7.50672e+57
          1802.61170	         7.98954e+57
          1803.41800	         7.90607e+57
          1804.22430	         7.08074e+57
          1805.03060	         6.82185e+57
          1805.83690	         7.96089e+57
          1806.64320	         8.17388e+57
          1807.44950	         7.57726e+57
          1808.25580	         7.20781e+57
          1809.06210	         6.89385e+57
          1809.86840	         6.53084e+57
          1810.67470	         6.81219e+57
          1811.48100	         7.91101e+57
          1812.28730	         8.34702e+57
          1813.09360	         7.79479e+57
          1813.89990	         7.98114e+57
          1814.70620	         7.32106e+57
          1815.51250	         7.60227e+57
          1816.31880	         7.97126e+57
          1817.12510	         7.06955e+57
          1817.93140	         5.90148e+57
          1818.73770	         7.12560e+57
          1819.54400	         8.05102e+57
          1820.35030	         7.23820e+57
          1821.15660	         5.84771e+57
          1821.96290	         6.69501e+57
          1822.76920	         7.16273e+57
          1823.57550	         7.23753e+57
          1824.38180	         7.17987e+57
          1825.18810	         8.22706e+57
          1825.99440	         9.08692e+57
          1826.80070	         7.84309e+57
          1827.60700	         6.40659e+57
          1828.41330	         5.45356e+57
          1829.21960	         6.13239e+57
          1830.02590	         6.84099e+57
          1830.83220	         6.56424e+57
          1831.63850	         6.00424e+57
          1832.44480	         6.76461e+57
          1833.25110	         7.87764e+57
          1834.05740	         8.26464e+57
          1834.86370	         7.09913e+57
          1835.67000	         5.68130e+57
          1836.47630	         6.28169e+57
          1837.28260	         7.57125e+57
          1838.08890	         8.20186e+57
          1838.89520	         9.07452e+57
          1839.70150	         8.39332e+57
          1840.50780	         7.89882e+57
          1841.31410	         7.41708e+57
          1842.12040	         7.02916e+57
          1842.92670	         6.55345e+57
          1843.73300	         6.69182e+57
          1844.53930	         7.55733e+57
          1845.34560	         7.19592e+57
          1846.15190	         7.38928e+57
          1846.95820	         7.59570e+57
          1847.76450	         7.44466e+57
          1848.57080	         6.90130e+57
          1849.37710	         6.59538e+57
          1850.18340	         7.30186e+57
          1850.98970	         7.60971e+57
          1851.79600	         7.48383e+57
          1852.60230	         6.23398e+57
          1853.40860	         5.71027e+57
          1854.21490	         6.78313e+57
          1855.02120	         5.97456e+57
          1855.82750	         4.71633e+57
          1856.63380	         6.63882e+57
          1857.44010	         7.40669e+57
          1858.24640	         7.47097e+57
          1859.05270	         7.06991e+57
          1859.85900	         6.41322e+57
          1860.66530	         5.82602e+57
          1861.47160	         6.31101e+57
          1862.27790	         7.21261e+57
          1863.08420	         7.72045e+57
          1863.89050	         7.79503e+57
          1864.69680	         7.53953e+57
          1865.50310	         7.69079e+57
          1866.30940	         6.89334e+57
          1867.11570	         6.45422e+57
          1867.92200	         7.28855e+57
          1868.72830	         6.90256e+57
          1869.53460	         7.36835e+57
          1870.34090	         7.41199e+57
          1871.14720	         7.59415e+57
          1871.95350	         6.88524e+57
          1872.75980	         6.18508e+57
          1873.56610	         5.85836e+57
          1874.37240	         5.64483e+57
          1875.17870	         6.20958e+57
          1875.98500	         7.51571e+57
          1876.79130	         7.33559e+57
          1877.59760	         6.63257e+57
          1878.40390	         5.97363e+57
          1879.21020	         5.27586e+57
          1880.01650	         6.34562e+57
          1880.82280	         8.16206e+57
          1881.62910	         7.99228e+57
          1882.43540	         9.48923e+57
          1883.24170	         6.65230e+57
          1884.04800	         5.80894e+57
          1884.85430	         7.36148e+57
          1885.66060	         7.70834e+57
          1886.46690	         7.65710e+57
          1887.27320	         7.90209e+57
          1888.07950	         7.23642e+57
          1888.88580	         7.41061e+57
          1889.69210	         8.59679e+57
          1890.49840	         7.84532e+57
          1891.30470	         6.78612e+57
          1892.11100	         8.21731e+57
          1892.91730	         7.75142e+57
          1893.72360	         7.88206e+57
          1894.52990	         7.47027e+57
          1895.33620	         7.59080e+57
          1896.14250	         6.65324e+57
          1896.94880	         5.78756e+57
          1897.75510	         4.12142e+57
          1898.56140	         6.08555e+57
          1899.36770	         7.72992e+57
          1900.17400	         6.73432e+57
          1900.98030	         6.01433e+57
          1901.78660	         6.41128e+57
          1902.59290	         7.15010e+57
          1903.39920	         8.20246e+57
          1904.20550	         8.90217e+57
          1905.01180	         8.97480e+57
          1905.81810	         9.52605e+57
          1906.62440	         1.26062e+58
          1907.43070	         1.58713e+58
          1908.23700	         1.49470e+58
          1909.04330	         1.22778e+58
          1909.84960	         1.07584e+58
          1910.65590	         1.02414e+58
          1911.46220	         9.11993e+57
          1912.26850	         7.37675e+57
          1913.07480	         6.19038e+57
          1913.88110	         6.12182e+57
          1914.68740	         5.92136e+57
          1915.49370	         5.64570e+57
          1916.30000	         5.77561e+57
          1917.10630	         6.79607e+57
          1917.91260	         6.61312e+57
          1918.71890	         6.60096e+57
          1919.52520	         6.69014e+57
          1920.33150	         5.81916e+57
          1921.13780	         6.72479e+57
          1921.94410	         7.75347e+57
          1922.75040	         7.72957e+57
          1923.55670	         7.53348e+57
          1924.36300	         7.45656e+57
          1925.16930	         6.39652e+57
          1925.97560	         5.40170e+57
          1926.78190	         4.95948e+57
          1927.58820	         5.94707e+57
          1928.39450	         6.13321e+57
          1929.20080	         4.18588e+57
          1930.00710	         6.29094e+57
          1930.81340	         7.32686e+57
          1931.61970	         5.87228e+57
          1932.42600	         6.18654e+57
          1933.23230	         7.53151e+57
          1934.03860	         7.76687e+57
          1934.84490	         6.37144e+57
          1935.65120	         8.41081e+57
          1936.45750	         9.12851e+57
          1937.26380	         7.36261e+57
          1938.07010	         7.53608e+57
          1938.87640	         6.98472e+57
          1939.68270	         6.65480e+57
          1940.48900	         8.25827e+57
          1941.29530	         8.69512e+57
          1942.10160	         8.01150e+57
          1942.90790	         7.32835e+57
          1943.71420	         6.11410e+57
          1944.52050	         6.29045e+57
          1945.32680	         5.33972e+57
          1946.13310	         7.44123e+57
          1946.93940	         8.60719e+57
          1947.74570	         7.15437e+57
          1948.55200	         5.99317e+57
          1949.35830	         6.40909e+57
          1950.16460	         5.27409e+57
          1950.97090	         4.80009e+57
          1951.77720	         6.69419e+57
          1952.58350	         9.04907e+57
          1953.38980	         6.30807e+57
          1954.19610	         3.10766e+57
          1955.00240	         4.77063e+57
          1955.80870	         5.72354e+57
          1956.61500	         6.42989e+57
          1957.42130	         5.99565e+57
          1958.22760	         6.21435e+57
          1959.03390	         6.96268e+57
          1959.84020	         7.33165e+57
          1960.64650	         7.03222e+57
          1961.45280	         5.73925e+57
          1962.25910	         5.71147e+57
          1963.06540	         5.57797e+57
          1963.87170	         5.72043e+57
          1964.67800	         7.29694e+57
          1965.48430	         7.07972e+57
          1966.29060	         6.54399e+57
          1967.09690	         7.09395e+57
          1967.90320	         7.07682e+57
          1968.70950	         5.91950e+57
          1969.51580	         4.94621e+57
          1970.32210	         6.38387e+57
          1971.12840	         6.95894e+57
          1971.93470	         4.47749e+57
          1972.74100	         4.25845e+57
          1973.54730	         6.55469e+57
          1974.35360	         7.63596e+57
          1975.15990	         7.66632e+57
          1975.96620	         7.84895e+57
          1976.77250	         8.17942e+57
          1977.57880	         7.07751e+57
          1978.38510	         5.59676e+57
          1979.19140	         6.14729e+57
          1979.99770	         6.86891e+57
          1980.80400	         7.70360e+57
          1981.61030	         7.22873e+57
          1982.41660	         5.19397e+57
          1983.22290	         5.59876e+57
          1984.02920	         5.26060e+57
          1984.83550	         6.20680e+57
          1985.64180	         6.69922e+57
          1986.44810	         6.79365e+57
          1987.25440	         5.41422e+57
          1988.06070	         4.67797e+57
          1988.86700	         6.33643e+57
          1989.67330	         6.70803e+57
          1990.47960	         6.53968e+57
          1991.28590	         6.37170e+57
          1992.09220	         5.98154e+57
          1992.89850	         5.96992e+57
          1993.70480	         5.76276e+57
          1994.51110	         4.63207e+57
          1995.31740	         4.41732e+57
          1996.12370	         4.50222e+57
          1996.93000	         5.14727e+57
          1997.73630	         6.86218e+57
          1998.54260	         6.67088e+57
          1999.34890	         6.42064e+57
          2000.15520	         6.20024e+57
          2000.96150	         6.51034e+57
          2001.76780	         5.61890e+57
          2002.57410	         4.61209e+57
          2003.38040	         5.11408e+57
          2004.18670	         5.95123e+57
          2004.99300	         6.10522e+57
          2005.79930	         6.83909e+57
          2006.60560	         6.47509e+57
          2007.41190	         6.05000e+57
          2008.21820	         6.31201e+57
          2009.02450	         6.52941e+57
          2009.83080	         6.07712e+57
          2010.63710	         6.42689e+57
          2011.44340	         6.89617e+57
          2012.24970	         7.31029e+57
          2013.05600	         6.91502e+57
          2013.86230	         6.65181e+57
          2014.66860	         4.65200e+57
          2015.47490	         5.76600e+57
          2016.28120	         6.22572e+57
          2017.08750	         6.41606e+57
          2017.89380	         6.10657e+57
          2018.70010	         6.05032e+57
          2019.50640	         6.46869e+57
          2020.31270	         7.24699e+57
          2021.11900	         7.45291e+57
          2021.92530	         7.62468e+57
          2022.73160	         5.82271e+57
          2023.53790	         5.99388e+57
          2024.34420	         5.87739e+57
          2025.15050	         6.36111e+57
          2025.95680	         6.03050e+57
          2026.76310	         6.37488e+57
          2027.56940	         6.27015e+57
          2028.37570	         6.66972e+57
          2029.18200	         6.70153e+57
          2029.98830	         5.52805e+57
          2030.79460	         6.41754e+57
          2031.60090	         5.95982e+57
          2032.40720	         6.31256e+57
          2033.21350	         5.53902e+57
          2034.01980	         4.67269e+57
          2034.82610	         4.33253e+57
          2035.63240	         5.08557e+57
          2036.43870	         5.64793e+57
          2037.24500	         6.45694e+57
          2038.05130	         6.27829e+57
          2038.85760	         5.94287e+57
          2039.66390	         6.43531e+57
          2040.47020	         5.71491e+57
          2041.27650	         6.66474e+57
          2042.08280	         6.15716e+57
          2042.88910	         6.11395e+57
          2043.69540	         7.07326e+57
          2044.50170	         6.13690e+57
          2045.30800	         5.84138e+57
          2046.11430	         4.99400e+57
          2046.92060	         6.25345e+57
          2047.72690	         5.85658e+57
          2048.53320	         4.36782e+57
          2049.33950	         3.68542e+57
          2050.14580	         5.78337e+57
          2050.95210	         5.92724e+57
          2051.75840	         6.31512e+57
          2052.56470	         5.47213e+57
          2053.37100	         3.20874e+57
          2054.17730	         4.46505e+57
          2054.98360	         5.44938e+57
          2055.78990	         4.54315e+57
          2056.59620	         3.93065e+57
          2057.40250	         5.24192e+57
          2058.20880	         6.38402e+57
          2059.01510	         6.10812e+57
          2059.82140	         5.76758e+57
          2060.62770	         9.48926e+57
          2061.43400	         1.72158e+58
          2062.24030	         1.39550e+58
          2063.04660	         5.02386e+57
          2063.85290	         1.39628e+57
          2064.65920	        -1.53291e+57
          2065.46550	        -7.19375e+57
          2066.27180	        -9.28746e+57
          2067.07810	         3.79480e+57
          2067.88440	         5.29183e+57
          2068.69070	         7.39879e+57
          2069.49700	         6.66008e+57
          2070.30330	         4.29348e+57
          2071.10960	         6.52165e+57
          2071.91590	         6.08260e+57
          2072.72220	         3.87984e+57
          2073.52850	         5.29414e+57
          2074.33480	         4.15436e+57
          2075.14110	         4.80467e+57
          2075.94740	         4.75774e+57
          2076.75370	         5.07063e+57
          2077.56000	         4.66160e+57
          2078.36630	         5.50833e+57
          2079.17260	         5.73118e+57
          2079.97890	         5.78452e+57
          2080.78520	         5.03457e+57
          2081.59150	         6.05342e+57
          2082.39780	         5.03020e+57
          2083.20410	         2.30928e+57
          2084.01040	         2.46635e+57
          2084.81670	         3.51570e+57
          2085.62300	         2.78491e+57
          2086.42930	         3.26870e+57
          2087.23560	         4.30183e+57
          2088.04190	         4.46093e+57
          2088.84820	         2.03524e+57
          2089.65450	         2.20272e+57
          2090.46080	         2.28219e+57
          2091.26710	         2.86585e+57
          2092.07340	         2.82603e+57
          2092.87970	         2.07023e+57
          2093.68600	        -3.08666e+56
          2094.49230	        -7.90623e+56
          2095.29860	         4.28387e+57
          2096.10490	         2.46997e+57
          2096.91120	         1.20728e+57
          2097.71750	         1.10789e+57
          2098.52380	         8.36154e+56
          2099.33010	         6.02947e+56
          2100.13640	         1.25659e+57
          2100.94270	         2.44820e+57
          2101.74900	         2.99479e+57
          2102.55530	         2.45703e+57
          2103.36160	         3.08835e+57
          2104.16790	         2.79408e+57
          2104.97420	         1.23161e+57
          2105.78050	         3.07866e+57
          2106.58680	         1.55900e+57
          2107.39310	        -5.15093e+56
          2108.19940	         1.69648e+57
          2109.00570	        -7.53292e+55
          2109.81200	         5.67078e+55
          2110.61830	         1.75535e+57
          2111.42460	         3.15690e+57
          2112.23090	         3.87605e+57
          2113.03720	         6.16277e+56
          2113.84350	        -1.40668e+57
          2114.64980	         3.56130e+57
          2115.45610	         8.28218e+56
          2116.26240	        -2.73887e+57
          2117.06870	        -6.99000e+56
          2117.87500	        -2.50066e+57
          2118.68130	        -2.04211e+57
          2119.48760	         1.52841e+57
          2120.29390	         1.41234e+57
          2121.10020	        -3.70521e+57
          2121.90650	        -4.48251e+56
          2122.71280	         4.72651e+56
          2123.51910	         3.43777e+57
          2124.32540	         3.31671e+57
          2125.13170	        -6.48943e+56
          2125.93800	         1.56375e+57
          2126.74430	        -4.54950e+57
          2127.55060	        -6.59701e+57
          2128.35690	        -2.44006e+57
          2129.16320	        -7.13371e+57
          2129.96950	        -9.21543e+56
          2130.77580	         4.37709e+56
          2131.58210	         5.29694e+57
          2132.38840	         2.31723e+57
          2133.19470	        -3.04546e+57
          2134.00100	        -5.63223e+56
          2134.80730	        -8.48639e+57
          2135.61360	        -3.59764e+57
          2136.41990	        -2.19015e+57
          2137.22620	         1.93344e+57
          2138.03250	         3.48766e+57
          2138.83880	         2.16079e+56
          2139.64510	        -2.00074e+57
          2140.45140	        -6.15847e+57
          2141.25770	        -5.46448e+57
          2142.06400	        -5.61445e+57
          2142.87030	         5.41933e+57
          2143.67660	         5.71335e+57
          2144.48290	         8.67023e+57
          2145.28920	         7.86362e+57
          2146.09550	        -6.03340e+57
          2146.90180	        -8.52635e+57
          2147.70810	        -6.86854e+56
          2148.51440	        -4.31064e+57
          2149.32070	        -5.08487e+57
          2150.12700	        -5.68313e+57
          2150.93330	        -4.62793e+57
          2151.73960	        -1.45736e+57
          2152.54590	        -2.57435e+57
          2153.35220	        -2.23546e+57
          2154.15850	        -1.07657e+58
          2154.96480	        -8.55849e+57
          2155.77110	        -7.70970e+57
          2156.57740	        -1.50295e+58
          2157.38370	        -3.98749e+57
          2158.19000	        -5.65614e+57
          2158.99630	        -4.55421e+57
          2159.80260	        -1.04670e+58
          2160.60890	        -7.08215e+57
          2161.41520	        -1.33657e+57
          2162.22150	         3.65837e+57
          2163.02780	        -3.81787e+57
          2163.83410	        -8.84078e+57
          2164.64040	        -5.71097e+57
          2165.44670	        -5.60085e+57
          2166.25300	        -1.75092e+58
          2167.05930	        -1.01113e+58
          2167.86560	        -1.93999e+58
          2168.67190	        -7.54019e+57
          2169.47820	         2.28790e+57
          2170.28450	        -9.92916e+57
          2171.09080	        -4.75449e+57
          2171.89710	         1.84721e+57
          2172.70340	         6.82144e+57
          2173.50970	        -5.43549e+57
          2174.31600	        -1.47616e+58
          2175.12230	         2.60693e+57
          2175.92860	        -1.75180e+56
          2176.73490	        -2.07582e+57
          2177.54120	        -3.48415e+56
          2178.34750	        -4.16651e+57
          2179.15380	                 nan
          2179.96010	                 nan
          2180.76640	                 nan
          2181.57270	                 nan
          2182.37900	                 nan
          2183.18530	                 nan
          2183.99160	                 nan
          2184.79790	                 nan
          2185.60420	                 nan
          2186.41050	                 nan
          2187.21680	                 nan
          2188.02310	                 nan
          2188.82940	                 nan
          2189.63570	                 nan
          2190.44200	                 nan
          2191.24830	                 nan
          2192.05460	                 nan
          2192.86090	                 nan
          2193.66720	                 nan
          2194.47350	                 nan
          2195.27980	                 nan
          2196.08610	                 nan
          2196.89240	                 nan
          2197.69870	                 nan
          2198.50500	                 nan
          2199.31130	                 nan
          2200.11760	                 nan
          2200.92390	                 nan
          2201.73020	                 nan
          2202.53650	                 nan
          2203.34280	                 nan
          2204.14910	                 nan
          2204.95540	                 nan
          2205.76170	                 nan
          2206.56800	                 nan
          2207.37430	                 nan
          2208.18060	                 nan
          2208.98690	                 nan
          2209.79320	                 nan
          2210.59950	                 nan
          2211.40580	                 nan
          2212.21210	                 nan
          2213.01840	                 nan
          2213.82470	                 nan
          2214.63100	                 nan
          2215.43730	         0.00000e+00
