#sample_498_stacked_spectrum_rest_UV-bands_median_H-alpha_noDC.txt
#median Lum: 1.70396e+42
#Rest-frame wavelength (A) | Luminosity (erg/s/A)
#
          1110.00000	         0.00000e+00
          1110.80630	         4.11731e+59
          1111.61260	         1.90081e+58
          1112.41890	        -4.11602e+58
          1113.22520	        -1.24486e+59
          1114.03150	        -6.44272e+58
          1114.83780	         9.67501e+58
          1115.64410	         1.64439e+59
          1116.45040	         1.20365e+59
          1117.25670	         1.12090e+59
          1118.06300	         5.91165e+58
          1118.86930	        -3.28224e+58
          1119.67560	         1.48101e+58
          1120.48190	        -4.20283e+58
          1121.28820	        -1.26465e+59
          1122.09450	        -1.04353e+58
          1122.90080	         3.54942e+58
          1123.70710	         7.65104e+58
          1124.51340	         1.24284e+59
          1125.31970	         4.40863e+58
          1126.12600	        -1.67346e+58
          1126.93230	        -5.12468e+58
          1127.73860	        -6.51573e+58
          1128.54490	        -1.56614e+58
          1129.35120	        -3.92467e+58
          1130.15750	        -4.31062e+58
          1130.96380	        -2.22967e+58
          1131.77010	         3.26211e+58
          1132.57640	         7.11103e+57
          1133.38270	         3.41247e+58
          1134.18900	         1.82345e+58
          1134.99530	         1.69707e+58
          1135.80160	         3.87968e+58
          1136.60790	         1.25132e+58
          1137.41420	        -2.50097e+58
          1138.22050	         1.52233e+58
          1139.02680	         1.99515e+58
          1139.83310	         1.86464e+58
          1140.63940	         2.25137e+58
          1141.44570	        -2.56194e+58
          1142.25200	        -7.29689e+57
          1143.05830	         1.30720e+58
          1143.86460	         2.57070e+58
          1144.67090	         1.95175e+58
          1145.47720	        -1.52167e+57
          1146.28350	         2.42876e+58
          1147.08980	         1.41781e+58
          1147.89610	         1.92023e+58
          1148.70240	         2.23539e+58
          1149.50870	         2.29266e+58
          1150.31500	         5.43292e+57
          1151.12130	         8.59251e+57
          1151.92760	         2.97077e+57
          1152.73390	         4.94366e+57
          1153.54020	         1.71353e+57
          1154.34650	         2.02455e+58
          1155.15280	         1.53240e+58
          1155.95910	        -3.87157e+57
          1156.76540	         2.82070e+57
          1157.57170	         2.78944e+57
          1158.37800	         5.17475e+57
          1159.18430	         3.43855e+57
          1159.99060	         2.64857e+57
          1160.79690	         2.88032e+57
          1161.60320	         8.77164e+57
          1162.40950	         1.90520e+58
          1163.21580	         2.01152e+58
          1164.02210	         1.42450e+58
          1164.82840	         9.04726e+57
          1165.63470	         2.10848e+58
          1166.44100	         3.13177e+58
          1167.24730	         2.23049e+58
          1168.05360	         9.85296e+57
          1168.85990	         1.53342e+58
          1169.66620	         1.43256e+58
          1170.47250	         8.75393e+57
          1171.27880	         2.60450e+57
          1172.08510	         1.17720e+58
          1172.89140	         1.36534e+58
          1173.69770	         8.45647e+57
          1174.50400	         1.01801e+58
          1175.31030	         1.73325e+58
          1176.11660	         1.41811e+58
          1176.92290	         1.13164e+58
          1177.72920	         1.15226e+58
          1178.53550	         5.79518e+57
          1179.34180	         4.06442e+57
          1180.14810	         7.37192e+57
          1180.95440	         5.62784e+57
          1181.76070	         2.92494e+57
          1182.56700	         3.02609e+57
          1183.37330	         5.22592e+57
          1184.17960	         1.23058e+58
          1184.98590	         9.14858e+57
          1185.79220	         6.45612e+57
          1186.59850	         8.78048e+57
          1187.40480	         9.46717e+57
          1188.21110	         1.49443e+58
          1189.01740	         8.85831e+57
          1189.82370	         1.06009e+58
          1190.63000	         1.12839e+58
          1191.43630	         9.35434e+57
          1192.24260	         7.59668e+57
          1193.04890	         1.50923e+58
          1193.85520	         1.46221e+58
          1194.66150	         9.97814e+57
          1195.46780	         1.01774e+58
          1196.27410	         1.57948e+58
          1197.08040	         1.29912e+58
          1197.88670	         1.30985e+58
          1198.69300	         1.64794e+58
          1199.49930	         1.45060e+58
          1200.30560	         8.25429e+57
          1201.11190	         7.62794e+57
          1201.91820	         6.95873e+57
          1202.72450	         8.44439e+57
          1203.53080	         1.30775e+58
          1204.33710	         5.88011e+57
          1205.14340	         6.56714e+57
          1205.94970	         4.01245e+57
          1206.75600	         7.81381e+57
          1207.56230	         4.58626e+57
          1208.36860	         6.22297e+57
          1209.17490	         1.78435e+57
          1209.98120	         5.84010e+57
          1210.78750	         1.15695e+58
          1211.59380	         1.29588e+58
          1212.40010	         1.87971e+58
          1213.20640	         2.13146e+58
          1214.01270	         2.29130e+58
          1214.81900	         2.48009e+58
          1215.62530	         4.70423e+58
          1216.43160	         9.22373e+58
          1217.23790	         1.49732e+59
          1218.04420	         1.11935e+59
          1218.85050	         8.24882e+58
          1219.65680	         5.18444e+58
          1220.46310	         3.20752e+58
          1221.26940	         2.16223e+58
          1222.07570	         1.34315e+58
          1222.88200	         1.48705e+58
          1223.68830	         1.19890e+58
          1224.49460	         8.72761e+57
          1225.30090	         5.75267e+57
          1226.10720	         5.28599e+57
          1226.91350	         6.36267e+57
          1227.71980	         7.56737e+57
          1228.52610	         1.00079e+58
          1229.33240	         6.66392e+57
          1230.13870	         8.57965e+57
          1230.94500	         9.49568e+57
          1231.75130	         5.41960e+57
          1232.55760	         7.22128e+57
          1233.36390	         9.48617e+57
          1234.17020	         9.33373e+57
          1234.97650	         5.62372e+57
          1235.78280	         7.43054e+57
          1236.58910	         7.87223e+57
          1237.39540	         8.28815e+57
          1238.20170	         8.36194e+57
          1239.00800	         1.29643e+58
          1239.81430	         1.49757e+58
          1240.62060	         9.68719e+57
          1241.42690	         9.64829e+57
          1242.23320	         1.23650e+58
          1243.03950	         8.71858e+57
          1243.84580	         9.68303e+57
          1244.65210	         1.03779e+58
          1245.45840	         9.37528e+57
          1246.26470	         8.56383e+57
          1247.07100	         7.77530e+57
          1247.87730	         4.71091e+57
          1248.68360	         5.28974e+57
          1249.48990	         8.78427e+57
          1250.29620	         9.78322e+57
          1251.10250	         6.35720e+57
          1251.90880	         4.31029e+57
          1252.71510	         7.57588e+57
          1253.52140	         8.83866e+57
          1254.32770	         1.10634e+58
          1255.13400	         1.27596e+58
          1255.94030	         1.21900e+58
          1256.74660	         1.09667e+58
          1257.55290	         9.85190e+57
          1258.35920	         7.92630e+57
          1259.16550	         7.09298e+57
          1259.97180	         7.18410e+57
          1260.77810	         7.85774e+57
          1261.58440	         9.63668e+57
          1262.39070	         8.54466e+57
          1263.19700	         9.03229e+57
          1264.00330	         8.66125e+57
          1264.80960	         1.02635e+58
          1265.61590	         1.14821e+58
          1266.42220	         1.01624e+58
          1267.22850	         1.08545e+58
          1268.03480	         1.21475e+58
          1268.84110	         1.30393e+58
          1269.64740	         1.29113e+58
          1270.45370	         1.39481e+58
          1271.26000	         1.14711e+58
          1272.06630	         1.16185e+58
          1272.87260	         1.22917e+58
          1273.67890	         1.26239e+58
          1274.48520	         1.26898e+58
          1275.29150	         1.29709e+58
          1276.09780	         1.13716e+58
          1276.90410	         1.28265e+58
          1277.71040	         1.34391e+58
          1278.51670	         1.23206e+58
          1279.32300	         1.39623e+58
          1280.12930	         1.34670e+58
          1280.93560	         1.11844e+58
          1281.74190	         1.16910e+58
          1282.54820	         1.17049e+58
          1283.35450	         9.47073e+57
          1284.16080	         1.05199e+58
          1284.96710	         1.22632e+58
          1285.77340	         1.14821e+58
          1286.57970	         1.14247e+58
          1287.38600	         1.42452e+58
          1288.19230	         1.58708e+58
          1288.99860	         1.38754e+58
          1289.80490	         9.78280e+57
          1290.61120	         1.16416e+58
          1291.41750	         1.29072e+58
          1292.22380	         1.19074e+58
          1293.03010	         9.83968e+57
          1293.83640	         1.02342e+58
          1294.64270	         9.71179e+57
          1295.44900	         7.66047e+57
          1296.25530	         7.82549e+57
          1297.06160	         9.51789e+57
          1297.86790	         9.46519e+57
          1298.67420	         7.82116e+57
          1299.48050	         8.84860e+57
          1300.28680	         1.13967e+58
          1301.09310	         9.15906e+57
          1301.89940	         4.37990e+57
          1302.70570	         5.51317e+57
          1303.51200	         7.34578e+57
          1304.31830	         1.02992e+58
          1305.12460	         1.09694e+58
          1305.93090	         9.02674e+57
          1306.73720	         1.05128e+58
          1307.54350	         1.34437e+58
          1308.34980	         1.43622e+58
          1309.15610	         1.55018e+58
          1309.96240	         1.51803e+58
          1310.76870	         1.34301e+58
          1311.57500	         1.26964e+58
          1312.38130	         1.05207e+58
          1313.18760	         1.05471e+58
          1313.99390	         1.31951e+58
          1314.80020	         1.41117e+58
          1315.60650	         1.24533e+58
          1316.41280	         1.07375e+58
          1317.21910	         9.72499e+57
          1318.02540	         1.15258e+58
          1318.83170	         1.38734e+58
          1319.63800	         1.36437e+58
          1320.44430	         1.14898e+58
          1321.25060	         1.25516e+58
          1322.05690	         1.17028e+58
          1322.86320	         1.07299e+58
          1323.66950	         1.01308e+58
          1324.47580	         8.01921e+57
          1325.28210	         9.17638e+57
          1326.08840	         1.18415e+58
          1326.89470	         1.20637e+58
          1327.70100	         1.05813e+58
          1328.50730	         8.02427e+57
          1329.31360	         9.37001e+57
          1330.11990	         1.03218e+58
          1330.92620	         8.42768e+57
          1331.73250	         9.52341e+57
          1332.53880	         9.89000e+57
          1333.34510	         9.47417e+57
          1334.15140	         9.50188e+57
          1334.95770	         8.57911e+57
          1335.76400	         1.03320e+58
          1336.57030	         1.16089e+58
          1337.37660	         9.89734e+57
          1338.18290	         1.11679e+58
          1338.98920	         1.28189e+58
          1339.79550	         1.01164e+58
          1340.60180	         9.96059e+57
          1341.40810	         1.29263e+58
          1342.21440	         1.10508e+58
          1343.02070	         1.07275e+58
          1343.82700	         1.18766e+58
          1344.63330	         1.26316e+58
          1345.43960	         1.35783e+58
          1346.24590	         1.19495e+58
          1347.05220	         1.23141e+58
          1347.85850	         9.52052e+57
          1348.66480	         1.00027e+58
          1349.47110	         1.27599e+58
          1350.27740	         1.04378e+58
          1351.08370	         1.09228e+58
          1351.89000	         1.10561e+58
          1352.69630	         1.11757e+58
          1353.50260	         1.02504e+58
          1354.30890	         1.12347e+58
          1355.11520	         1.27224e+58
          1355.92150	         1.07177e+58
          1356.72780	         9.82016e+57
          1357.53410	         1.01075e+58
          1358.34040	         1.00410e+58
          1359.14670	         1.01096e+58
          1359.95300	         1.03743e+58
          1360.75930	         1.07960e+58
          1361.56560	         9.81952e+57
          1362.37190	         1.09421e+58
          1363.17820	         1.16225e+58
          1363.98450	         1.05583e+58
          1364.79080	         1.16788e+58
          1365.59710	         1.28688e+58
          1366.40340	         1.15074e+58
          1367.20970	         1.02752e+58
          1368.01600	         1.07548e+58
          1368.82230	         1.05978e+58
          1369.62860	         1.00649e+58
          1370.43490	         9.38283e+57
          1371.24120	         9.19475e+57
          1372.04750	         8.32252e+57
          1372.85380	         1.04900e+58
          1373.66010	         1.05405e+58
          1374.46640	         1.08778e+58
          1375.27270	         1.16003e+58
          1376.07900	         8.47764e+57
          1376.88530	         7.82148e+57
          1377.69160	         8.56218e+57
          1378.49790	         6.42349e+57
          1379.30420	         6.30147e+57
          1380.11050	         8.23894e+57
          1380.91680	         7.88236e+57
          1381.72310	         8.90722e+57
          1382.52940	         9.37653e+57
          1383.33570	         8.04155e+57
          1384.14200	         9.68375e+57
          1384.94830	         1.24503e+58
          1385.75460	         1.19732e+58
          1386.56090	         1.11510e+58
          1387.36720	         9.48715e+57
          1388.17350	         1.01489e+58
          1388.97980	         1.07524e+58
          1389.78610	         9.59570e+57
          1390.59240	         9.38125e+57
          1391.39870	         7.28073e+57
          1392.20500	         7.96912e+57
          1393.01130	         8.13637e+57
          1393.81760	         7.68632e+57
          1394.62390	         7.36183e+57
          1395.43020	         5.87661e+57
          1396.23650	         6.41142e+57
          1397.04280	         7.52675e+57
          1397.84910	         9.53411e+57
          1398.65540	         8.95655e+57
          1399.46170	         9.46202e+57
          1400.26800	         9.25646e+57
          1401.07430	         9.61421e+57
          1401.88060	         8.34372e+57
          1402.68690	         9.62632e+57
          1403.49320	         9.13466e+57
          1404.29950	         8.02850e+57
          1405.10580	         9.56871e+57
          1405.91210	         1.08113e+58
          1406.71840	         9.98856e+57
          1407.52470	         1.04032e+58
          1408.33100	         9.38408e+57
          1409.13730	         1.06965e+58
          1409.94360	         1.16659e+58
          1410.74990	         1.07529e+58
          1411.55620	         1.02308e+58
          1412.36250	         1.04957e+58
          1413.16880	         9.40878e+57
          1413.97510	         8.92759e+57
          1414.78140	         9.46169e+57
          1415.58770	         1.01080e+58
          1416.39400	         1.03937e+58
          1417.20030	         1.10928e+58
          1418.00660	         9.60443e+57
          1418.81290	         1.07538e+58
          1419.61920	         1.07080e+58
          1420.42550	         1.17039e+58
          1421.23180	         1.36964e+58
          1422.03810	         1.23437e+58
          1422.84440	         1.18852e+58
          1423.65070	         1.18459e+58
          1424.45700	         9.95408e+57
          1425.26330	         8.57019e+57
          1426.06960	         8.93753e+57
          1426.87590	         9.62403e+57
          1427.68220	         1.02437e+58
          1428.48850	         1.01224e+58
          1429.29480	         9.22782e+57
          1430.10110	         8.82520e+57
          1430.90740	         8.43398e+57
          1431.71370	         8.69368e+57
          1432.52000	         8.98768e+57
          1433.32630	         8.24532e+57
          1434.13260	         7.42583e+57
          1434.93890	         7.70763e+57
          1435.74520	         8.81251e+57
          1436.55150	         9.67306e+57
          1437.35780	         8.35185e+57
          1438.16410	         7.64010e+57
          1438.97040	         7.82915e+57
          1439.77670	         7.36029e+57
          1440.58300	         8.22672e+57
          1441.38930	         8.90828e+57
          1442.19560	         9.24022e+57
          1443.00190	         9.87763e+57
          1443.80820	         1.10293e+58
          1444.61450	         9.72323e+57
          1445.42080	         8.81794e+57
          1446.22710	         1.02030e+58
          1447.03340	         9.75785e+57
          1447.83970	         9.73824e+57
          1448.64600	         9.76060e+57
          1449.45230	         8.61108e+57
          1450.25860	         8.76364e+57
          1451.06490	         8.76730e+57
          1451.87120	         7.96163e+57
          1452.67750	         7.03474e+57
          1453.48380	         8.16669e+57
          1454.29010	         7.76348e+57
          1455.09640	         8.18598e+57
          1455.90270	         8.45413e+57
          1456.70900	         8.16922e+57
          1457.51530	         9.62859e+57
          1458.32160	         1.10693e+58
          1459.12790	         1.14632e+58
          1459.93420	         9.90481e+57
          1460.74050	         7.84221e+57
          1461.54680	         7.73385e+57
          1462.35310	         7.31681e+57
          1463.15940	         8.52786e+57
          1463.96570	         1.09325e+58
          1464.77200	         1.11501e+58
          1465.57830	         9.38553e+57
          1466.38460	         9.24704e+57
          1467.19090	         8.70322e+57
          1467.99720	         7.84298e+57
          1468.80350	         7.87568e+57
          1469.60980	         9.00980e+57
          1470.41610	         1.02820e+58
          1471.22240	         9.60711e+57
          1472.02870	         1.08842e+58
          1472.83500	         1.00587e+58
          1473.64130	         8.44892e+57
          1474.44760	         7.84117e+57
          1475.25390	         8.83393e+57
          1476.06020	         8.97657e+57
          1476.86650	         8.09677e+57
          1477.67280	         8.12951e+57
          1478.47910	         7.06203e+57
          1479.28540	         7.60914e+57
          1480.09170	         9.21648e+57
          1480.89800	         9.47085e+57
          1481.70430	         9.42122e+57
          1482.51060	         8.22028e+57
          1483.31690	         8.40517e+57
          1484.12320	         8.55818e+57
          1484.92950	         7.34681e+57
          1485.73580	         7.92555e+57
          1486.54210	         9.05814e+57
          1487.34840	         8.92540e+57
          1488.15470	         8.63635e+57
          1488.96100	         8.40156e+57
          1489.76730	         9.32760e+57
          1490.57360	         8.56952e+57
          1491.37990	         7.13384e+57
          1492.18620	         7.91923e+57
          1492.99250	         8.86496e+57
          1493.79880	         8.68811e+57
          1494.60510	         9.03928e+57
          1495.41140	         7.58387e+57
          1496.21770	         8.04597e+57
          1497.02400	         1.00760e+58
          1497.83030	         8.44312e+57
          1498.63660	         6.64113e+57
          1499.44290	         6.58078e+57
          1500.24920	         7.26326e+57
          1501.05550	         8.77549e+57
          1501.86180	         8.28948e+57
          1502.66810	         8.92303e+57
          1503.47440	         1.05459e+58
          1504.28070	         9.31512e+57
          1505.08700	         9.42853e+57
          1505.89330	         1.02560e+58
          1506.69960	         9.13060e+57
          1507.50590	         8.11174e+57
          1508.31220	         8.23523e+57
          1509.11850	         8.28861e+57
          1509.92480	         9.14921e+57
          1510.73110	         8.66220e+57
          1511.53740	         7.31422e+57
          1512.34370	         6.99737e+57
          1513.15000	         7.90467e+57
          1513.95630	         8.53516e+57
          1514.76260	         7.76410e+57
          1515.56890	         7.56497e+57
          1516.37520	         8.16833e+57
          1517.18150	         7.85826e+57
          1517.98780	         7.02407e+57
          1518.79410	         7.13456e+57
          1519.60040	         8.00477e+57
          1520.40670	         8.55230e+57
          1521.21300	         7.67800e+57
          1522.01930	         8.04100e+57
          1522.82560	         9.35528e+57
          1523.63190	         1.02697e+58
          1524.43820	         7.94558e+57
          1525.24450	         5.34556e+57
          1526.05080	         4.96230e+57
          1526.85710	         6.16025e+57
          1527.66340	         7.44653e+57
          1528.46970	         7.53408e+57
          1529.27600	         6.78649e+57
          1530.08230	         7.65897e+57
          1530.88860	         7.77281e+57
          1531.69490	         8.48405e+57
          1532.50120	         9.32590e+57
          1533.30750	         9.10803e+57
          1534.11380	         9.16678e+57
          1534.92010	         9.17655e+57
          1535.72640	         9.26061e+57
          1536.53270	         9.20933e+57
          1537.33900	         8.05154e+57
          1538.14530	         7.95681e+57
          1538.95160	         8.71501e+57
          1539.75790	         8.56925e+57
          1540.56420	         7.55700e+57
          1541.37050	         7.55326e+57
          1542.17680	         7.39839e+57
          1542.98310	         6.86321e+57
          1543.78940	         6.81523e+57
          1544.59570	         7.40742e+57
          1545.40200	         7.95995e+57
          1546.20830	         8.67287e+57
          1547.01460	         1.10570e+58
          1547.82090	         1.27618e+58
          1548.62720	         1.23090e+58
          1549.43350	         1.20276e+58
          1550.23980	         1.01004e+58
          1551.04610	         1.14261e+58
          1551.85240	         1.24877e+58
          1552.65870	         1.08739e+58
          1553.46500	         9.02334e+57
          1554.27130	         9.39291e+57
          1555.07760	         9.15100e+57
          1555.88390	         8.02880e+57
          1556.69020	         8.35462e+57
          1557.49650	         8.55872e+57
          1558.30280	         8.23187e+57
          1559.10910	         7.90900e+57
          1559.91540	         8.56837e+57
          1560.72170	         8.49289e+57
          1561.52800	         8.70971e+57
          1562.33430	         9.00275e+57
          1563.14060	         8.19815e+57
          1563.94690	         8.03138e+57
          1564.75320	         7.98505e+57
          1565.55950	         7.33454e+57
          1566.36580	         7.30854e+57
          1567.17210	         8.55842e+57
          1567.97840	         9.42888e+57
          1568.78470	         8.60923e+57
          1569.59100	         8.73332e+57
          1570.39730	         8.04235e+57
          1571.20360	         6.81195e+57
          1572.00990	         7.32445e+57
          1572.81620	         8.48411e+57
          1573.62250	         1.00168e+58
          1574.42880	         9.56219e+57
          1575.23510	         8.37037e+57
          1576.04140	         8.28340e+57
          1576.84770	         8.19363e+57
          1577.65400	         8.41038e+57
          1578.46030	         8.81494e+57
          1579.26660	         8.89151e+57
          1580.07290	         8.79942e+57
          1580.87920	         7.44400e+57
          1581.68550	         7.35456e+57
          1582.49180	         8.34292e+57
          1583.29810	         8.03449e+57
          1584.10440	         7.79288e+57
          1584.91070	         8.00000e+57
          1585.71700	         8.53703e+57
          1586.52330	         8.70868e+57
          1587.32960	         8.05297e+57
          1588.13590	         8.03283e+57
          1588.94220	         7.95809e+57
          1589.74850	         8.43853e+57
          1590.55480	         9.29877e+57
          1591.36110	         8.75810e+57
          1592.16740	         9.03750e+57
          1592.97370	         8.66337e+57
          1593.78000	         8.77413e+57
          1594.58630	         9.17281e+57
          1595.39260	         7.57318e+57
          1596.19890	         7.46968e+57
          1597.00520	         9.22616e+57
          1597.81150	         9.32500e+57
          1598.61780	         7.73781e+57
          1599.42410	         7.45631e+57
          1600.23040	         7.45490e+57
          1601.03670	         7.83954e+57
          1601.84300	         7.46314e+57
          1602.64930	         7.61052e+57
          1603.45560	         8.37355e+57
          1604.26190	         7.89210e+57
          1605.06820	         7.20902e+57
          1605.87450	         7.62251e+57
          1606.68080	         7.41149e+57
          1607.48710	         5.56069e+57
          1608.29340	         4.92349e+57
          1609.09970	         6.77928e+57
          1609.90600	         7.21093e+57
          1610.71230	         6.19532e+57
          1611.51860	         6.93042e+57
          1612.32490	         7.63839e+57
          1613.13120	         9.29799e+57
          1613.93750	         8.23606e+57
          1614.74380	         8.07268e+57
          1615.55010	         8.55195e+57
          1616.35640	         9.36503e+57
          1617.16270	         9.62574e+57
          1617.96900	         1.05458e+58
          1618.77530	         9.80196e+57
          1619.58160	         9.06844e+57
          1620.38790	         8.97613e+57
          1621.19420	         9.29904e+57
          1622.00050	         8.24453e+57
          1622.80680	         8.97208e+57
          1623.61310	         9.60809e+57
          1624.41940	         8.15974e+57
          1625.22570	         9.13482e+57
          1626.03200	         9.65583e+57
          1626.83830	         7.45970e+57
          1627.64460	         6.92607e+57
          1628.45090	         7.53183e+57
          1629.25720	         8.05380e+57
          1630.06350	         8.71524e+57
          1630.86980	         6.33910e+57
          1631.67610	         7.66809e+57
          1632.48240	         8.02778e+57
          1633.28870	         7.63553e+57
          1634.09500	         8.94007e+57
          1634.90130	         1.12319e+58
          1635.70760	         9.69414e+57
          1636.51390	         8.24612e+57
          1637.32020	         8.00492e+57
          1638.12650	         9.02430e+57
          1638.93280	         9.27037e+57
          1639.73910	         9.90188e+57
          1640.54540	         9.80877e+57
          1641.35170	         9.17297e+57
          1642.15800	         9.10998e+57
          1642.96430	         8.52158e+57
          1643.77060	         8.10253e+57
          1644.57690	         7.07607e+57
          1645.38320	         7.44272e+57
          1646.18950	         8.11305e+57
          1646.99580	         8.59700e+57
          1647.80210	         6.79612e+57
          1648.60840	         5.97320e+57
          1649.41470	         7.91780e+57
          1650.22100	         7.39946e+57
          1651.02730	         6.76890e+57
          1651.83360	         6.48746e+57
          1652.63990	         7.18021e+57
          1653.44620	         8.21438e+57
          1654.25250	         7.80861e+57
          1655.05880	         7.67328e+57
          1655.86510	         7.95789e+57
          1656.67140	         8.34091e+57
          1657.47770	         7.82220e+57
          1658.28400	         8.55307e+57
          1659.09030	         8.12664e+57
          1659.89660	         8.03813e+57
          1660.70290	         8.85519e+57
          1661.50920	         9.41157e+57
          1662.31550	         8.49982e+57
          1663.12180	         7.99294e+57
          1663.92810	         9.62782e+57
          1664.73440	         1.04904e+58
          1665.54070	         1.11377e+58
          1666.34700	         1.15524e+58
          1667.15330	         1.10072e+58
          1667.95960	         9.19186e+57
          1668.76590	         7.61402e+57
          1669.57220	         7.64061e+57
          1670.37850	         7.87946e+57
          1671.18480	         6.76475e+57
          1671.99110	         7.06487e+57
          1672.79740	         6.43552e+57
          1673.60370	         5.83210e+57
          1674.41000	         7.08457e+57
          1675.21630	         7.05494e+57
          1676.02260	         5.88309e+57
          1676.82890	         5.73325e+57
          1677.63520	         6.28425e+57
          1678.44150	         7.33205e+57
          1679.24780	         8.83118e+57
          1680.05410	         8.29407e+57
          1680.86040	         6.86409e+57
          1681.66670	         6.87438e+57
          1682.47300	         7.60114e+57
          1683.27930	         7.90100e+57
          1684.08560	         9.19874e+57
          1684.89190	         8.34900e+57
          1685.69820	         5.09339e+57
          1686.50450	         5.48146e+57
          1687.31080	         7.01782e+57
          1688.11710	         6.99397e+57
          1688.92340	         7.03909e+57
          1689.72970	         6.56675e+57
          1690.53600	         6.44835e+57
          1691.34230	         6.85061e+57
          1692.14860	         6.77875e+57
          1692.95490	         8.05226e+57
          1693.76120	         7.47596e+57
          1694.56750	         6.65589e+57
          1695.37380	         8.54006e+57
          1696.18010	         8.73725e+57
          1696.98640	         8.23675e+57
          1697.79270	         7.14715e+57
          1698.59900	         8.05279e+57
          1699.40530	         8.42567e+57
          1700.21160	         7.58394e+57
          1701.01790	         8.22251e+57
          1701.82420	         8.71499e+57
          1702.63050	         7.48531e+57
          1703.43680	         7.62460e+57
          1704.24310	         8.26467e+57
          1705.04940	         7.58056e+57
          1705.85570	         7.11266e+57
          1706.66200	         8.24433e+57
          1707.46830	         8.56164e+57
          1708.27460	         7.81600e+57
          1709.08090	         6.68946e+57
          1709.88720	         6.25782e+57
          1710.69350	         6.66864e+57
          1711.49980	         6.34029e+57
          1712.30610	         5.98670e+57
          1713.11240	         8.13951e+57
          1713.91870	         7.46702e+57
          1714.72500	         7.51282e+57
          1715.53130	         8.97773e+57
          1716.33760	         8.33663e+57
          1717.14390	         7.37522e+57
          1717.95020	         7.58581e+57
          1718.75650	         7.90733e+57
          1719.56280	         8.26202e+57
          1720.36910	         7.56478e+57
          1721.17540	         8.11006e+57
          1721.98170	         6.96445e+57
          1722.78800	         6.30441e+57
          1723.59430	         6.55920e+57
          1724.40060	         7.78797e+57
          1725.20690	         7.89333e+57
          1726.01320	         7.48915e+57
          1726.81950	         7.91611e+57
          1727.62580	         7.22483e+57
          1728.43210	         6.06107e+57
          1729.23840	         6.87889e+57
          1730.04470	         7.66564e+57
          1730.85100	         7.69477e+57
          1731.65730	         7.78957e+57
          1732.46360	         7.47424e+57
          1733.26990	         7.20548e+57
          1734.07620	         6.49949e+57
          1734.88250	         6.73622e+57
          1735.68880	         7.32082e+57
          1736.49510	         7.73735e+57
          1737.30140	         7.36908e+57
          1738.10770	         5.71637e+57
          1738.91400	         6.63184e+57
          1739.72030	         6.78009e+57
          1740.52660	         5.75745e+57
          1741.33290	         5.36598e+57
          1742.13920	         6.22805e+57
          1742.94550	         6.81685e+57
          1743.75180	         7.18946e+57
          1744.55810	         7.50906e+57
          1745.36440	         7.02529e+57
          1746.17070	         5.83825e+57
          1746.97700	         5.56368e+57
          1747.78330	         7.22215e+57
          1748.58960	         7.40072e+57
          1749.39590	         6.11961e+57
          1750.20220	         5.98951e+57
          1751.00850	         6.28323e+57
          1751.81480	         6.33068e+57
          1752.62110	         6.86630e+57
          1753.42740	         7.19064e+57
          1754.23370	         6.57609e+57
          1755.04000	         7.12906e+57
          1755.84630	         7.63227e+57
          1756.65260	         7.88870e+57
          1757.45890	         8.75048e+57
          1758.26520	         7.25610e+57
          1759.07150	         7.52057e+57
          1759.87780	         8.31575e+57
          1760.68410	         8.35885e+57
          1761.49040	         7.78278e+57
          1762.29670	         6.40741e+57
          1763.10300	         7.12337e+57
          1763.90930	         7.37634e+57
          1764.71560	         7.30949e+57
          1765.52190	         7.21286e+57
          1766.32820	         8.35855e+57
          1767.13450	         8.75482e+57
          1767.94080	         7.16242e+57
          1768.74710	         6.48822e+57
          1769.55340	         6.65766e+57
          1770.35970	         6.00621e+57
          1771.16600	         7.86525e+57
          1771.97230	         8.71548e+57
          1772.77860	         8.93195e+57
          1773.58490	         8.05193e+57
          1774.39120	         6.58197e+57
          1775.19750	         6.28221e+57
          1776.00380	         5.80015e+57
          1776.81010	         6.72072e+57
          1777.61640	         6.92922e+57
          1778.42270	         6.59413e+57
          1779.22900	         5.78581e+57
          1780.03530	         6.32737e+57
          1780.84160	         7.57542e+57
          1781.64790	         8.36815e+57
          1782.45420	         7.56172e+57
          1783.26050	         7.03551e+57
          1784.06680	         7.01752e+57
          1784.87310	         6.65352e+57
          1785.67940	         6.80542e+57
          1786.48570	         6.36430e+57
          1787.29200	         6.64431e+57
          1788.09830	         5.80765e+57
          1788.90460	         5.31652e+57
          1789.71090	         4.66920e+57
          1790.51720	         4.83053e+57
          1791.32350	         7.83234e+57
          1792.12980	         8.96106e+57
          1792.93610	         7.86025e+57
          1793.74240	         7.64841e+57
          1794.54870	         8.21812e+57
          1795.35500	         8.42586e+57
          1796.16130	         6.79633e+57
          1796.96760	         6.12197e+57
          1797.77390	         6.73236e+57
          1798.58020	         7.65664e+57
          1799.38650	         7.35834e+57
          1800.19280	         7.16856e+57
          1800.99910	         7.37729e+57
          1801.80540	         6.92874e+57
          1802.61170	         7.89043e+57
          1803.41800	         8.47025e+57
          1804.22430	         7.76190e+57
          1805.03060	         7.30629e+57
          1805.83690	         7.44039e+57
          1806.64320	         7.48975e+57
          1807.44950	         7.85081e+57
          1808.25580	         6.64075e+57
          1809.06210	         6.77696e+57
          1809.86840	         7.07740e+57
          1810.67470	         7.59432e+57
          1811.48100	         8.90503e+57
          1812.28730	         8.75544e+57
          1813.09360	         7.45289e+57
          1813.89990	         7.77388e+57
          1814.70620	         8.13646e+57
          1815.51250	         7.95830e+57
          1816.31880	         8.39615e+57
          1817.12510	         8.02055e+57
          1817.93140	         6.92403e+57
          1818.73770	         6.74515e+57
          1819.54400	         7.27017e+57
          1820.35030	         7.18960e+57
          1821.15660	         5.99696e+57
          1821.96290	         6.01741e+57
          1822.76920	         6.71926e+57
          1823.57550	         7.28030e+57
          1824.38180	         7.43948e+57
          1825.18810	         7.55078e+57
          1825.99440	         7.85749e+57
          1826.80070	         7.74391e+57
          1827.60700	         6.04353e+57
          1828.41330	         5.89767e+57
          1829.21960	         6.34183e+57
          1830.02590	         7.01517e+57
          1830.83220	         7.34738e+57
          1831.63850	         6.61287e+57
          1832.44480	         6.12243e+57
          1833.25110	         6.36844e+57
          1834.05740	         7.90164e+57
          1834.86370	         7.41330e+57
          1835.67000	         5.85297e+57
          1836.47630	         6.80183e+57
          1837.28260	         7.80706e+57
          1838.08890	         8.29292e+57
          1838.89520	         8.69658e+57
          1839.70150	         7.26962e+57
          1840.50780	         6.66147e+57
          1841.31410	         6.36940e+57
          1842.12040	         6.11937e+57
          1842.92670	         6.63172e+57
          1843.73300	         6.34166e+57
          1844.53930	         6.30261e+57
          1845.34560	         7.36141e+57
          1846.15190	         7.60047e+57
          1846.95820	         6.51593e+57
          1847.76450	         6.11267e+57
          1848.57080	         6.36479e+57
          1849.37710	         6.19558e+57
          1850.18340	         6.30613e+57
          1850.98970	         7.25165e+57
          1851.79600	         7.63406e+57
          1852.60230	         6.95405e+57
          1853.40860	         7.17751e+57
          1854.21490	         6.34913e+57
          1855.02120	         5.55906e+57
          1855.82750	         5.28058e+57
          1856.63380	         6.39007e+57
          1857.44010	         7.92675e+57
          1858.24640	         7.13589e+57
          1859.05270	         7.06331e+57
          1859.85900	         6.29725e+57
          1860.66530	         4.97811e+57
          1861.47160	         6.50326e+57
          1862.27790	         7.29402e+57
          1863.08420	         7.15148e+57
          1863.89050	         8.10388e+57
          1864.69680	         7.53145e+57
          1865.50310	         7.37245e+57
          1866.30940	         6.11366e+57
          1867.11570	         5.81689e+57
          1867.92200	         7.09188e+57
          1868.72830	         7.48250e+57
          1869.53460	         7.12088e+57
          1870.34090	         7.54971e+57
          1871.14720	         6.87921e+57
          1871.95350	         6.29639e+57
          1872.75980	         7.19019e+57
          1873.56610	         7.20718e+57
          1874.37240	         6.27212e+57
          1875.17870	         6.11645e+57
          1875.98500	         7.62134e+57
          1876.79130	         7.50705e+57
          1877.59760	         6.80975e+57
          1878.40390	         6.46024e+57
          1879.21020	         5.43339e+57
          1880.01650	         6.34042e+57
          1880.82280	         8.54547e+57
          1881.62910	         9.74424e+57
          1882.43540	         9.28586e+57
          1883.24170	         7.94020e+57
          1884.04800	         6.14619e+57
          1884.85430	         6.44035e+57
          1885.66060	         7.84639e+57
          1886.46690	         7.41221e+57
          1887.27320	         7.80902e+57
          1888.07950	         6.69112e+57
          1888.88580	         5.85383e+57
          1889.69210	         7.84801e+57
          1890.49840	         8.21502e+57
          1891.30470	         8.20835e+57
          1892.11100	         8.41167e+57
          1892.91730	         7.57827e+57
          1893.72360	         7.52172e+57
          1894.52990	         7.53494e+57
          1895.33620	         8.03928e+57
          1896.14250	         6.48722e+57
          1896.94880	         5.39813e+57
          1897.75510	         4.13237e+57
          1898.56140	         5.26447e+57
          1899.36770	         6.74320e+57
          1900.17400	         6.20247e+57
          1900.98030	         6.54651e+57
          1901.78660	         7.66550e+57
          1902.59290	         7.45076e+57
          1903.39920	         8.65135e+57
          1904.20550	         8.55202e+57
          1905.01180	         9.55491e+57
          1905.81810	         1.05454e+58
          1906.62440	         1.20218e+58
          1907.43070	         1.46036e+58
          1908.23700	         1.47924e+58
          1909.04330	         1.23865e+58
          1909.84960	         1.07042e+58
          1910.65590	         1.05635e+58
          1911.46220	         9.23656e+57
          1912.26850	         6.90918e+57
          1913.07480	         5.10004e+57
          1913.88110	         4.96218e+57
          1914.68740	         5.49203e+57
          1915.49370	         5.25125e+57
          1916.30000	         5.77824e+57
          1917.10630	         7.18138e+57
          1917.91260	         6.67978e+57
          1918.71890	         6.41151e+57
          1919.52520	         5.80651e+57
          1920.33150	         5.39306e+57
          1921.13780	         6.52051e+57
          1921.94410	         8.12555e+57
          1922.75040	         7.50279e+57
          1923.55670	         6.75660e+57
          1924.36300	         6.86324e+57
          1925.16930	         5.38525e+57
          1925.97560	         5.05108e+57
          1926.78190	         4.92676e+57
          1927.58820	         5.32188e+57
          1928.39450	         5.07001e+57
          1929.20080	         4.41762e+57
          1930.00710	         6.85463e+57
          1930.81340	         7.96617e+57
          1931.61970	         6.49554e+57
          1932.42600	         6.36499e+57
          1933.23230	         7.71345e+57
          1934.03860	         6.96604e+57
          1934.84490	         5.04650e+57
          1935.65120	         7.72757e+57
          1936.45750	         8.97243e+57
          1937.26380	         6.80604e+57
          1938.07010	         7.21723e+57
          1938.87640	         8.07227e+57
          1939.68270	         7.02261e+57
          1940.48900	         6.17566e+57
          1941.29530	         7.32701e+57
          1942.10160	         7.37127e+57
          1942.90790	         6.08866e+57
          1943.71420	         6.06608e+57
          1944.52050	         5.52356e+57
          1945.32680	         5.00956e+57
          1946.13310	         6.88514e+57
          1946.93940	         8.33735e+57
          1947.74570	         7.83366e+57
          1948.55200	         6.24535e+57
          1949.35830	         6.34415e+57
          1950.16460	         6.32269e+57
          1950.97090	         6.11510e+57
          1951.77720	         6.50357e+57
          1952.58350	         7.62188e+57
          1953.38980	         6.10418e+57
          1954.19610	         4.22518e+57
          1955.00240	         4.60962e+57
          1955.80870	         5.69631e+57
          1956.61500	         5.10013e+57
          1957.42130	         5.40837e+57
          1958.22760	         6.64022e+57
          1959.03390	         6.85622e+57
          1959.84020	         8.06639e+57
          1960.64650	         7.57455e+57
          1961.45280	         5.26609e+57
          1962.25910	         5.45547e+57
          1963.06540	         5.86125e+57
          1963.87170	         6.53298e+57
          1964.67800	         7.25988e+57
          1965.48430	         6.24243e+57
          1966.29060	         6.00452e+57
          1967.09690	         7.22066e+57
          1967.90320	         6.30184e+57
          1968.70950	         6.55604e+57
          1969.51580	         7.14629e+57
          1970.32210	         7.79547e+57
          1971.12840	         6.95252e+57
          1971.93470	         4.43950e+57
          1972.74100	         4.89782e+57
          1973.54730	         6.07212e+57
          1974.35360	         6.82322e+57
          1975.15990	         6.74495e+57
          1975.96620	         6.70927e+57
          1976.77250	         8.06707e+57
          1977.57880	         8.31799e+57
          1978.38510	         6.93643e+57
          1979.19140	         6.53131e+57
          1979.99770	         6.76291e+57
          1980.80400	         7.28186e+57
          1981.61030	         7.40674e+57
          1982.41660	         5.13363e+57
          1983.22290	         5.45054e+57
          1984.02920	         5.60420e+57
          1984.83550	         5.69111e+57
          1985.64180	         6.08847e+57
          1986.44810	         5.80507e+57
          1987.25440	         4.75087e+57
          1988.06070	         4.76277e+57
          1988.86700	         5.66578e+57
          1989.67330	         6.31688e+57
          1990.47960	         7.17225e+57
          1991.28590	         6.88895e+57
          1992.09220	         6.80337e+57
          1992.89850	         7.02747e+57
          1993.70480	         5.75110e+57
          1994.51110	         3.44969e+57
          1995.31740	         4.91505e+57
          1996.12370	         5.01761e+57
          1996.93000	         6.14159e+57
          1997.73630	         7.48194e+57
          1998.54260	         7.80693e+57
          1999.34890	         7.17846e+57
          2000.15520	         5.62201e+57
          2000.96150	         6.95394e+57
          2001.76780	         6.08743e+57
          2002.57410	         4.60818e+57
          2003.38040	         5.48133e+57
          2004.18670	         6.37694e+57
          2004.99300	         5.80005e+57
          2005.79930	         6.33486e+57
          2006.60560	         6.58130e+57
          2007.41190	         6.14323e+57
          2008.21820	         6.25337e+57
          2009.02450	         6.20153e+57
          2009.83080	         5.70277e+57
          2010.63710	         5.59105e+57
          2011.44340	         5.64822e+57
          2012.24970	         5.76233e+57
          2013.05600	         6.64709e+57
          2013.86230	         7.33553e+57
          2014.66860	         6.24492e+57
          2015.47490	         6.89314e+57
          2016.28120	         5.35423e+57
          2017.08750	         5.29710e+57
          2017.89380	         6.42131e+57
          2018.70010	         5.68710e+57
          2019.50640	         4.53057e+57
          2020.31270	         5.88867e+57
          2021.11900	         7.57782e+57
          2021.92530	         6.92035e+57
          2022.73160	         6.76596e+57
          2023.53790	         6.86752e+57
          2024.34420	         6.33744e+57
          2025.15050	         6.52424e+57
          2025.95680	         5.68237e+57
          2026.76310	         6.29653e+57
          2027.56940	         6.29498e+57
          2028.37570	         6.93530e+57
          2029.18200	         6.82735e+57
          2029.98830	         7.18856e+57
          2030.79460	         7.11419e+57
          2031.60090	         6.07535e+57
          2032.40720	         5.45442e+57
          2033.21350	         5.57048e+57
          2034.01980	         4.77860e+57
          2034.82610	         4.11543e+57
          2035.63240	         4.89610e+57
          2036.43870	         5.52446e+57
          2037.24500	         5.49268e+57
          2038.05130	         6.05624e+57
          2038.85760	         4.62528e+57
          2039.66390	         5.92805e+57
          2040.47020	         4.64671e+57
          2041.27650	         6.29022e+57
          2042.08280	         4.94910e+57
          2042.88910	         5.02161e+57
          2043.69540	         6.34918e+57
          2044.50170	         6.28726e+57
          2045.30800	         6.69041e+57
          2046.11430	         5.88493e+57
          2046.92060	         5.65258e+57
          2047.72690	         6.22649e+57
          2048.53320	         5.33026e+57
          2049.33950	         4.46523e+57
          2050.14580	         5.91487e+57
          2050.95210	         7.66253e+57
          2051.75840	         7.10963e+57
          2052.56470	         5.66472e+57
          2053.37100	         4.24026e+57
          2054.17730	         4.39072e+57
          2054.98360	         5.27900e+57
          2055.78990	         3.75714e+57
          2056.59620	         2.63812e+57
          2057.40250	         5.37618e+57
          2058.20880	         5.94762e+57
          2059.01510	         6.41983e+57
          2059.82140	         5.88176e+57
          2060.62770	         9.84163e+57
          2061.43400	         1.20542e+58
          2062.24030	         1.07782e+58
          2063.04660	         7.54901e+57
          2063.85290	         2.77908e+57
          2064.65920	        -1.30122e+57
          2065.46550	        -8.21934e+57
          2066.27180	        -7.94829e+57
          2067.07810	         4.66085e+57
          2067.88440	         6.20121e+57
          2068.69070	         5.50812e+57
          2069.49700	         6.50370e+57
          2070.30330	         4.01618e+57
          2071.10960	         4.23938e+57
          2071.91590	         6.20190e+57
          2072.72220	         4.38297e+57
          2073.52850	         5.37179e+57
          2074.33480	         6.08939e+57
          2075.14110	         6.28728e+57
          2075.94740	         4.91755e+57
          2076.75370	         5.46159e+57
          2077.56000	         4.68396e+57
          2078.36630	         4.70652e+57
          2079.17260	         5.22412e+57
          2079.97890	         5.85104e+57
          2080.78520	         5.91497e+57
          2081.59150	         5.83016e+57
          2082.39780	         5.67354e+57
          2083.20410	         4.77435e+57
          2084.01040	         3.42780e+57
          2084.81670	         4.44805e+57
          2085.62300	         3.11471e+57
          2086.42930	         3.65322e+57
          2087.23560	         3.37899e+57
          2088.04190	         2.66921e+57
          2088.84820	         3.36341e+57
          2089.65450	         3.83741e+57
          2090.46080	         2.30781e+57
          2091.26710	         2.33133e+57
          2092.07340	         1.64890e+57
          2092.87970	         1.23135e+57
          2093.68600	         1.40576e+57
          2094.49230	         9.57778e+56
          2095.29860	         4.15659e+57
          2096.10490	         1.97462e+57
          2096.91120	         2.42732e+57
          2097.71750	         1.90548e+57
          2098.52380	         5.93277e+56
          2099.33010	         2.83342e+57
          2100.13640	         3.95185e+57
          2100.94270	         2.34067e+57
          2101.74900	         3.52092e+57
          2102.55530	         1.49735e+57
          2103.36160	         2.35564e+57
          2104.16790	         3.81191e+57
          2104.97420	         1.85900e+57
          2105.78050	         1.65311e+57
          2106.58680	         3.24992e+57
          2107.39310	        -2.99040e+56
          2108.19940	        -1.48836e+57
          2109.00570	         1.51075e+55
          2109.81200	         9.15677e+56
          2110.61830	         1.84132e+57
          2111.42460	         8.99986e+56
          2112.23090	         8.65717e+56
          2113.03720	         3.61391e+57
          2113.84350	         1.77190e+57
          2114.64980	         3.82606e+57
          2115.45610	        -2.54219e+57
          2116.26240	        -6.74337e+56
          2117.06870	         1.93299e+57
          2117.87500	        -6.02499e+56
          2118.68130	         1.24721e+57
          2119.48760	         2.30180e+57
          2120.29390	         6.32220e+57
          2121.10020	        -2.67082e+57
          2121.90650	        -4.39255e+57
          2122.71280	        -6.28233e+56
          2123.51910	         3.04014e+57
          2124.32540	         2.38510e+57
          2125.13170	        -9.31686e+55
          2125.93800	         1.29710e+57
          2126.74430	         4.82878e+55
          2127.55060	        -2.69181e+57
          2128.35690	        -2.77645e+57
          2129.16320	        -1.89048e+57
          2129.96950	         1.74610e+57
          2130.77580	         2.77842e+57
          2131.58210	         3.41616e+57
          2132.38840	        -2.92108e+57
          2133.19470	         1.54856e+57
          2134.00100	        -3.74468e+57
          2134.80730	        -5.97249e+57
          2135.61360	        -2.10072e+57
          2136.41990	         4.32243e+56
          2137.22620	         3.59577e+57
          2138.03250	        -6.92033e+56
          2138.83880	        -3.80636e+57
          2139.64510	        -9.48783e+56
          2140.45140	        -7.09095e+57
          2141.25770	        -9.17063e+57
          2142.06400	        -9.36361e+57
          2142.87030	         4.34193e+56
          2143.67660	         1.44444e+57
          2144.48290	         4.05890e+56
          2145.28920	         1.21070e+58
          2146.09550	        -2.96630e+57
          2146.90180	        -7.52525e+57
          2147.70810	        -1.17847e+58
          2148.51440	        -1.00318e+58
          2149.32070	        -1.50674e+58
          2150.12700	        -9.88960e+57
          2150.93330	        -1.07397e+58
          2151.73960	        -3.48727e+57
          2152.54590	        -5.20707e+57
          2153.35220	         8.31402e+57
          2154.15850	        -3.61750e+57
          2154.96480	        -1.24191e+57
          2155.77110	        -1.60471e+58
          2156.57740	        -2.03614e+56
          2157.38370	         8.93270e+57
          2158.19000	         1.11075e+57
          2158.99630	        -1.40630e+55
          2159.80260	        -1.14994e+58
          2160.60890	        -1.68516e+58
          2161.41520	        -2.96061e+57
          2162.22150	        -7.75782e+57
          2163.02780	         1.52673e+57
          2163.83410	        -9.44297e+56
          2164.64040	        -7.05892e+57
          2165.44670	        -1.61652e+58
          2166.25300	        -2.06489e+58
          2167.05930	         4.84877e+57
          2167.86560	         3.65874e+57
          2168.67190	        -3.44355e+57
          2169.47820	        -6.03461e+57
          2170.28450	        -1.44649e+58
          2171.09080	        -4.57079e+57
          2171.89710	         7.61958e+56
          2172.70340	        -5.24940e+57
          2173.50970	        -8.73192e+57
          2174.31600	        -7.91314e+57
          2175.12230	         5.92741e+56
          2175.92860	        -3.35616e+57
          2176.73490	        -4.81446e+57
          2177.54120	        -3.63667e+57
          2178.34750	        -8.69111e+56
          2179.15380	                 nan
          2179.96010	                 nan
          2180.76640	                 nan
          2181.57270	                 nan
          2182.37900	                 nan
          2183.18530	                 nan
          2183.99160	                 nan
          2184.79790	                 nan
          2185.60420	                 nan
          2186.41050	                 nan
          2187.21680	                 nan
          2188.02310	                 nan
          2188.82940	                 nan
          2189.63570	                 nan
          2190.44200	                 nan
          2191.24830	                 nan
          2192.05460	                 nan
          2192.86090	                 nan
          2193.66720	                 nan
          2194.47350	                 nan
          2195.27980	                 nan
          2196.08610	                 nan
          2196.89240	                 nan
          2197.69870	                 nan
          2198.50500	                 nan
          2199.31130	                 nan
          2200.11760	                 nan
          2200.92390	                 nan
          2201.73020	                 nan
          2202.53650	                 nan
          2203.34280	                 nan
          2204.14910	                 nan
          2204.95540	                 nan
          2205.76170	                 nan
          2206.56800	                 nan
          2207.37430	                 nan
          2208.18060	                 nan
          2208.98690	                 nan
          2209.79320	                 nan
          2210.59950	                 nan
          2211.40580	                 nan
          2212.21210	                 nan
          2213.01840	                 nan
          2213.82470	                 nan
          2214.63100	                 nan
          2215.43730	         0.00000e+00
