#sample_137_stacked_spectrum_rest_UV-bands_median_H-alpha_noDC.txt
#median Lum: 1.70022e+42
#Rest-frame wavelength (A) | Luminosity (erg/s/A)
#
          1110.00000	         0.00000e+00
          1110.80630	        -1.70121e+59
          1111.61260	         1.54756e+58
          1112.41890	         1.87235e+59
          1113.22520	         3.17654e+58
          1114.03150	         2.76609e+58
          1114.83780	         2.13939e+59
          1115.64410	        -1.03491e+59
          1116.45040	         5.72692e+58
          1117.25670	         1.83563e+59
          1118.06300	        -2.49345e+58
          1118.86930	        -9.53253e+57
          1119.67560	         1.62507e+59
          1120.48190	         3.20255e+58
          1121.28820	        -5.12239e+58
          1122.09450	         6.98025e+58
          1122.90080	        -8.04264e+57
          1123.70710	         1.27981e+58
          1124.51340	         3.23714e+58
          1125.31970	         3.19832e+57
          1126.12600	         5.33350e+58
          1126.93230	        -3.39187e+58
          1127.73860	        -3.26224e+58
          1128.54490	        -4.12680e+57
          1129.35120	        -6.37514e+55
          1130.15750	         1.82484e+58
          1130.96380	        -5.32302e+58
          1131.77010	         6.35070e+58
          1132.57640	         1.34454e+58
          1133.38270	        -6.03585e+57
          1134.18900	         1.47768e+58
          1134.99530	         4.63563e+58
          1135.80160	         3.72580e+58
          1136.60790	         2.56004e+58
          1137.41420	         5.25876e+57
          1138.22050	         1.78487e+58
          1139.02680	         3.65083e+58
          1139.83310	         1.77173e+58
          1140.63940	         2.25674e+58
          1141.44570	         2.15853e+57
          1142.25200	        -7.88844e+57
          1143.05830	         1.67298e+57
          1143.86460	        -2.09949e+57
          1144.67090	         4.27651e+58
          1145.47720	         2.08700e+58
          1146.28350	         1.62994e+58
          1147.08980	         7.27005e+57
          1147.89610	         2.45466e+58
          1148.70240	         2.08724e+58
          1149.50870	         2.09779e+58
          1150.31500	         1.23060e+58
          1151.12130	         7.04186e+57
          1151.92760	         5.07502e+57
          1152.73390	         1.45676e+58
          1153.54020	         1.56150e+58
          1154.34650	         2.11762e+58
          1155.15280	         1.56304e+58
          1155.95910	         8.93511e+57
          1156.76540	         4.94829e+57
          1157.57170	        -2.59667e+57
          1158.37800	        -2.19362e+57
          1159.18430	        -7.65694e+56
          1159.99060	         1.60034e+58
          1160.79690	         1.00207e+58
          1161.60320	         1.40958e+58
          1162.40950	         1.48555e+58
          1163.21580	         1.64952e+58
          1164.02210	         1.89910e+58
          1164.82840	         1.81511e+58
          1165.63470	         8.66432e+57
          1166.44100	         2.32420e+58
          1167.24730	         2.36426e+58
          1168.05360	         7.18825e+57
          1168.85990	        -1.10888e+57
          1169.66620	         6.14314e+57
          1170.47250	         9.79777e+57
          1171.27880	         8.15104e+57
          1172.08510	         1.42731e+58
          1172.89140	         1.30536e+58
          1173.69770	         4.80117e+57
          1174.50400	         9.87026e+57
          1175.31030	         1.56416e+58
          1176.11660	         1.66267e+58
          1176.92290	         1.60188e+58
          1177.72920	         1.23132e+58
          1178.53550	         7.42769e+57
          1179.34180	         6.25899e+57
          1180.14810	         8.47817e+57
          1180.95440	         1.34322e+58
          1181.76070	         1.43280e+58
          1182.56700	         1.11333e+58
          1183.37330	         4.06602e+57
          1184.17960	         8.35205e+57
          1184.98590	         1.24020e+58
          1185.79220	         3.70999e+57
          1186.59850	         8.22632e+57
          1187.40480	         1.38161e+58
          1188.21110	         1.91277e+58
          1189.01740	         7.47288e+57
          1189.82370	         8.16127e+57
          1190.63000	         1.27420e+58
          1191.43630	         1.72990e+58
          1192.24260	         9.76504e+57
          1193.04890	         9.64329e+57
          1193.85520	         1.02341e+58
          1194.66150	         6.95399e+57
          1195.46780	         1.28121e+58
          1196.27410	         1.68804e+58
          1197.08040	         9.80380e+57
          1197.88670	         1.37038e+58
          1198.69300	         1.75302e+58
          1199.49930	         1.53195e+58
          1200.30560	         1.02030e+58
          1201.11190	         9.50751e+57
          1201.91820	         1.02039e+58
          1202.72450	         6.81665e+57
          1203.53080	         1.26175e+58
          1204.33710	         1.00418e+58
          1205.14340	         4.98664e+57
          1205.94970	         6.29805e+57
          1206.75600	         1.02929e+58
          1207.56230	         6.38604e+57
          1208.36860	         1.02344e+58
          1209.17490	         6.54149e+57
          1209.98120	         6.12785e+57
          1210.78750	         8.40910e+57
          1211.59380	         1.21203e+58
          1212.40010	         1.75455e+58
          1213.20640	         1.80526e+58
          1214.01270	         1.94258e+58
          1214.81900	         2.53890e+58
          1215.62530	         4.40696e+58
          1216.43160	         9.08670e+58
          1217.23790	         1.51682e+59
          1218.04420	         1.18006e+59
          1218.85050	         9.10110e+58
          1219.65680	         6.33791e+58
          1220.46310	         3.86711e+58
          1221.26940	         2.62769e+58
          1222.07570	         1.55543e+58
          1222.88200	         1.08590e+58
          1223.68830	         7.34894e+57
          1224.49460	         7.13201e+57
          1225.30090	         5.67059e+57
          1226.10720	         5.66321e+57
          1226.91350	         9.67428e+57
          1227.71980	         1.27636e+58
          1228.52610	         9.93607e+57
          1229.33240	         7.09299e+57
          1230.13870	         5.91610e+57
          1230.94500	         9.05334e+57
          1231.75130	         1.11431e+58
          1232.55760	         1.12869e+58
          1233.36390	         9.07299e+57
          1234.17020	         9.32350e+57
          1234.97650	         9.08409e+57
          1235.78280	         8.81963e+57
          1236.58910	         8.39946e+57
          1237.39540	         9.91184e+57
          1238.20170	         1.07712e+58
          1239.00800	         1.23289e+58
          1239.81430	         1.32043e+58
          1240.62060	         9.75595e+57
          1241.42690	         1.11611e+58
          1242.23320	         1.18986e+58
          1243.03950	         8.81010e+57
          1243.84580	         9.03398e+57
          1244.65210	         1.17996e+58
          1245.45840	         9.97403e+57
          1246.26470	         5.36493e+57
          1247.07100	         6.25224e+57
          1247.87730	         6.00235e+57
          1248.68360	         2.45585e+57
          1249.48990	         6.85137e+57
          1250.29620	         9.89939e+57
          1251.10250	         6.22628e+57
          1251.90880	         4.13472e+57
          1252.71510	         5.97853e+57
          1253.52140	         8.03550e+57
          1254.32770	         9.76883e+57
          1255.13400	         1.47022e+58
          1255.94030	         1.35039e+58
          1256.74660	         1.02872e+58
          1257.55290	         9.33518e+57
          1258.35920	         7.63001e+57
          1259.16550	         4.82587e+57
          1259.97180	         4.69702e+57
          1260.77810	         7.34652e+57
          1261.58440	         1.26908e+58
          1262.39070	         1.02716e+58
          1263.19700	         8.91358e+57
          1264.00330	         1.12454e+58
          1264.80960	         1.14950e+58
          1265.61590	         1.15632e+58
          1266.42220	         1.33413e+58
          1267.22850	         1.24582e+58
          1268.03480	         1.43230e+58
          1268.84110	         1.61859e+58
          1269.64740	         1.41983e+58
          1270.45370	         1.37736e+58
          1271.26000	         1.28369e+58
          1272.06630	         1.12384e+58
          1272.87260	         1.19517e+58
          1273.67890	         1.19535e+58
          1274.48520	         1.26970e+58
          1275.29150	         1.32879e+58
          1276.09780	         1.13137e+58
          1276.90410	         1.27158e+58
          1277.71040	         1.23610e+58
          1278.51670	         1.16880e+58
          1279.32300	         1.19289e+58
          1280.12930	         1.22238e+58
          1280.93560	         1.16380e+58
          1281.74190	         1.02878e+58
          1282.54820	         1.13471e+58
          1283.35450	         1.04451e+58
          1284.16080	         1.08862e+58
          1284.96710	         1.29081e+58
          1285.77340	         1.18111e+58
          1286.57970	         1.24402e+58
          1287.38600	         1.38390e+58
          1288.19230	         1.52762e+58
          1288.99860	         1.71631e+58
          1289.80490	         1.37014e+58
          1290.61120	         1.45620e+58
          1291.41750	         1.50214e+58
          1292.22380	         1.22731e+58
          1293.03010	         1.13994e+58
          1293.83640	         1.17305e+58
          1294.64270	         1.00404e+58
          1295.44900	         8.19217e+57
          1296.25530	         7.49377e+57
          1297.06160	         1.00918e+58
          1297.86790	         1.03061e+58
          1298.67420	         8.72133e+57
          1299.48050	         1.05108e+58
          1300.28680	         1.11869e+58
          1301.09310	         7.33894e+57
          1301.89940	         4.21258e+57
          1302.70570	         5.84179e+57
          1303.51200	         8.12838e+57
          1304.31830	         1.08332e+58
          1305.12460	         1.13039e+58
          1305.93090	         1.16777e+58
          1306.73720	         1.28435e+58
          1307.54350	         1.43772e+58
          1308.34980	         1.41586e+58
          1309.15610	         1.47028e+58
          1309.96240	         1.42827e+58
          1310.76870	         1.45745e+58
          1311.57500	         1.64896e+58
          1312.38130	         1.31101e+58
          1313.18760	         1.13668e+58
          1313.99390	         1.55107e+58
          1314.80020	         1.67583e+58
          1315.60650	         1.70324e+58
          1316.41280	         1.55183e+58
          1317.21910	         1.22980e+58
          1318.02540	         1.09205e+58
          1318.83170	         1.21684e+58
          1319.63800	         1.23508e+58
          1320.44430	         1.10163e+58
          1321.25060	         1.35140e+58
          1322.05690	         1.31537e+58
          1322.86320	         1.08280e+58
          1323.66950	         1.08340e+58
          1324.47580	         9.00922e+57
          1325.28210	         9.02911e+57
          1326.08840	         1.17906e+58
          1326.89470	         1.22597e+58
          1327.70100	         9.22061e+57
          1328.50730	         9.02763e+57
          1329.31360	         1.02833e+58
          1330.11990	         9.33220e+57
          1330.92620	         9.79775e+57
          1331.73250	         1.21316e+58
          1332.53880	         1.04460e+58
          1333.34510	         8.54899e+57
          1334.15140	         8.97496e+57
          1334.95770	         9.60019e+57
          1335.76400	         1.10760e+58
          1336.57030	         1.12159e+58
          1337.37660	         1.07422e+58
          1338.18290	         9.91553e+57
          1338.98920	         1.15517e+58
          1339.79550	         1.15238e+58
          1340.60180	         1.03490e+58
          1341.40810	         1.15568e+58
          1342.21440	         1.01608e+58
          1343.02070	         1.07841e+58
          1343.82700	         1.32329e+58
          1344.63330	         1.18242e+58
          1345.43960	         1.09598e+58
          1346.24590	         1.12215e+58
          1347.05220	         1.28276e+58
          1347.85850	         1.08516e+58
          1348.66480	         1.05920e+58
          1349.47110	         1.29583e+58
          1350.27740	         1.34394e+58
          1351.08370	         1.29107e+58
          1351.89000	         1.08131e+58
          1352.69630	         1.10742e+58
          1353.50260	         1.14294e+58
          1354.30890	         1.14510e+58
          1355.11520	         1.26391e+58
          1355.92150	         1.24143e+58
          1356.72780	         9.48853e+57
          1357.53410	         9.85163e+57
          1358.34040	         1.13593e+58
          1359.14670	         9.79223e+57
          1359.95300	         1.06873e+58
          1360.75930	         1.18681e+58
          1361.56560	         1.15311e+58
          1362.37190	         1.13773e+58
          1363.17820	         9.71201e+57
          1363.98450	         1.04744e+58
          1364.79080	         1.13548e+58
          1365.59710	         1.12508e+58
          1366.40340	         1.14524e+58
          1367.20970	         1.02378e+58
          1368.01600	         9.39370e+57
          1368.82230	         9.70556e+57
          1369.62860	         9.59810e+57
          1370.43490	         8.56349e+57
          1371.24120	         9.54151e+57
          1372.04750	         9.86227e+57
          1372.85380	         1.01176e+58
          1373.66010	         1.10624e+58
          1374.46640	         1.14269e+58
          1375.27270	         1.11218e+58
          1376.07900	         9.23894e+57
          1376.88530	         9.34727e+57
          1377.69160	         8.84883e+57
          1378.49790	         7.14137e+57
          1379.30420	         7.78610e+57
          1380.11050	         9.67973e+57
          1380.91680	         8.71795e+57
          1381.72310	         7.01035e+57
          1382.52940	         8.14961e+57
          1383.33570	         8.42592e+57
          1384.14200	         1.03091e+58
          1384.94830	         1.11930e+58
          1385.75460	         8.98754e+57
          1386.56090	         9.91996e+57
          1387.36720	         1.05049e+58
          1388.17350	         1.20333e+58
          1388.97980	         1.15196e+58
          1389.78610	         9.59111e+57
          1390.59240	         8.78688e+57
          1391.39870	         8.33577e+57
          1392.20500	         8.98272e+57
          1393.01130	         8.28802e+57
          1393.81760	         7.21467e+57
          1394.62390	         7.12976e+57
          1395.43020	         6.84136e+57
          1396.23650	         7.51292e+57
          1397.04280	         7.73093e+57
          1397.84910	         9.41740e+57
          1398.65540	         1.00361e+58
          1399.46170	         1.06661e+58
          1400.26800	         9.50167e+57
          1401.07430	         8.99291e+57
          1401.88060	         9.32309e+57
          1402.68690	         1.05988e+58
          1403.49320	         9.93203e+57
          1404.29950	         9.19087e+57
          1405.10580	         1.02992e+58
          1405.91210	         1.08644e+58
          1406.71840	         1.14025e+58
          1407.52470	         1.10757e+58
          1408.33100	         1.02250e+58
          1409.13730	         1.10170e+58
          1409.94360	         1.08316e+58
          1410.74990	         1.14634e+58
          1411.55620	         1.05271e+58
          1412.36250	         9.84133e+57
          1413.16880	         9.53434e+57
          1413.97510	         8.01030e+57
          1414.78140	         9.01172e+57
          1415.58770	         9.69426e+57
          1416.39400	         1.02224e+58
          1417.20030	         1.12016e+58
          1418.00660	         9.23228e+57
          1418.81290	         1.03395e+58
          1419.61920	         1.10743e+58
          1420.42550	         1.24325e+58
          1421.23180	         1.24958e+58
          1422.03810	         1.11661e+58
          1422.84440	         1.17323e+58
          1423.65070	         1.22700e+58
          1424.45700	         1.16195e+58
          1425.26330	         8.59559e+57
          1426.06960	         9.18417e+57
          1426.87590	         1.10468e+58
          1427.68220	         9.95027e+57
          1428.48850	         1.03634e+58
          1429.29480	         1.09616e+58
          1430.10110	         1.01835e+58
          1430.90740	         8.13807e+57
          1431.71370	         8.11170e+57
          1432.52000	         8.42878e+57
          1433.32630	         7.72970e+57
          1434.13260	         7.96639e+57
          1434.93890	         8.02033e+57
          1435.74520	         9.54032e+57
          1436.55150	         9.89807e+57
          1437.35780	         8.69887e+57
          1438.16410	         8.75385e+57
          1438.97040	         8.70047e+57
          1439.77670	         9.28755e+57
          1440.58300	         1.00563e+58
          1441.38930	         9.72949e+57
          1442.19560	         9.95745e+57
          1443.00190	         1.00562e+58
          1443.80820	         1.03357e+58
          1444.61450	         8.77977e+57
          1445.42080	         8.00075e+57
          1446.22710	         1.02949e+58
          1447.03340	         1.01881e+58
          1447.83970	         9.18077e+57
          1448.64600	         9.87368e+57
          1449.45230	         9.61451e+57
          1450.25860	         9.83938e+57
          1451.06490	         9.28395e+57
          1451.87120	         7.85040e+57
          1452.67750	         7.57015e+57
          1453.48380	         9.29625e+57
          1454.29010	         8.71225e+57
          1455.09640	         7.76801e+57
          1455.90270	         8.88841e+57
          1456.70900	         9.54451e+57
          1457.51530	         1.01834e+58
          1458.32160	         1.30192e+58
          1459.12790	         1.23759e+58
          1459.93420	         9.61806e+57
          1460.74050	         7.91624e+57
          1461.54680	         8.41490e+57
          1462.35310	         8.79964e+57
          1463.15940	         9.57527e+57
          1463.96570	         1.09852e+58
          1464.77200	         1.23084e+58
          1465.57830	         1.11158e+58
          1466.38460	         8.89725e+57
          1467.19090	         8.11922e+57
          1467.99720	         9.30126e+57
          1468.80350	         1.01043e+58
          1469.60980	         1.00695e+58
          1470.41610	         1.09804e+58
          1471.22240	         1.02697e+58
          1472.02870	         1.08489e+58
          1472.83500	         1.04108e+58
          1473.64130	         9.54671e+57
          1474.44760	         9.72926e+57
          1475.25390	         9.07910e+57
          1476.06020	         8.77584e+57
          1476.86650	         8.77227e+57
          1477.67280	         8.44127e+57
          1478.47910	         6.77463e+57
          1479.28540	         6.75940e+57
          1480.09170	         8.32608e+57
          1480.89800	         8.98430e+57
          1481.70430	         9.51935e+57
          1482.51060	         8.36973e+57
          1483.31690	         7.11269e+57
          1484.12320	         7.65325e+57
          1484.92950	         7.84357e+57
          1485.73580	         8.19142e+57
          1486.54210	         9.94081e+57
          1487.34840	         9.47777e+57
          1488.15470	         8.72740e+57
          1488.96100	         8.31999e+57
          1489.76730	         8.27261e+57
          1490.57360	         7.20913e+57
          1491.37990	         6.81347e+57
          1492.18620	         7.84188e+57
          1492.99250	         7.29106e+57
          1493.79880	         7.29323e+57
          1494.60510	         7.45472e+57
          1495.41140	         7.84578e+57
          1496.21770	         8.73634e+57
          1497.02400	         9.96983e+57
          1497.83030	         8.47263e+57
          1498.63660	         7.03253e+57
          1499.44290	         7.36356e+57
          1500.24920	         7.29920e+57
          1501.05550	         8.02389e+57
          1501.86180	         9.04713e+57
          1502.66810	         9.47589e+57
          1503.47440	         8.13091e+57
          1504.28070	         8.47667e+57
          1505.08700	         1.02129e+58
          1505.89330	         1.02475e+58
          1506.69960	         9.26092e+57
          1507.50590	         9.08279e+57
          1508.31220	         9.64282e+57
          1509.11850	         9.05870e+57
          1509.92480	         9.16100e+57
          1510.73110	         9.27333e+57
          1511.53740	         7.31923e+57
          1512.34370	         7.13353e+57
          1513.15000	         8.86117e+57
          1513.95630	         1.03957e+58
          1514.76260	         9.39227e+57
          1515.56890	         8.96341e+57
          1516.37520	         9.06182e+57
          1517.18150	         7.94070e+57
          1517.98780	         6.28500e+57
          1518.79410	         6.66727e+57
          1519.60040	         7.66277e+57
          1520.40670	         9.38676e+57
          1521.21300	         9.46609e+57
          1522.01930	         8.04246e+57
          1522.82560	         9.19806e+57
          1523.63190	         9.95596e+57
          1524.43820	         7.71682e+57
          1525.24450	         6.05703e+57
          1526.05080	         6.55102e+57
          1526.85710	         6.22344e+57
          1527.66340	         7.05229e+57
          1528.46970	         8.17498e+57
          1529.27600	         7.97152e+57
          1530.08230	         7.70187e+57
          1530.88860	         6.93050e+57
          1531.69490	         7.68030e+57
          1532.50120	         8.14465e+57
          1533.30750	         9.41783e+57
          1534.11380	         9.34802e+57
          1534.92010	         9.11214e+57
          1535.72640	         1.00818e+58
          1536.53270	         9.49587e+57
          1537.33900	         9.17322e+57
          1538.14530	         9.12874e+57
          1538.95160	         9.53484e+57
          1539.75790	         9.16573e+57
          1540.56420	         8.79054e+57
          1541.37050	         7.70385e+57
          1542.17680	         6.59462e+57
          1542.98310	         6.81865e+57
          1543.78940	         7.44208e+57
          1544.59570	         6.74923e+57
          1545.40200	         7.93541e+57
          1546.20830	         9.67124e+57
          1547.01460	         1.06778e+58
          1547.82090	         1.15377e+58
          1548.62720	         1.16973e+58
          1549.43350	         1.11679e+58
          1550.23980	         1.05929e+58
          1551.04610	         1.18271e+58
          1551.85240	         1.22214e+58
          1552.65870	         1.13716e+58
          1553.46500	         1.04468e+58
          1554.27130	         9.71804e+57
          1555.07760	         9.22257e+57
          1555.88390	         8.67766e+57
          1556.69020	         8.68190e+57
          1557.49650	         9.09010e+57
          1558.30280	         8.82376e+57
          1559.10910	         8.95345e+57
          1559.91540	         9.08828e+57
          1560.72170	         9.03891e+57
          1561.52800	         9.11752e+57
          1562.33430	         8.96283e+57
          1563.14060	         9.38684e+57
          1563.94690	         8.74958e+57
          1564.75320	         7.51270e+57
          1565.55950	         6.63730e+57
          1566.36580	         7.61170e+57
          1567.17210	         9.73880e+57
          1567.97840	         9.96124e+57
          1568.78470	         8.65878e+57
          1569.59100	         8.76117e+57
          1570.39730	         8.70642e+57
          1571.20360	         7.31445e+57
          1572.00990	         6.89689e+57
          1572.81620	         7.74606e+57
          1573.62250	         9.25556e+57
          1574.42880	         8.82234e+57
          1575.23510	         7.48991e+57
          1576.04140	         7.99943e+57
          1576.84770	         9.18007e+57
          1577.65400	         8.08757e+57
          1578.46030	         8.64368e+57
          1579.26660	         9.79981e+57
          1580.07290	         9.96789e+57
          1580.87920	         7.85154e+57
          1581.68550	         7.16447e+57
          1582.49180	         7.49990e+57
          1583.29810	         7.41165e+57
          1584.10440	         8.46852e+57
          1584.91070	         8.59617e+57
          1585.71700	         7.77822e+57
          1586.52330	         8.92116e+57
          1587.32960	         9.71986e+57
          1588.13590	         9.42146e+57
          1588.94220	         8.28915e+57
          1589.74850	         8.14372e+57
          1590.55480	         9.41696e+57
          1591.36110	         7.84569e+57
          1592.16740	         7.27175e+57
          1592.97370	         8.14437e+57
          1593.78000	         8.76378e+57
          1594.58630	         9.49794e+57
          1595.39260	         8.60376e+57
          1596.19890	         8.35349e+57
          1597.00520	         9.36134e+57
          1597.81150	         8.74492e+57
          1598.61780	         7.94420e+57
          1599.42410	         7.94209e+57
          1600.23040	         8.15440e+57
          1601.03670	         7.72147e+57
          1601.84300	         6.78694e+57
          1602.64930	         7.78506e+57
          1603.45560	         8.50128e+57
          1604.26190	         7.82733e+57
          1605.06820	         8.19097e+57
          1605.87450	         7.95510e+57
          1606.68080	         7.57772e+57
          1607.48710	         5.86053e+57
          1608.29340	         5.39753e+57
          1609.09970	         6.86477e+57
          1609.90600	         6.75109e+57
          1610.71230	         6.13767e+57
          1611.51860	         6.77339e+57
          1612.32490	         7.37933e+57
          1613.13120	         7.42326e+57
          1613.93750	         7.31593e+57
          1614.74380	         8.02843e+57
          1615.55010	         8.69643e+57
          1616.35640	         8.27291e+57
          1617.16270	         9.29218e+57
          1617.96900	         1.02868e+58
          1618.77530	         9.01856e+57
          1619.58160	         8.16199e+57
          1620.38790	         7.75388e+57
          1621.19420	         9.17417e+57
          1622.00050	         8.44155e+57
          1622.80680	         8.67018e+57
          1623.61310	         8.08342e+57
          1624.41940	         7.15600e+57
          1625.22570	         8.67983e+57
          1626.03200	         8.56138e+57
          1626.83830	         8.10320e+57
          1627.64460	         8.09729e+57
          1628.45090	         7.59152e+57
          1629.25720	         8.78861e+57
          1630.06350	         9.45567e+57
          1630.86980	         7.12119e+57
          1631.67610	         6.97320e+57
          1632.48240	         8.49043e+57
          1633.28870	         8.42924e+57
          1634.09500	         9.80594e+57
          1634.90130	         1.05635e+58
          1635.70760	         9.79579e+57
          1636.51390	         8.41267e+57
          1637.32020	         7.60336e+57
          1638.12650	         9.76205e+57
          1638.93280	         9.86535e+57
          1639.73910	         9.19755e+57
          1640.54540	         1.08600e+58
          1641.35170	         9.45029e+57
          1642.15800	         9.08243e+57
          1642.96430	         9.52885e+57
          1643.77060	         8.51493e+57
          1644.57690	         8.89798e+57
          1645.38320	         8.93680e+57
          1646.18950	         8.31414e+57
          1646.99580	         9.08334e+57
          1647.80210	         8.84922e+57
          1648.60840	         8.00150e+57
          1649.41470	         8.05048e+57
          1650.22100	         6.65957e+57
          1651.02730	         6.82734e+57
          1651.83360	         7.32042e+57
          1652.63990	         7.81316e+57
          1653.44620	         9.99478e+57
          1654.25250	         9.13167e+57
          1655.05880	         7.32878e+57
          1655.86510	         7.87697e+57
          1656.67140	         8.42389e+57
          1657.47770	         8.16921e+57
          1658.28400	         7.71335e+57
          1659.09030	         9.30819e+57
          1659.89660	         9.93279e+57
          1660.70290	         9.99883e+57
          1661.50920	         1.00113e+58
          1662.31550	         8.40309e+57
          1663.12180	         8.76221e+57
          1663.92810	         9.80613e+57
          1664.73440	         1.12975e+58
          1665.54070	         1.21879e+58
          1666.34700	         1.20353e+58
          1667.15330	         1.11308e+58
          1667.95960	         9.31004e+57
          1668.76590	         7.42131e+57
          1669.57220	         6.92694e+57
          1670.37850	         7.29750e+57
          1671.18480	         7.85430e+57
          1671.99110	         7.60450e+57
          1672.79740	         7.16279e+57
          1673.60370	         6.86527e+57
          1674.41000	         8.35619e+57
          1675.21630	         7.51528e+57
          1676.02260	         6.40977e+57
          1676.82890	         6.94673e+57
          1677.63520	         7.09353e+57
          1678.44150	         7.75832e+57
          1679.24780	         8.85956e+57
          1680.05410	         7.61743e+57
          1680.86040	         6.20402e+57
          1681.66670	         6.57221e+57
          1682.47300	         7.70369e+57
          1683.27930	         8.69970e+57
          1684.08560	         8.20020e+57
          1684.89190	         7.15531e+57
          1685.69820	         4.60597e+57
          1686.50450	         5.86546e+57
          1687.31080	         7.05334e+57
          1688.11710	         7.57184e+57
          1688.92340	         6.84645e+57
          1689.72970	         7.18340e+57
          1690.53600	         7.77812e+57
          1691.34230	         7.74746e+57
          1692.14860	         8.43049e+57
          1692.95490	         7.46754e+57
          1693.76120	         6.45951e+57
          1694.56750	         6.90970e+57
          1695.37380	         9.24100e+57
          1696.18010	         9.04671e+57
          1696.98640	         9.20490e+57
          1697.79270	         9.16382e+57
          1698.59900	         7.47803e+57
          1699.40530	         7.51567e+57
          1700.21160	         7.23715e+57
          1701.01790	         8.22074e+57
          1701.82420	         8.04271e+57
          1702.63050	         8.11076e+57
          1703.43680	         8.89679e+57
          1704.24310	         8.75230e+57
          1705.04940	         7.85022e+57
          1705.85570	         8.03926e+57
          1706.66200	         8.20316e+57
          1707.46830	         7.83013e+57
          1708.27460	         8.50600e+57
          1709.08090	         8.35069e+57
          1709.88720	         6.00027e+57
          1710.69350	         5.33410e+57
          1711.49980	         7.24364e+57
          1712.30610	         8.68368e+57
          1713.11240	         9.61366e+57
          1713.91870	         8.00765e+57
          1714.72500	         7.65710e+57
          1715.53130	         7.78143e+57
          1716.33760	         7.52783e+57
          1717.14390	         7.27079e+57
          1717.95020	         8.75799e+57
          1718.75650	         9.06913e+57
          1719.56280	         8.31048e+57
          1720.36910	         7.74130e+57
          1721.17540	         7.50351e+57
          1721.98170	         5.47436e+57
          1722.78800	         6.07847e+57
          1723.59430	         7.29688e+57
          1724.40060	         8.13132e+57
          1725.20690	         8.72120e+57
          1726.01320	         8.17980e+57
          1726.81950	         7.28650e+57
          1727.62580	         7.27883e+57
          1728.43210	         7.02523e+57
          1729.23840	         7.48215e+57
          1730.04470	         7.05393e+57
          1730.85100	         7.81713e+57
          1731.65730	         8.89850e+57
          1732.46360	         8.52659e+57
          1733.26990	         7.00610e+57
          1734.07620	         6.74503e+57
          1734.88250	         7.92498e+57
          1735.68880	         8.27521e+57
          1736.49510	         7.87223e+57
          1737.30140	         8.25718e+57
          1738.10770	         8.19464e+57
          1738.91400	         8.32041e+57
          1739.72030	         7.56570e+57
          1740.52660	         5.91448e+57
          1741.33290	         5.70575e+57
          1742.13920	         5.75564e+57
          1742.94550	         6.37066e+57
          1743.75180	         7.47449e+57
          1744.55810	         7.56906e+57
          1745.36440	         6.87449e+57
          1746.17070	         6.23296e+57
          1746.97700	         5.57419e+57
          1747.78330	         6.50378e+57
          1748.58960	         7.34719e+57
          1749.39590	         7.20328e+57
          1750.20220	         6.64655e+57
          1751.00850	         5.29847e+57
          1751.81480	         6.14233e+57
          1752.62110	         7.12173e+57
          1753.42740	         7.65627e+57
          1754.23370	         6.53319e+57
          1755.04000	         7.60262e+57
          1755.84630	         8.64958e+57
          1756.65260	         9.40945e+57
          1757.45890	         9.45463e+57
          1758.26520	         6.82328e+57
          1759.07150	         9.26329e+57
          1759.87780	         9.44172e+57
          1760.68410	         7.34736e+57
          1761.49040	         7.84969e+57
          1762.29670	         6.84550e+57
          1763.10300	         6.85947e+57
          1763.90930	         7.63787e+57
          1764.71560	         7.64754e+57
          1765.52190	         8.04497e+57
          1766.32820	         8.69066e+57
          1767.13450	         8.19911e+57
          1767.94080	         6.25210e+57
          1768.74710	         6.12717e+57
          1769.55340	         7.00267e+57
          1770.35970	         6.48253e+57
          1771.16600	         7.01531e+57
          1771.97230	         7.81974e+57
          1772.77860	         7.85391e+57
          1773.58490	         7.14010e+57
          1774.39120	         5.75003e+57
          1775.19750	         5.78683e+57
          1776.00380	         6.88193e+57
          1776.81010	         6.98856e+57
          1777.61640	         6.88840e+57
          1778.42270	         7.31926e+57
          1779.22900	         7.12950e+57
          1780.03530	         6.77870e+57
          1780.84160	         7.00545e+57
          1781.64790	         7.99922e+57
          1782.45420	         7.53680e+57
          1783.26050	         7.20042e+57
          1784.06680	         7.14666e+57
          1784.87310	         6.96572e+57
          1785.67940	         6.76607e+57
          1786.48570	         6.58880e+57
          1787.29200	         6.62290e+57
          1788.09830	         6.30823e+57
          1788.90460	         6.14244e+57
          1789.71090	         5.61127e+57
          1790.51720	         4.55353e+57
          1791.32350	         6.85049e+57
          1792.12980	         8.74284e+57
          1792.93610	         8.14472e+57
          1793.74240	         6.64944e+57
          1794.54870	         7.14145e+57
          1795.35500	         8.13322e+57
          1796.16130	         7.25128e+57
          1796.96760	         6.38075e+57
          1797.77390	         7.63947e+57
          1798.58020	         7.69613e+57
          1799.38650	         6.84777e+57
          1800.19280	         6.91563e+57
          1800.99910	         7.05207e+57
          1801.80540	         7.41281e+57
          1802.61170	         8.12653e+57
          1803.41800	         8.60175e+57
          1804.22430	         7.01137e+57
          1805.03060	         6.35683e+57
          1805.83690	         7.27871e+57
          1806.64320	         7.57395e+57
          1807.44950	         7.21802e+57
          1808.25580	         6.69908e+57
          1809.06210	         8.23184e+57
          1809.86840	         7.88489e+57
          1810.67470	         7.97909e+57
          1811.48100	         8.84709e+57
          1812.28730	         9.21268e+57
          1813.09360	         7.71562e+57
          1813.89990	         7.85855e+57
          1814.70620	         7.38947e+57
          1815.51250	         7.67214e+57
          1816.31880	         7.44393e+57
          1817.12510	         7.35243e+57
          1817.93140	         7.44906e+57
          1818.73770	         7.94831e+57
          1819.54400	         8.23705e+57
          1820.35030	         8.06389e+57
          1821.15660	         6.38600e+57
          1821.96290	         5.78465e+57
          1822.76920	         7.21572e+57
          1823.57550	         7.67450e+57
          1824.38180	         7.24092e+57
          1825.18810	         8.63769e+57
          1825.99440	         8.80183e+57
          1826.80070	         8.20440e+57
          1827.60700	         6.99697e+57
          1828.41330	         6.16034e+57
          1829.21960	         6.22292e+57
          1830.02590	         6.87741e+57
          1830.83220	         8.07326e+57
          1831.63850	         8.53990e+57
          1832.44480	         7.71447e+57
          1833.25110	         8.44641e+57
          1834.05740	         8.55688e+57
          1834.86370	         6.72128e+57
          1835.67000	         4.92387e+57
          1836.47630	         6.64523e+57
          1837.28260	         8.55093e+57
          1838.08890	         8.28855e+57
          1838.89520	         8.10826e+57
          1839.70150	         8.22036e+57
          1840.50780	         8.18313e+57
          1841.31410	         7.12512e+57
          1842.12040	         6.45751e+57
          1842.92670	         7.07494e+57
          1843.73300	         7.08796e+57
          1844.53930	         6.80783e+57
          1845.34560	         7.92735e+57
          1846.15190	         8.09083e+57
          1846.95820	         7.85964e+57
          1847.76450	         7.18725e+57
          1848.57080	         6.71940e+57
          1849.37710	         6.39624e+57
          1850.18340	         7.20020e+57
          1850.98970	         7.69138e+57
          1851.79600	         7.72147e+57
          1852.60230	         6.73064e+57
          1853.40860	         7.31638e+57
          1854.21490	         7.56359e+57
          1855.02120	         6.04627e+57
          1855.82750	         5.40372e+57
          1856.63380	         6.16994e+57
          1857.44010	         7.41053e+57
          1858.24640	         7.22053e+57
          1859.05270	         6.43345e+57
          1859.85900	         6.29569e+57
          1860.66530	         6.57527e+57
          1861.47160	         6.25148e+57
          1862.27790	         6.20527e+57
          1863.08420	         7.90824e+57
          1863.89050	         7.68567e+57
          1864.69680	         5.97292e+57
          1865.50310	         6.71577e+57
          1866.30940	         6.96812e+57
          1867.11570	         6.48057e+57
          1867.92200	         7.06593e+57
          1868.72830	         6.91576e+57
          1869.53460	         7.31584e+57
          1870.34090	         7.67770e+57
          1871.14720	         8.24520e+57
          1871.95350	         7.63120e+57
          1872.75980	         7.76072e+57
          1873.56610	         6.47567e+57
          1874.37240	         5.81057e+57
          1875.17870	         5.61684e+57
          1875.98500	         6.92520e+57
          1876.79130	         8.33211e+57
          1877.59760	         7.91429e+57
          1878.40390	         6.23210e+57
          1879.21020	         6.08639e+57
          1880.01650	         6.71531e+57
          1880.82280	         8.99232e+57
          1881.62910	         9.23018e+57
          1882.43540	         9.83999e+57
          1883.24170	         8.24475e+57
          1884.04800	         6.33018e+57
          1884.85430	         7.46435e+57
          1885.66060	         8.04744e+57
          1886.46690	         7.96290e+57
          1887.27320	         7.68581e+57
          1888.07950	         6.58380e+57
          1888.88580	         6.58083e+57
          1889.69210	         8.98631e+57
          1890.49840	         8.04736e+57
          1891.30470	         7.37764e+57
          1892.11100	         7.95573e+57
          1892.91730	         8.49906e+57
          1893.72360	         8.12756e+57
          1894.52990	         7.59033e+57
          1895.33620	         8.46280e+57
          1896.14250	         6.65030e+57
          1896.94880	         5.93381e+57
          1897.75510	         5.20339e+57
          1898.56140	         6.07588e+57
          1899.36770	         7.70679e+57
          1900.17400	         7.29543e+57
          1900.98030	         6.78551e+57
          1901.78660	         7.41915e+57
          1902.59290	         7.56514e+57
          1903.39920	         6.86873e+57
          1904.20550	         8.21103e+57
          1905.01180	         8.87706e+57
          1905.81810	         9.85760e+57
          1906.62440	         1.21831e+58
          1907.43070	         1.50162e+58
          1908.23700	         1.60484e+58
          1909.04330	         1.36615e+58
          1909.84960	         1.15510e+58
          1910.65590	         1.09029e+58
          1911.46220	         9.06577e+57
          1912.26850	         6.68324e+57
          1913.07480	         5.36687e+57
          1913.88110	         5.67581e+57
          1914.68740	         5.95983e+57
          1915.49370	         5.59311e+57
          1916.30000	         5.82990e+57
          1917.10630	         6.65435e+57
          1917.91260	         6.84622e+57
          1918.71890	         5.92430e+57
          1919.52520	         6.04403e+57
          1920.33150	         5.92896e+57
          1921.13780	         6.32448e+57
          1921.94410	         7.53707e+57
          1922.75040	         7.37398e+57
          1923.55670	         7.48169e+57
          1924.36300	         7.51077e+57
          1925.16930	         7.20922e+57
          1925.97560	         5.97790e+57
          1926.78190	         4.52513e+57
          1927.58820	         5.92076e+57
          1928.39450	         5.92209e+57
          1929.20080	         5.09595e+57
          1930.00710	         5.64001e+57
          1930.81340	         6.68930e+57
          1931.61970	         6.83353e+57
          1932.42600	         8.08192e+57
          1933.23230	         9.46382e+57
          1934.03860	         6.54198e+57
          1934.84490	         5.98041e+57
          1935.65120	         8.00941e+57
          1936.45750	         9.65185e+57
          1937.26380	         7.52555e+57
          1938.07010	         6.65481e+57
          1938.87640	         6.48944e+57
          1939.68270	         6.85229e+57
          1940.48900	         7.81239e+57
          1941.29530	         7.65403e+57
          1942.10160	         7.13755e+57
          1942.90790	         5.85008e+57
          1943.71420	         5.61911e+57
          1944.52050	         5.88074e+57
          1945.32680	         6.44176e+57
          1946.13310	         7.19578e+57
          1946.93940	         8.16360e+57
          1947.74570	         6.84010e+57
          1948.55200	         6.90496e+57
          1949.35830	         6.45898e+57
          1950.16460	         6.55828e+57
          1950.97090	         6.68456e+57
          1951.77720	         7.44808e+57
          1952.58350	         8.31679e+57
          1953.38980	         6.57717e+57
          1954.19610	         4.39541e+57
          1955.00240	         4.67656e+57
          1955.80870	         5.04543e+57
          1956.61500	         6.26573e+57
          1957.42130	         5.78213e+57
          1958.22760	         5.13097e+57
          1959.03390	         6.45873e+57
          1959.84020	         7.52196e+57
          1960.64650	         7.33925e+57
          1961.45280	         5.70515e+57
          1962.25910	         5.82267e+57
          1963.06540	         6.74281e+57
          1963.87170	         5.93270e+57
          1964.67800	         6.34574e+57
          1965.48430	         5.82256e+57
          1966.29060	         5.88866e+57
          1967.09690	         6.68611e+57
          1967.90320	         6.94744e+57
          1968.70950	         7.07019e+57
          1969.51580	         6.50948e+57
          1970.32210	         6.96407e+57
          1971.12840	         6.69675e+57
          1971.93470	         6.00539e+57
          1972.74100	         5.69994e+57
          1973.54730	         6.95297e+57
          1974.35360	         7.32264e+57
          1975.15990	         7.49322e+57
          1975.96620	         5.65345e+57
          1976.77250	         6.27453e+57
          1977.57880	         7.26491e+57
          1978.38510	         6.17617e+57
          1979.19140	         7.08416e+57
          1979.99770	         8.31860e+57
          1980.80400	         7.51671e+57
          1981.61030	         6.54681e+57
          1982.41660	         5.82138e+57
          1983.22290	         5.57619e+57
          1984.02920	         4.88929e+57
          1984.83550	         5.08372e+57
          1985.64180	         6.68807e+57
          1986.44810	         7.67617e+57
          1987.25440	         7.19699e+57
          1988.06070	         6.58591e+57
          1988.86700	         5.88711e+57
          1989.67330	         6.37260e+57
          1990.47960	         6.32603e+57
          1991.28590	         6.02776e+57
          1992.09220	         6.77012e+57
          1992.89850	         5.79616e+57
          1993.70480	         5.11161e+57
          1994.51110	         4.54798e+57
          1995.31740	         4.82974e+57
          1996.12370	         5.86268e+57
          1996.93000	         6.10113e+57
          1997.73630	         6.68733e+57
          1998.54260	         6.20880e+57
          1999.34890	         7.67747e+57
          2000.15520	         6.56374e+57
          2000.96150	         5.72736e+57
          2001.76780	         6.42318e+57
          2002.57410	         5.77174e+57
          2003.38040	         6.66124e+57
          2004.18670	         7.49588e+57
          2004.99300	         6.80832e+57
          2005.79930	         7.17902e+57
          2006.60560	         6.40575e+57
          2007.41190	         6.41032e+57
          2008.21820	         6.90420e+57
          2009.02450	         7.22726e+57
          2009.83080	         6.08808e+57
          2010.63710	         6.86415e+57
          2011.44340	         7.44556e+57
          2012.24970	         6.69611e+57
          2013.05600	         6.98061e+57
          2013.86230	         6.24873e+57
          2014.66860	         5.77733e+57
          2015.47490	         6.56550e+57
          2016.28120	         6.04679e+57
          2017.08750	         6.60712e+57
          2017.89380	         6.71896e+57
          2018.70010	         7.25524e+57
          2019.50640	         6.91069e+57
          2020.31270	         6.79807e+57
          2021.11900	         7.89737e+57
          2021.92530	         6.73214e+57
          2022.73160	         7.74998e+57
          2023.53790	         6.45039e+57
          2024.34420	         4.19287e+57
          2025.15050	         4.36041e+57
          2025.95680	         5.13607e+57
          2026.76310	         6.46311e+57
          2027.56940	         6.68846e+57
          2028.37570	         5.78183e+57
          2029.18200	         5.27587e+57
          2029.98830	         6.22370e+57
          2030.79460	         7.11167e+57
          2031.60090	         6.49292e+57
          2032.40720	         6.11525e+57
          2033.21350	         5.93304e+57
          2034.01980	         6.36776e+57
          2034.82610	         5.00445e+57
          2035.63240	         4.62297e+57
          2036.43870	         5.98031e+57
          2037.24500	         6.93101e+57
          2038.05130	         6.81730e+57
          2038.85760	         5.83392e+57
          2039.66390	         5.31620e+57
          2040.47020	         5.55794e+57
          2041.27650	         6.40679e+57
          2042.08280	         5.22315e+57
          2042.88910	         5.25035e+57
          2043.69540	         6.33118e+57
          2044.50170	         6.18835e+57
          2045.30800	         5.51180e+57
          2046.11430	         5.09470e+57
          2046.92060	         6.40477e+57
          2047.72690	         5.71141e+57
          2048.53320	         5.94242e+57
          2049.33950	         4.99130e+57
          2050.14580	         5.79752e+57
          2050.95210	         6.78281e+57
          2051.75840	         6.91166e+57
          2052.56470	         4.66351e+57
          2053.37100	         3.30282e+57
          2054.17730	         4.13961e+57
          2054.98360	         5.00622e+57
          2055.78990	         2.80931e+57
          2056.59620	         2.77850e+57
          2057.40250	         5.11783e+57
          2058.20880	         6.37627e+57
          2059.01510	         5.99117e+57
          2059.82140	         6.02253e+57
          2060.62770	         9.63957e+57
          2061.43400	         1.53597e+58
          2062.24030	         1.26319e+58
          2063.04660	         5.06797e+57
          2063.85290	         2.11393e+57
          2064.65920	        -3.73414e+57
          2065.46550	        -8.10574e+57
          2066.27180	        -8.59270e+57
          2067.07810	         3.97345e+57
          2067.88440	         5.14557e+57
          2068.69070	         5.69221e+57
          2069.49700	         4.45937e+57
          2070.30330	         3.89700e+57
          2071.10960	         5.95763e+57
          2071.91590	         6.71499e+57
          2072.72220	         3.61565e+57
          2073.52850	         4.54111e+57
          2074.33480	         5.34864e+57
          2075.14110	         4.09755e+57
          2075.94740	         3.88809e+57
          2076.75370	         5.26970e+57
          2077.56000	         5.14363e+57
          2078.36630	         5.70151e+57
          2079.17260	         4.93911e+57
          2079.97890	         5.60431e+57
          2080.78520	         7.01406e+57
          2081.59150	         3.92108e+57
          2082.39780	         3.23001e+57
          2083.20410	         3.50774e+57
          2084.01040	         2.46785e+57
          2084.81670	         3.35600e+57
          2085.62300	         2.99742e+57
          2086.42930	         2.40556e+57
          2087.23560	         3.07416e+57
          2088.04190	         3.20106e+57
          2088.84820	         3.49398e+57
          2089.65450	         1.84019e+57
          2090.46080	         2.79290e+57
          2091.26710	         3.28100e+57
          2092.07340	         2.75799e+57
          2092.87970	         3.25930e+57
          2093.68600	         9.98887e+56
          2094.49230	         9.35400e+56
          2095.29860	         4.88089e+57
          2096.10490	         3.24667e+57
          2096.91120	         5.91939e+56
          2097.71750	        -1.77998e+57
          2098.52380	        -4.48385e+56
          2099.33010	         5.23679e+56
          2100.13640	         2.93402e+56
          2100.94270	         1.69271e+57
          2101.74900	         3.42820e+57
          2102.55530	         3.14403e+57
          2103.36160	         2.92346e+57
          2104.16790	         1.41370e+57
          2104.97420	         2.89314e+57
          2105.78050	         3.52197e+57
          2106.58680	         2.68847e+57
          2107.39310	        -9.50402e+56
          2108.19940	        -4.26590e+56
          2109.00570	         1.10435e+57
          2109.81200	         2.06951e+56
          2110.61830	         3.42556e+57
          2111.42460	        -7.31563e+56
          2112.23090	         2.50390e+56
          2113.03720	         2.36648e+57
          2113.84350	         2.24609e+57
          2114.64980	         4.29668e+57
          2115.45610	        -3.58626e+57
          2116.26240	        -4.52961e+56
          2117.06870	        -1.18306e+57
          2117.87500	        -6.39794e+56
          2118.68130	         2.03300e+57
          2119.48760	         2.56668e+57
          2120.29390	         1.82689e+57
          2121.10020	         2.01513e+56
          2121.90650	        -1.95757e+57
          2122.71280	         3.12480e+57
          2123.51910	         3.06414e+57
          2124.32540	        -1.49416e+57
          2125.13170	        -2.63572e+57
          2125.93800	         5.92166e+55
          2126.74430	        -5.36223e+57
          2127.55060	        -6.46009e+57
          2128.35690	        -5.22382e+57
          2129.16320	        -7.27611e+57
          2129.96950	        -5.42529e+57
          2130.77580	         1.41653e+57
          2131.58210	         8.26911e+56
          2132.38840	         1.00944e+57
          2133.19470	        -3.35668e+57
          2134.00100	        -7.19212e+57
          2134.80730	        -1.07603e+57
          2135.61360	         6.33308e+57
          2136.41990	         5.95896e+57
          2137.22620	        -1.99071e+57
          2138.03250	         1.10700e+58
          2138.83880	        -2.44614e+57
          2139.64510	        -1.95362e+57
          2140.45140	        -8.40182e+57
          2141.25770	        -1.42026e+58
          2142.06400	        -4.62811e+56
          2142.87030	         3.99869e+57
          2143.67660	        -3.38335e+57
          2144.48290	         1.93545e+57
          2145.28920	         1.08840e+58
          2146.09550	        -7.79319e+57
          2146.90180	        -8.06911e+57
          2147.70810	        -4.79821e+57
          2148.51440	         2.73558e+57
          2149.32070	        -3.25548e+57
          2150.12700	        -1.51117e+58
          2150.93330	        -6.28319e+57
          2151.73960	         5.38794e+57
          2152.54590	         1.41851e+57
          2153.35220	        -2.39274e+57
          2154.15850	        -2.46124e+57
          2154.96480	         2.22209e+57
          2155.77110	        -1.55838e+58
          2156.57740	        -2.08719e+58
          2157.38370	        -5.44589e+57
          2158.19000	        -3.70925e+57
          2158.99630	        -8.17719e+57
          2159.80260	        -1.70301e+58
          2160.60890	        -4.69644e+57
          2161.41520	        -1.86320e+57
          2162.22150	        -3.45914e+57
          2163.02780	        -2.88621e+55
          2163.83410	        -2.57149e+57
          2164.64040	        -8.30152e+56
          2165.44670	        -7.67780e+57
          2166.25300	        -1.11997e+58
          2167.05930	        -1.35394e+58
          2167.86560	        -4.41398e+57
          2168.67190	        -6.74505e+57
          2169.47820	         4.68576e+56
          2170.28450	        -2.49741e+57
          2171.09080	        -5.29179e+57
          2171.89710	        -2.71853e+57
          2172.70340	         1.99753e+57
          2173.50970	        -7.62977e+57
          2174.31600	        -5.67166e+57
          2175.12230	        -3.02771e+57
          2175.92860	        -4.55963e+57
          2176.73490	        -4.42898e+57
          2177.54120	        -7.12089e+57
          2178.34750	        -3.75220e+57
          2179.15380	                 nan
          2179.96010	                 nan
          2180.76640	                 nan
          2181.57270	                 nan
          2182.37900	                 nan
          2183.18530	                 nan
          2183.99160	                 nan
          2184.79790	                 nan
          2185.60420	                 nan
          2186.41050	                 nan
          2187.21680	                 nan
          2188.02310	                 nan
          2188.82940	                 nan
          2189.63570	                 nan
          2190.44200	                 nan
          2191.24830	                 nan
          2192.05460	                 nan
          2192.86090	                 nan
          2193.66720	                 nan
          2194.47350	                 nan
          2195.27980	                 nan
          2196.08610	                 nan
          2196.89240	                 nan
          2197.69870	                 nan
          2198.50500	                 nan
          2199.31130	                 nan
          2200.11760	                 nan
          2200.92390	                 nan
          2201.73020	                 nan
          2202.53650	                 nan
          2203.34280	                 nan
          2204.14910	                 nan
          2204.95540	                 nan
          2205.76170	                 nan
          2206.56800	                 nan
          2207.37430	                 nan
          2208.18060	                 nan
          2208.98690	                 nan
          2209.79320	                 nan
          2210.59950	                 nan
          2211.40580	                 nan
          2212.21210	                 nan
          2213.01840	                 nan
          2213.82470	                 nan
          2214.63100	                 nan
          2215.43730	         0.00000e+00
