#sample_6_stacked_spectrum_rest_UV-bands_median_H-alpha_noDC.txt
#median Lum: 1.71994e+42
#Rest-frame wavelength (A) | Luminosity (erg/s/A)
#
          1110.00000	         0.00000e+00
          1110.80630	        -2.07362e+59
          1111.61260	         8.37358e+58
          1112.41890	        -5.50465e+58
          1113.22520	        -1.95123e+58
          1114.03150	        -8.84379e+58
          1114.83780	         3.89502e+59
          1115.64410	         8.35440e+58
          1116.45040	         1.08104e+59
          1117.25670	         1.10162e+59
          1118.06300	         4.34021e+58
          1118.86930	         4.15297e+58
          1119.67560	         9.86477e+58
          1120.48190	        -3.25259e+58
          1121.28820	        -2.01031e+59
          1122.09450	        -3.37913e+58
          1122.90080	         7.60202e+58
          1123.70710	         9.01415e+58
          1124.51340	         1.62717e+59
          1125.31970	        -2.82836e+57
          1126.12600	        -2.51304e+57
          1126.93230	        -1.64730e+58
          1127.73860	        -1.01595e+59
          1128.54490	        -3.33228e+58
          1129.35120	         1.22227e+58
          1130.15750	        -4.60586e+57
          1130.96380	        -1.80332e+58
          1131.77010	         4.36693e+58
          1132.57640	         6.15570e+58
          1133.38270	         3.24220e+58
          1134.18900	         4.85380e+57
          1134.99530	         9.65376e+57
          1135.80160	         1.90438e+58
          1136.60790	         2.01341e+58
          1137.41420	         2.31495e+58
          1138.22050	         2.95078e+58
          1139.02680	         3.80992e+58
          1139.83310	         3.24970e+58
          1140.63940	         1.28328e+58
          1141.44570	        -2.48027e+58
          1142.25200	         2.01645e+57
          1143.05830	         1.77799e+58
          1143.86460	         2.83810e+58
          1144.67090	         4.72613e+58
          1145.47720	         3.25147e+58
          1146.28350	         2.35241e+58
          1147.08980	         1.45252e+58
          1147.89610	         2.26862e+58
          1148.70240	         2.57442e+58
          1149.50870	         2.03760e+58
          1150.31500	         1.16580e+58
          1151.12130	         1.13175e+58
          1151.92760	         5.64100e+57
          1152.73390	        -6.32708e+57
          1153.54020	        -5.33854e+57
          1154.34650	         2.14876e+58
          1155.15280	         2.09938e+58
          1155.95910	         1.09510e+58
          1156.76540	         5.70934e+57
          1157.57170	         1.86930e+57
          1158.37800	         2.67342e+57
          1159.18430	        -1.87248e+57
          1159.99060	         4.74465e+57
          1160.79690	         5.70716e+57
          1161.60320	         2.84579e+57
          1162.40950	         4.29822e+57
          1163.21580	         2.01093e+58
          1164.02210	         7.95127e+57
          1164.82840	         1.13884e+58
          1165.63470	         2.38542e+58
          1166.44100	         2.16160e+58
          1167.24730	         1.29522e+58
          1168.05360	         2.92340e+57
          1168.85990	         7.54680e+57
          1169.66620	         1.11305e+58
          1170.47250	         1.21785e+58
          1171.27880	         1.35056e+58
          1172.08510	         1.90576e+58
          1172.89140	         1.99586e+58
          1173.69770	         1.06499e+58
          1174.50400	         1.18578e+58
          1175.31030	         1.65063e+58
          1176.11660	         1.77951e+58
          1176.92290	         1.35926e+58
          1177.72920	         1.13376e+58
          1178.53550	         9.67739e+57
          1179.34180	         4.22175e+57
          1180.14810	         7.20498e+57
          1180.95440	         9.16624e+57
          1181.76070	         8.68907e+57
          1182.56700	         9.63337e+57
          1183.37330	         7.57020e+57
          1184.17960	         6.90282e+57
          1184.98590	         7.31819e+57
          1185.79220	         6.27042e+57
          1186.59850	         8.78696e+57
          1187.40480	         1.54112e+58
          1188.21110	         1.02266e+58
          1189.01740	         7.91039e+57
          1189.82370	         1.07772e+58
          1190.63000	         1.31617e+58
          1191.43630	         1.18726e+58
          1192.24260	         8.74863e+57
          1193.04890	         1.22275e+58
          1193.85520	         9.36516e+57
          1194.66150	         3.94624e+57
          1195.46780	         7.99970e+57
          1196.27410	         1.07134e+58
          1197.08040	         8.52658e+57
          1197.88670	         1.39003e+58
          1198.69300	         1.35983e+58
          1199.49930	         1.50186e+58
          1200.30560	         1.15472e+58
          1201.11190	         1.15469e+58
          1201.91820	         1.15528e+58
          1202.72450	         5.68999e+57
          1203.53080	         1.43637e+58
          1204.33710	         1.47556e+58
          1205.14340	         4.88108e+57
          1205.94970	         5.48916e+57
          1206.75600	         9.88582e+57
          1207.56230	         8.58988e+57
          1208.36860	         1.05745e+58
          1209.17490	         3.22625e+57
          1209.98120	         6.53432e+57
          1210.78750	         1.03592e+58
          1211.59380	         1.33238e+58
          1212.40010	         2.13645e+58
          1213.20640	         2.29706e+58
          1214.01270	         2.36184e+58
          1214.81900	         2.91844e+58
          1215.62530	         4.43153e+58
          1216.43160	         8.90050e+58
          1217.23790	         1.54064e+59
          1218.04420	         1.16216e+59
          1218.85050	         8.58385e+58
          1219.65680	         5.65941e+58
          1220.46310	         3.22372e+58
          1221.26940	         2.15268e+58
          1222.07570	         1.47476e+58
          1222.88200	         1.15928e+58
          1223.68830	         1.08498e+58
          1224.49460	         8.00329e+57
          1225.30090	         6.09683e+57
          1226.10720	         5.53355e+57
          1226.91350	         5.54113e+57
          1227.71980	         9.62787e+57
          1228.52610	         1.21998e+58
          1229.33240	         9.61257e+57
          1230.13870	         8.55152e+57
          1230.94500	         5.90093e+57
          1231.75130	         7.55362e+57
          1232.55760	         9.31607e+57
          1233.36390	         8.85275e+57
          1234.17020	         8.67633e+57
          1234.97650	         8.30575e+57
          1235.78280	         8.08959e+57
          1236.58910	         9.67215e+57
          1237.39540	         1.19997e+58
          1238.20170	         1.21438e+58
          1239.00800	         9.95052e+57
          1239.81430	         1.19942e+58
          1240.62060	         1.19524e+58
          1241.42690	         1.01682e+58
          1242.23320	         1.17567e+58
          1243.03950	         9.09070e+57
          1243.84580	         8.80423e+57
          1244.65210	         9.66488e+57
          1245.45840	         1.03278e+58
          1246.26470	         8.26669e+57
          1247.07100	         6.70477e+57
          1247.87730	         6.14806e+57
          1248.68360	         4.10910e+57
          1249.48990	         6.27608e+57
          1250.29620	         8.42201e+57
          1251.10250	         6.98244e+57
          1251.90880	         7.18950e+57
          1252.71510	         6.63612e+57
          1253.52140	         6.49910e+57
          1254.32770	         1.08687e+58
          1255.13400	         1.45244e+58
          1255.94030	         1.26195e+58
          1256.74660	         9.92462e+57
          1257.55290	         1.16012e+58
          1258.35920	         8.41054e+57
          1259.16550	         5.65044e+57
          1259.97180	         6.49446e+57
          1260.77810	         7.54587e+57
          1261.58440	         9.63296e+57
          1262.39070	         8.91913e+57
          1263.19700	         7.53706e+57
          1264.00330	         8.15549e+57
          1264.80960	         1.02862e+58
          1265.61590	         1.23875e+58
          1266.42220	         1.42662e+58
          1267.22850	         1.33743e+58
          1268.03480	         1.46144e+58
          1268.84110	         1.62910e+58
          1269.64740	         1.36250e+58
          1270.45370	         1.35038e+58
          1271.26000	         1.26018e+58
          1272.06630	         1.05758e+58
          1272.87260	         1.24800e+58
          1273.67890	         1.45761e+58
          1274.48520	         1.13087e+58
          1275.29150	         1.06308e+58
          1276.09780	         1.03528e+58
          1276.90410	         1.51631e+58
          1277.71040	         1.48557e+58
          1278.51670	         1.21036e+58
          1279.32300	         1.33943e+58
          1280.12930	         1.21668e+58
          1280.93560	         1.04672e+58
          1281.74190	         1.22149e+58
          1282.54820	         1.23175e+58
          1283.35450	         8.95557e+57
          1284.16080	         1.21213e+58
          1284.96710	         1.49357e+58
          1285.77340	         1.07697e+58
          1286.57970	         1.21037e+58
          1287.38600	         1.64628e+58
          1288.19230	         1.78173e+58
          1288.99860	         1.40585e+58
          1289.80490	         1.02361e+58
          1290.61120	         1.30600e+58
          1291.41750	         1.48058e+58
          1292.22380	         1.47385e+58
          1293.03010	         1.20029e+58
          1293.83640	         1.11908e+58
          1294.64270	         9.95049e+57
          1295.44900	         8.14125e+57
          1296.25530	         8.82121e+57
          1297.06160	         1.11649e+58
          1297.86790	         1.01920e+58
          1298.67420	         8.64937e+57
          1299.48050	         1.08987e+58
          1300.28680	         1.12563e+58
          1301.09310	         7.45049e+57
          1301.89940	         2.40557e+57
          1302.70570	         5.68321e+57
          1303.51200	         8.40165e+57
          1304.31830	         9.25281e+57
          1305.12460	         9.76680e+57
          1305.93090	         1.13239e+58
          1306.73720	         1.32126e+58
          1307.54350	         1.51032e+58
          1308.34980	         1.36122e+58
          1309.15610	         1.43545e+58
          1309.96240	         1.62064e+58
          1310.76870	         1.51953e+58
          1311.57500	         1.37035e+58
          1312.38130	         1.11229e+58
          1313.18760	         1.23837e+58
          1313.99390	         1.50593e+58
          1314.80020	         1.55013e+58
          1315.60650	         1.31928e+58
          1316.41280	         1.31893e+58
          1317.21910	         1.05117e+58
          1318.02540	         9.97596e+57
          1318.83170	         1.31064e+58
          1319.63800	         1.28046e+58
          1320.44430	         1.10305e+58
          1321.25060	         1.09240e+58
          1322.05690	         1.25440e+58
          1322.86320	         1.21363e+58
          1323.66950	         1.21554e+58
          1324.47580	         1.06449e+58
          1325.28210	         9.68439e+57
          1326.08840	         1.29489e+58
          1326.89470	         1.37623e+58
          1327.70100	         1.04369e+58
          1328.50730	         8.62858e+57
          1329.31360	         9.06679e+57
          1330.11990	         1.01182e+58
          1330.92620	         9.81715e+57
          1331.73250	         9.27389e+57
          1332.53880	         8.57190e+57
          1333.34510	         9.55451e+57
          1334.15140	         8.88395e+57
          1334.95770	         8.62396e+57
          1335.76400	         9.93407e+57
          1336.57030	         9.34338e+57
          1337.37660	         1.01391e+58
          1338.18290	         1.04904e+58
          1338.98920	         1.08938e+58
          1339.79550	         1.29035e+58
          1340.60180	         1.31189e+58
          1341.40810	         1.37878e+58
          1342.21440	         1.17324e+58
          1343.02070	         1.13672e+58
          1343.82700	         1.31580e+58
          1344.63330	         1.28020e+58
          1345.43960	         1.21535e+58
          1346.24590	         1.03197e+58
          1347.05220	         1.13323e+58
          1347.85850	         1.05516e+58
          1348.66480	         1.18056e+58
          1349.47110	         1.25980e+58
          1350.27740	         1.18207e+58
          1351.08370	         1.24826e+58
          1351.89000	         1.16783e+58
          1352.69630	         1.19530e+58
          1353.50260	         1.27911e+58
          1354.30890	         1.13102e+58
          1355.11520	         1.05710e+58
          1355.92150	         1.05325e+58
          1356.72780	         9.58570e+57
          1357.53410	         1.01139e+58
          1358.34040	         1.14191e+58
          1359.14670	         9.86169e+57
          1359.95300	         1.03697e+58
          1360.75930	         1.18184e+58
          1361.56560	         1.07419e+58
          1362.37190	         1.07710e+58
          1363.17820	         1.08808e+58
          1363.98450	         1.17015e+58
          1364.79080	         1.28192e+58
          1365.59710	         1.16418e+58
          1366.40340	         1.07125e+58
          1367.20970	         9.29070e+57
          1368.01600	         8.76964e+57
          1368.82230	         1.08735e+58
          1369.62860	         1.31617e+58
          1370.43490	         1.12469e+58
          1371.24120	         8.96034e+57
          1372.04750	         8.35711e+57
          1372.85380	         1.03539e+58
          1373.66010	         1.15893e+58
          1374.46640	         1.10692e+58
          1375.27270	         1.06390e+58
          1376.07900	         9.38238e+57
          1376.88530	         9.20521e+57
          1377.69160	         8.06882e+57
          1378.49790	         7.19827e+57
          1379.30420	         7.89833e+57
          1380.11050	         9.68445e+57
          1380.91680	         8.35225e+57
          1381.72310	         6.81404e+57
          1382.52940	         7.77650e+57
          1383.33570	         9.42497e+57
          1384.14200	         1.03010e+58
          1384.94830	         1.11197e+58
          1385.75460	         1.16226e+58
          1386.56090	         1.30411e+58
          1387.36720	         1.18063e+58
          1388.17350	         1.23732e+58
          1388.97980	         1.14403e+58
          1389.78610	         9.10119e+57
          1390.59240	         7.80022e+57
          1391.39870	         8.08121e+57
          1392.20500	         8.90632e+57
          1393.01130	         8.60515e+57
          1393.81760	         8.85045e+57
          1394.62390	         7.45480e+57
          1395.43020	         5.50259e+57
          1396.23650	         5.15483e+57
          1397.04280	         7.22621e+57
          1397.84910	         9.38465e+57
          1398.65540	         9.11093e+57
          1399.46170	         9.15682e+57
          1400.26800	         8.70116e+57
          1401.07430	         8.37765e+57
          1401.88060	         8.10092e+57
          1402.68690	         9.55974e+57
          1403.49320	         9.60347e+57
          1404.29950	         9.73984e+57
          1405.10580	         1.01024e+58
          1405.91210	         1.11176e+58
          1406.71840	         1.12101e+58
          1407.52470	         1.04540e+58
          1408.33100	         1.07999e+58
          1409.13730	         1.25122e+58
          1409.94360	         1.20742e+58
          1410.74990	         1.03792e+58
          1411.55620	         9.90193e+57
          1412.36250	         9.57841e+57
          1413.16880	         9.17486e+57
          1413.97510	         8.36567e+57
          1414.78140	         8.88003e+57
          1415.58770	         1.14310e+58
          1416.39400	         1.12702e+58
          1417.20030	         9.64883e+57
          1418.00660	         8.01686e+57
          1418.81290	         9.29585e+57
          1419.61920	         1.10935e+58
          1420.42550	         1.24891e+58
          1421.23180	         1.52491e+58
          1422.03810	         1.33261e+58
          1422.84440	         1.18608e+58
          1423.65070	         1.28652e+58
          1424.45700	         1.09427e+58
          1425.26330	         7.84968e+57
          1426.06960	         8.72474e+57
          1426.87590	         9.48161e+57
          1427.68220	         7.87143e+57
          1428.48850	         9.76400e+57
          1429.29480	         1.03337e+58
          1430.10110	         9.36536e+57
          1430.90740	         9.42219e+57
          1431.71370	         9.62963e+57
          1432.52000	         8.93066e+57
          1433.32630	         8.11206e+57
          1434.13260	         8.32455e+57
          1434.93890	         9.01694e+57
          1435.74520	         9.52683e+57
          1436.55150	         1.03679e+58
          1437.35780	         9.52274e+57
          1438.16410	         9.26922e+57
          1438.97040	         9.04250e+57
          1439.77670	         8.47680e+57
          1440.58300	         8.70069e+57
          1441.38930	         9.36033e+57
          1442.19560	         9.66855e+57
          1443.00190	         9.58067e+57
          1443.80820	         1.12262e+58
          1444.61450	         1.03882e+58
          1445.42080	         8.69708e+57
          1446.22710	         9.57385e+57
          1447.03340	         9.71689e+57
          1447.83970	         1.04565e+58
          1448.64600	         1.09700e+58
          1449.45230	         1.09038e+58
          1450.25860	         1.02814e+58
          1451.06490	         8.95826e+57
          1451.87120	         8.56081e+57
          1452.67750	         8.18684e+57
          1453.48380	         9.56279e+57
          1454.29010	         9.07699e+57
          1455.09640	         8.15607e+57
          1455.90270	         9.33487e+57
          1456.70900	         9.70235e+57
          1457.51530	         9.88691e+57
          1458.32160	         1.15858e+58
          1459.12790	         1.18170e+58
          1459.93420	         1.07362e+58
          1460.74050	         7.12982e+57
          1461.54680	         6.97074e+57
          1462.35310	         8.64184e+57
          1463.15940	         9.55070e+57
          1463.96570	         1.08901e+58
          1464.77200	         1.16699e+58
          1465.57830	         1.00322e+58
          1466.38460	         1.01757e+58
          1467.19090	         9.43561e+57
          1467.99720	         7.98169e+57
          1468.80350	         8.48924e+57
          1469.60980	         9.99653e+57
          1470.41610	         1.09611e+58
          1471.22240	         1.01279e+58
          1472.02870	         9.94892e+57
          1472.83500	         9.39570e+57
          1473.64130	         9.85958e+57
          1474.44760	         1.04879e+58
          1475.25390	         9.57862e+57
          1476.06020	         8.17406e+57
          1476.86650	         7.45567e+57
          1477.67280	         8.14141e+57
          1478.47910	         7.12941e+57
          1479.28540	         6.83022e+57
          1480.09170	         8.89194e+57
          1480.89800	         9.66034e+57
          1481.70430	         8.71397e+57
          1482.51060	         8.02511e+57
          1483.31690	         6.24076e+57
          1484.12320	         7.30879e+57
          1484.92950	         8.50473e+57
          1485.73580	         9.41013e+57
          1486.54210	         9.38790e+57
          1487.34840	         8.89177e+57
          1488.15470	         7.89447e+57
          1488.96100	         7.66817e+57
          1489.76730	         8.13654e+57
          1490.57360	         7.77336e+57
          1491.37990	         7.03272e+57
          1492.18620	         7.56442e+57
          1492.99250	         7.90048e+57
          1493.79880	         8.03983e+57
          1494.60510	         7.81155e+57
          1495.41140	         7.23390e+57
          1496.21770	         8.10741e+57
          1497.02400	         9.44226e+57
          1497.83030	         8.19388e+57
          1498.63660	         6.72283e+57
          1499.44290	         7.01346e+57
          1500.24920	         7.73833e+57
          1501.05550	         8.50407e+57
          1501.86180	         8.81981e+57
          1502.66810	         8.65570e+57
          1503.47440	         7.96952e+57
          1504.28070	         8.34876e+57
          1505.08700	         9.47362e+57
          1505.89330	         9.90721e+57
          1506.69960	         9.17465e+57
          1507.50590	         8.92571e+57
          1508.31220	         8.55599e+57
          1509.11850	         7.62078e+57
          1509.92480	         8.69259e+57
          1510.73110	         8.77007e+57
          1511.53740	         8.18944e+57
          1512.34370	         7.05548e+57
          1513.15000	         8.64120e+57
          1513.95630	         9.65357e+57
          1514.76260	         8.49137e+57
          1515.56890	         8.78881e+57
          1516.37520	         8.15688e+57
          1517.18150	         7.40558e+57
          1517.98780	         6.89739e+57
          1518.79410	         6.61541e+57
          1519.60040	         8.26157e+57
          1520.40670	         9.43435e+57
          1521.21300	         9.02191e+57
          1522.01930	         7.66006e+57
          1522.82560	         8.32918e+57
          1523.63190	         1.00061e+58
          1524.43820	         8.72864e+57
          1525.24450	         6.47158e+57
          1526.05080	         6.54204e+57
          1526.85710	         5.99207e+57
          1527.66340	         6.93749e+57
          1528.46970	         9.03554e+57
          1529.27600	         8.35462e+57
          1530.08230	         7.56372e+57
          1530.88860	         7.66675e+57
          1531.69490	         8.67012e+57
          1532.50120	         1.00555e+58
          1533.30750	         1.00771e+58
          1534.11380	         1.01524e+58
          1534.92010	         9.87099e+57
          1535.72640	         9.48110e+57
          1536.53270	         9.25771e+57
          1537.33900	         8.67861e+57
          1538.14530	         8.74494e+57
          1538.95160	         9.21457e+57
          1539.75790	         1.00069e+58
          1540.56420	         9.98397e+57
          1541.37050	         9.06772e+57
          1542.17680	         7.41410e+57
          1542.98310	         7.49037e+57
          1543.78940	         7.83701e+57
          1544.59570	         6.03087e+57
          1545.40200	         6.98616e+57
          1546.20830	         9.81558e+57
          1547.01460	         1.13456e+58
          1547.82090	         1.17795e+58
          1548.62720	         1.19680e+58
          1549.43350	         1.20715e+58
          1550.23980	         1.13900e+58
          1551.04610	         1.15982e+58
          1551.85240	         1.20850e+58
          1552.65870	         1.11947e+58
          1553.46500	         9.78874e+57
          1554.27130	         8.84907e+57
          1555.07760	         9.85786e+57
          1555.88390	         9.89904e+57
          1556.69020	         8.82673e+57
          1557.49650	         8.50165e+57
          1558.30280	         8.94902e+57
          1559.10910	         8.98491e+57
          1559.91540	         9.22886e+57
          1560.72170	         8.93395e+57
          1561.52800	         8.39799e+57
          1562.33430	         8.90552e+57
          1563.14060	         9.01751e+57
          1563.94690	         8.44746e+57
          1564.75320	         8.22047e+57
          1565.55950	         6.87930e+57
          1566.36580	         7.41246e+57
          1567.17210	         8.95698e+57
          1567.97840	         8.78294e+57
          1568.78470	         9.01074e+57
          1569.59100	         9.88670e+57
          1570.39730	         8.67710e+57
          1571.20360	         6.78966e+57
          1572.00990	         6.90685e+57
          1572.81620	         9.12193e+57
          1573.62250	         1.05578e+58
          1574.42880	         8.57827e+57
          1575.23510	         7.82116e+57
          1576.04140	         8.59850e+57
          1576.84770	         9.00974e+57
          1577.65400	         8.92217e+57
          1578.46030	         1.02713e+58
          1579.26660	         1.12855e+58
          1580.07290	         9.87692e+57
          1580.87920	         7.46432e+57
          1581.68550	         6.94019e+57
          1582.49180	         7.82295e+57
          1583.29810	         7.94847e+57
          1584.10440	         8.70799e+57
          1584.91070	         8.58539e+57
          1585.71700	         8.56689e+57
          1586.52330	         8.69022e+57
          1587.32960	         8.41963e+57
          1588.13590	         8.02271e+57
          1588.94220	         8.43143e+57
          1589.74850	         8.56658e+57
          1590.55480	         8.54728e+57
          1591.36110	         7.92740e+57
          1592.16740	         8.09037e+57
          1592.97370	         8.26559e+57
          1593.78000	         8.53476e+57
          1594.58630	         8.93955e+57
          1595.39260	         8.13214e+57
          1596.19890	         8.81420e+57
          1597.00520	         9.30864e+57
          1597.81150	         7.94445e+57
          1598.61780	         6.97894e+57
          1599.42410	         7.08149e+57
          1600.23040	         5.95920e+57
          1601.03670	         7.19978e+57
          1601.84300	         7.37320e+57
          1602.64930	         7.88433e+57
          1603.45560	         9.05070e+57
          1604.26190	         8.53985e+57
          1605.06820	         7.91340e+57
          1605.87450	         7.07134e+57
          1606.68080	         6.84163e+57
          1607.48710	         6.22118e+57
          1608.29340	         6.23617e+57
          1609.09970	         6.71694e+57
          1609.90600	         6.99552e+57
          1610.71230	         5.86061e+57
          1611.51860	         5.97545e+57
          1612.32490	         7.04610e+57
          1613.13120	         8.69240e+57
          1613.93750	         8.23408e+57
          1614.74380	         8.56536e+57
          1615.55010	         8.65662e+57
          1616.35640	         8.19056e+57
          1617.16270	         9.76006e+57
          1617.96900	         9.80876e+57
          1618.77530	         7.28073e+57
          1619.58160	         8.07050e+57
          1620.38790	         8.27748e+57
          1621.19420	         8.44542e+57
          1622.00050	         7.95654e+57
          1622.80680	         9.35779e+57
          1623.61310	         9.36995e+57
          1624.41940	         8.42278e+57
          1625.22570	         9.76440e+57
          1626.03200	         9.40669e+57
          1626.83830	         8.67236e+57
          1627.64460	         7.70699e+57
          1628.45090	         6.86028e+57
          1629.25720	         8.54325e+57
          1630.06350	         9.82518e+57
          1630.86980	         7.12165e+57
          1631.67610	         8.53543e+57
          1632.48240	         8.87067e+57
          1633.28870	         7.97536e+57
          1634.09500	         9.24977e+57
          1634.90130	         9.91199e+57
          1635.70760	         7.81227e+57
          1636.51390	         6.89364e+57
          1637.32020	         6.60151e+57
          1638.12650	         8.01461e+57
          1638.93280	         8.76459e+57
          1639.73910	         1.01899e+58
          1640.54540	         1.11324e+58
          1641.35170	         9.80088e+57
          1642.15800	         1.05128e+58
          1642.96430	         9.16903e+57
          1643.77060	         8.39498e+57
          1644.57690	         8.33859e+57
          1645.38320	         8.68298e+57
          1646.18950	         7.60373e+57
          1646.99580	         9.12802e+57
          1647.80210	         8.88448e+57
          1648.60840	         7.22270e+57
          1649.41470	         7.25648e+57
          1650.22100	         6.64418e+57
          1651.02730	         6.79773e+57
          1651.83360	         8.45499e+57
          1652.63990	         8.89862e+57
          1653.44620	         9.03378e+57
          1654.25250	         8.05350e+57
          1655.05880	         7.71215e+57
          1655.86510	         8.70802e+57
          1656.67140	         8.73516e+57
          1657.47770	         8.00736e+57
          1658.28400	         8.12068e+57
          1659.09030	         8.97680e+57
          1659.89660	         9.48803e+57
          1660.70290	         9.62831e+57
          1661.50920	         9.59588e+57
          1662.31550	         8.28368e+57
          1663.12180	         7.60115e+57
          1663.92810	         8.73164e+57
          1664.73440	         1.11297e+58
          1665.54070	         1.26064e+58
          1666.34700	         1.30462e+58
          1667.15330	         1.22019e+58
          1667.95960	         9.48515e+57
          1668.76590	         7.50528e+57
          1669.57220	         6.87821e+57
          1670.37850	         7.54259e+57
          1671.18480	         8.32535e+57
          1671.99110	         6.89200e+57
          1672.79740	         6.68970e+57
          1673.60370	         6.07599e+57
          1674.41000	         6.69661e+57
          1675.21630	         7.13435e+57
          1676.02260	         6.77723e+57
          1676.82890	         6.39288e+57
          1677.63520	         6.74686e+57
          1678.44150	         7.28737e+57
          1679.24780	         8.61574e+57
          1680.05410	         7.40448e+57
          1680.86040	         5.50511e+57
          1681.66670	         5.83072e+57
          1682.47300	         7.20247e+57
          1683.27930	         8.56907e+57
          1684.08560	         9.28164e+57
          1684.89190	         6.74357e+57
          1685.69820	         5.11268e+57
          1686.50450	         4.87109e+57
          1687.31080	         7.14134e+57
          1688.11710	         7.96330e+57
          1688.92340	         7.29331e+57
          1689.72970	         7.25441e+57
          1690.53600	         6.85921e+57
          1691.34230	         6.84444e+57
          1692.14860	         7.23965e+57
          1692.95490	         6.83768e+57
          1693.76120	         6.30634e+57
          1694.56750	         6.70501e+57
          1695.37380	         8.26871e+57
          1696.18010	         8.12205e+57
          1696.98640	         9.41601e+57
          1697.79270	         9.31288e+57
          1698.59900	         8.52621e+57
          1699.40530	         6.72318e+57
          1700.21160	         7.18044e+57
          1701.01790	         8.46792e+57
          1701.82420	         7.65325e+57
          1702.63050	         6.90667e+57
          1703.43680	         7.81191e+57
          1704.24310	         9.61522e+57
          1705.04940	         9.83694e+57
          1705.85570	         8.42130e+57
          1706.66200	         8.51717e+57
          1707.46830	         7.62727e+57
          1708.27460	         8.33741e+57
          1709.08090	         6.44540e+57
          1709.88720	         4.57301e+57
          1710.69350	         5.23337e+57
          1711.49980	         6.56826e+57
          1712.30610	         6.88062e+57
          1713.11240	         8.30235e+57
          1713.91870	         7.55401e+57
          1714.72500	         7.06281e+57
          1715.53130	         8.36698e+57
          1716.33760	         7.97715e+57
          1717.14390	         7.16100e+57
          1717.95020	         8.96790e+57
          1718.75650	         9.24873e+57
          1719.56280	         9.01872e+57
          1720.36910	         7.70135e+57
          1721.17540	         7.53817e+57
          1721.98170	         7.44046e+57
          1722.78800	         7.23737e+57
          1723.59430	         7.27448e+57
          1724.40060	         7.75365e+57
          1725.20690	         8.55240e+57
          1726.01320	         7.66711e+57
          1726.81950	         7.44233e+57
          1727.62580	         7.74752e+57
          1728.43210	         7.07541e+57
          1729.23840	         6.75963e+57
          1730.04470	         8.04811e+57
          1730.85100	         8.31264e+57
          1731.65730	         8.03136e+57
          1732.46360	         7.92695e+57
          1733.26990	         7.27461e+57
          1734.07620	         6.88876e+57
          1734.88250	         6.95761e+57
          1735.68880	         7.98631e+57
          1736.49510	         8.54803e+57
          1737.30140	         8.40896e+57
          1738.10770	         7.27531e+57
          1738.91400	         6.94378e+57
          1739.72030	         7.26612e+57
          1740.52660	         5.78423e+57
          1741.33290	         6.26275e+57
          1742.13920	         6.22930e+57
          1742.94550	         7.18016e+57
          1743.75180	         8.14310e+57
          1744.55810	         8.57848e+57
          1745.36440	         7.86967e+57
          1746.17070	         5.92363e+57
          1746.97700	         5.40916e+57
          1747.78330	         5.94871e+57
          1748.58960	         6.56088e+57
          1749.39590	         6.36448e+57
          1750.20220	         6.25598e+57
          1751.00850	         6.30160e+57
          1751.81480	         7.20494e+57
          1752.62110	         7.19061e+57
          1753.42740	         6.65701e+57
          1754.23370	         6.45446e+57
          1755.04000	         6.11003e+57
          1755.84630	         7.02307e+57
          1756.65260	         8.81693e+57
          1757.45890	         8.54677e+57
          1758.26520	         7.55365e+57
          1759.07150	         8.72537e+57
          1759.87780	         8.07769e+57
          1760.68410	         7.54739e+57
          1761.49040	         7.81613e+57
          1762.29670	         6.37144e+57
          1763.10300	         7.00542e+57
          1763.90930	         8.30154e+57
          1764.71560	         9.03048e+57
          1765.52190	         8.06929e+57
          1766.32820	         8.54773e+57
          1767.13450	         7.45569e+57
          1767.94080	         5.29846e+57
          1768.74710	         6.82140e+57
          1769.55340	         7.23926e+57
          1770.35970	         6.53767e+57
          1771.16600	         7.26123e+57
          1771.97230	         8.16604e+57
          1772.77860	         9.11261e+57
          1773.58490	         8.14897e+57
          1774.39120	         6.12786e+57
          1775.19750	         6.00139e+57
          1776.00380	         6.68615e+57
          1776.81010	         7.05344e+57
          1777.61640	         6.67241e+57
          1778.42270	         6.28458e+57
          1779.22900	         6.64000e+57
          1780.03530	         6.27808e+57
          1780.84160	         6.81666e+57
          1781.64790	         8.11455e+57
          1782.45420	         7.16603e+57
          1783.26050	         6.78419e+57
          1784.06680	         7.07398e+57
          1784.87310	         7.29606e+57
          1785.67940	         7.80970e+57
          1786.48570	         6.30940e+57
          1787.29200	         6.00995e+57
          1788.09830	         5.85665e+57
          1788.90460	         6.00144e+57
          1789.71090	         5.91059e+57
          1790.51720	         4.88306e+57
          1791.32350	         7.85875e+57
          1792.12980	         9.36157e+57
          1792.93610	         7.97379e+57
          1793.74240	         7.27013e+57
          1794.54870	         8.00355e+57
          1795.35500	         8.23398e+57
          1796.16130	         8.17547e+57
          1796.96760	         7.35129e+57
          1797.77390	         7.76997e+57
          1798.58020	         7.76433e+57
          1799.38650	         7.00775e+57
          1800.19280	         7.67504e+57
          1800.99910	         7.81146e+57
          1801.80540	         6.98728e+57
          1802.61170	         8.79587e+57
          1803.41800	         7.84636e+57
          1804.22430	         6.27804e+57
          1805.03060	         6.80151e+57
          1805.83690	         7.69713e+57
          1806.64320	         8.51727e+57
          1807.44950	         8.97772e+57
          1808.25580	         7.56691e+57
          1809.06210	         7.91714e+57
          1809.86840	         7.98069e+57
          1810.67470	         6.32627e+57
          1811.48100	         8.62641e+57
          1812.28730	         8.44930e+57
          1813.09360	         7.48735e+57
          1813.89990	         7.55864e+57
          1814.70620	         7.55050e+57
          1815.51250	         7.31496e+57
          1816.31880	         6.62385e+57
          1817.12510	         6.14621e+57
          1817.93140	         5.99123e+57
          1818.73770	         6.55980e+57
          1819.54400	         7.43412e+57
          1820.35030	         8.28145e+57
          1821.15660	         6.28092e+57
          1821.96290	         5.93851e+57
          1822.76920	         7.69910e+57
          1823.57550	         8.32244e+57
          1824.38180	         7.64585e+57
          1825.18810	         7.80168e+57
          1825.99440	         8.27866e+57
          1826.80070	         7.91857e+57
          1827.60700	         7.16020e+57
          1828.41330	         6.11628e+57
          1829.21960	         7.09847e+57
          1830.02590	         7.63159e+57
          1830.83220	         7.26758e+57
          1831.63850	         7.05311e+57
          1832.44480	         7.33183e+57
          1833.25110	         8.11987e+57
          1834.05740	         8.25151e+57
          1834.86370	         6.70454e+57
          1835.67000	         5.35476e+57
          1836.47630	         7.50197e+57
          1837.28260	         9.95453e+57
          1838.08890	         9.71836e+57
          1838.89520	         8.36541e+57
          1839.70150	         8.05151e+57
          1840.50780	         7.96977e+57
          1841.31410	         7.06754e+57
          1842.12040	         6.95971e+57
          1842.92670	         6.84678e+57
          1843.73300	         6.81670e+57
          1844.53930	         6.52063e+57
          1845.34560	         6.88198e+57
          1846.15190	         7.51125e+57
          1846.95820	         7.30850e+57
          1847.76450	         6.63133e+57
          1848.57080	         6.40798e+57
          1849.37710	         6.89424e+57
          1850.18340	         8.08695e+57
          1850.98970	         7.85263e+57
          1851.79600	         7.37300e+57
          1852.60230	         6.10919e+57
          1853.40860	         6.52761e+57
          1854.21490	         5.92413e+57
          1855.02120	         5.82645e+57
          1855.82750	         4.91823e+57
          1856.63380	         6.09483e+57
          1857.44010	         7.46588e+57
          1858.24640	         7.90866e+57
          1859.05270	         6.40898e+57
          1859.85900	         6.03686e+57
          1860.66530	         6.49903e+57
          1861.47160	         6.81510e+57
          1862.27790	         7.81265e+57
          1863.08420	         8.95104e+57
          1863.89050	         8.67544e+57
          1864.69680	         7.89200e+57
          1865.50310	         7.66575e+57
          1866.30940	         6.92342e+57
          1867.11570	         6.62042e+57
          1867.92200	         7.06174e+57
          1868.72830	         7.38557e+57
          1869.53460	         7.68391e+57
          1870.34090	         7.23313e+57
          1871.14720	         7.67167e+57
          1871.95350	         8.50708e+57
          1872.75980	         7.65066e+57
          1873.56610	         6.34212e+57
          1874.37240	         5.80719e+57
          1875.17870	         5.79068e+57
          1875.98500	         7.57876e+57
          1876.79130	         7.93844e+57
          1877.59760	         6.77095e+57
          1878.40390	         6.67955e+57
          1879.21020	         7.26271e+57
          1880.01650	         7.30381e+57
          1880.82280	         7.91619e+57
          1881.62910	         9.61353e+57
          1882.43540	         9.90147e+57
          1883.24170	         8.38186e+57
          1884.04800	         6.85354e+57
          1884.85430	         7.75351e+57
          1885.66060	         7.90547e+57
          1886.46690	         8.33738e+57
          1887.27320	         6.82667e+57
          1888.07950	         5.89386e+57
          1888.88580	         7.26852e+57
          1889.69210	         8.45831e+57
          1890.49840	         8.03958e+57
          1891.30470	         8.92797e+57
          1892.11100	         9.12821e+57
          1892.91730	         7.33212e+57
          1893.72360	         8.71850e+57
          1894.52990	         7.83204e+57
          1895.33620	         7.31520e+57
          1896.14250	         6.85970e+57
          1896.94880	         7.17313e+57
          1897.75510	         5.24083e+57
          1898.56140	         5.36846e+57
          1899.36770	         8.53479e+57
          1900.17400	         7.14947e+57
          1900.98030	         7.09193e+57
          1901.78660	         7.68285e+57
          1902.59290	         8.06064e+57
          1903.39920	         8.27477e+57
          1904.20550	         8.48664e+57
          1905.01180	         7.93447e+57
          1905.81810	         9.19398e+57
          1906.62440	         1.25972e+58
          1907.43070	         1.61098e+58
          1908.23700	         1.54224e+58
          1909.04330	         1.24813e+58
          1909.84960	         1.14722e+58
          1910.65590	         1.05946e+58
          1911.46220	         9.95896e+57
          1912.26850	         7.69014e+57
          1913.07480	         7.00390e+57
          1913.88110	         6.58134e+57
          1914.68740	         5.32838e+57
          1915.49370	         5.06351e+57
          1916.30000	         5.97768e+57
          1917.10630	         7.20410e+57
          1917.91260	         6.68792e+57
          1918.71890	         6.10298e+57
          1919.52520	         6.23574e+57
          1920.33150	         5.68663e+57
          1921.13780	         6.71069e+57
          1921.94410	         6.71579e+57
          1922.75040	         7.52270e+57
          1923.55670	         7.61310e+57
          1924.36300	         8.12459e+57
          1925.16930	         6.15165e+57
          1925.97560	         5.80484e+57
          1926.78190	         5.18434e+57
          1927.58820	         5.53331e+57
          1928.39450	         5.89169e+57
          1929.20080	         5.53601e+57
          1930.00710	         8.20002e+57
          1930.81340	         8.43300e+57
          1931.61970	         6.93286e+57
          1932.42600	         7.08913e+57
          1933.23230	         8.32914e+57
          1934.03860	         7.43032e+57
          1934.84490	         5.52209e+57
          1935.65120	         8.13305e+57
          1936.45750	         9.23244e+57
          1937.26380	         7.30266e+57
          1938.07010	         7.98634e+57
          1938.87640	         8.05679e+57
          1939.68270	         8.20465e+57
          1940.48900	         8.56404e+57
          1941.29530	         8.16931e+57
          1942.10160	         7.57668e+57
          1942.90790	         7.02122e+57
          1943.71420	         6.98064e+57
          1944.52050	         7.46710e+57
          1945.32680	         6.23864e+57
          1946.13310	         6.91802e+57
          1946.93940	         8.28603e+57
          1947.74570	         8.02018e+57
          1948.55200	         6.80071e+57
          1949.35830	         6.24596e+57
          1950.16460	         5.33772e+57
          1950.97090	         6.29639e+57
          1951.77720	         7.22083e+57
          1952.58350	         7.18879e+57
          1953.38980	         6.31925e+57
          1954.19610	         4.82131e+57
          1955.00240	         3.76499e+57
          1955.80870	         5.47725e+57
          1956.61500	         6.38708e+57
          1957.42130	         6.61230e+57
          1958.22760	         6.69018e+57
          1959.03390	         6.70023e+57
          1959.84020	         7.38380e+57
          1960.64650	         7.01592e+57
          1961.45280	         6.44018e+57
          1962.25910	         6.46487e+57
          1963.06540	         6.25474e+57
          1963.87170	         7.35200e+57
          1964.67800	         6.72987e+57
          1965.48430	         7.07324e+57
          1966.29060	         7.06111e+57
          1967.09690	         8.28097e+57
          1967.90320	         7.26902e+57
          1968.70950	         8.29997e+57
          1969.51580	         7.08805e+57
          1970.32210	         7.90602e+57
          1971.12840	         7.06559e+57
          1971.93470	         4.69554e+57
          1972.74100	         4.89944e+57
          1973.54730	         7.01991e+57
          1974.35360	         7.55369e+57
          1975.15990	         8.32787e+57
          1975.96620	         6.59402e+57
          1976.77250	         7.38761e+57
          1977.57880	         8.18526e+57
          1978.38510	         6.13263e+57
          1979.19140	         6.07118e+57
          1979.99770	         7.33981e+57
          1980.80400	         7.69428e+57
          1981.61030	         6.31014e+57
          1982.41660	         5.53026e+57
          1983.22290	         6.17309e+57
          1984.02920	         6.17530e+57
          1984.83550	         6.95278e+57
          1985.64180	         6.32086e+57
          1986.44810	         5.90438e+57
          1987.25440	         5.86520e+57
          1988.06070	         6.06098e+57
          1988.86700	         5.50718e+57
          1989.67330	         7.14696e+57
          1990.47960	         7.67526e+57
          1991.28590	         7.51489e+57
          1992.09220	         6.78342e+57
          1992.89850	         5.61527e+57
          1993.70480	         3.94184e+57
          1994.51110	         4.39335e+57
          1995.31740	         5.64084e+57
          1996.12370	         5.75151e+57
          1996.93000	         6.52744e+57
          1997.73630	         8.87096e+57
          1998.54260	         7.76929e+57
          1999.34890	         6.54501e+57
          2000.15520	         7.11865e+57
          2000.96150	         7.62795e+57
          2001.76780	         6.77796e+57
          2002.57410	         4.47089e+57
          2003.38040	         5.54642e+57
          2004.18670	         6.68043e+57
          2004.99300	         5.50434e+57
          2005.79930	         6.40289e+57
          2006.60560	         7.40397e+57
          2007.41190	         6.56837e+57
          2008.21820	         6.84481e+57
          2009.02450	         7.10697e+57
          2009.83080	         6.96459e+57
          2010.63710	         6.83459e+57
          2011.44340	         7.16248e+57
          2012.24970	         6.25145e+57
          2013.05600	         6.13111e+57
          2013.86230	         6.73527e+57
          2014.66860	         6.16919e+57
          2015.47490	         6.10131e+57
          2016.28120	         5.33467e+57
          2017.08750	         5.28916e+57
          2017.89380	         5.50450e+57
          2018.70010	         6.41424e+57
          2019.50640	         5.89651e+57
          2020.31270	         7.11033e+57
          2021.11900	         6.92526e+57
          2021.92530	         7.49271e+57
          2022.73160	         7.33083e+57
          2023.53790	         7.21136e+57
          2024.34420	         6.80119e+57
          2025.15050	         5.99511e+57
          2025.95680	         5.45932e+57
          2026.76310	         7.63808e+57
          2027.56940	         6.93215e+57
          2028.37570	         7.19889e+57
          2029.18200	         5.51458e+57
          2029.98830	         5.62384e+57
          2030.79460	         5.68759e+57
          2031.60090	         6.80773e+57
          2032.40720	         6.05368e+57
          2033.21350	         5.79967e+57
          2034.01980	         4.95702e+57
          2034.82610	         5.00206e+57
          2035.63240	         4.69925e+57
          2036.43870	         5.99799e+57
          2037.24500	         7.05194e+57
          2038.05130	         7.06416e+57
          2038.85760	         6.75801e+57
          2039.66390	         6.12442e+57
          2040.47020	         5.47061e+57
          2041.27650	         5.69977e+57
          2042.08280	         5.88999e+57
          2042.88910	         5.19882e+57
          2043.69540	         6.15621e+57
          2044.50170	         6.66825e+57
          2045.30800	         5.42333e+57
          2046.11430	         4.73131e+57
          2046.92060	         6.64505e+57
          2047.72690	         8.17386e+57
          2048.53320	         5.78247e+57
          2049.33950	         4.99797e+57
          2050.14580	         6.88633e+57
          2050.95210	         6.63466e+57
          2051.75840	         7.15209e+57
          2052.56470	         6.61554e+57
          2053.37100	         5.14963e+57
          2054.17730	         5.18640e+57
          2054.98360	         5.46457e+57
          2055.78990	         5.38473e+57
          2056.59620	         3.21087e+57
          2057.40250	         5.25272e+57
          2058.20880	         5.69202e+57
          2059.01510	         6.09510e+57
          2059.82140	         6.03864e+57
          2060.62770	         1.01127e+58
          2061.43400	         1.57288e+58
          2062.24030	         1.04184e+58
          2063.04660	         2.80703e+57
          2063.85290	         1.91654e+57
          2064.65920	        -3.02616e+57
          2065.46550	        -7.12248e+57
          2066.27180	        -7.92897e+57
          2067.07810	         3.85549e+57
          2067.88440	         4.89424e+57
          2068.69070	         7.77303e+57
          2069.49700	         4.43030e+57
          2070.30330	         2.39747e+57
          2071.10960	         6.97423e+57
          2071.91590	         5.89772e+57
          2072.72220	         3.27557e+57
          2073.52850	         4.36839e+57
          2074.33480	         4.24245e+57
          2075.14110	         5.09731e+57
          2075.94740	         5.90189e+57
          2076.75370	         5.13767e+57
          2077.56000	         5.71028e+57
          2078.36630	         5.21495e+57
          2079.17260	         5.47813e+57
          2079.97890	         6.71814e+57
          2080.78520	         5.46125e+57
          2081.59150	         5.56729e+57
          2082.39780	         5.84573e+57
          2083.20410	         3.67169e+57
          2084.01040	         3.57658e+57
          2084.81670	         4.84138e+57
          2085.62300	         4.32676e+57
          2086.42930	         3.45037e+57
          2087.23560	         2.91357e+57
          2088.04190	         2.50266e+57
          2088.84820	         1.61235e+57
          2089.65450	         2.78262e+57
          2090.46080	         2.29088e+57
          2091.26710	         4.20319e+57
          2092.07340	         4.52296e+57
          2092.87970	         4.12418e+57
          2093.68600	         2.90064e+56
          2094.49230	         2.43961e+57
          2095.29860	         4.00560e+57
          2096.10490	         3.94732e+57
          2096.91120	         1.63638e+57
          2097.71750	         1.49898e+57
          2098.52380	         1.89315e+57
          2099.33010	         1.87108e+57
          2100.13640	        -2.77469e+56
          2100.94270	         1.68923e+57
          2101.74900	         2.70064e+57
          2102.55530	         1.69101e+57
          2103.36160	         2.80583e+57
          2104.16790	         4.30153e+57
          2104.97420	         1.54377e+57
          2105.78050	        -3.88135e+56
          2106.58680	         1.74572e+56
          2107.39310	        -1.40291e+57
          2108.19940	         1.66657e+57
          2109.00570	        -1.84606e+57
          2109.81200	        -1.19762e+57
          2110.61830	         2.50917e+57
          2111.42460	         1.60914e+57
          2112.23090	         1.02185e+57
          2113.03720	        -9.80829e+56
          2113.84350	        -1.28994e+57
          2114.64980	         2.62947e+57
          2115.45610	        -2.92540e+57
          2116.26240	        -2.82588e+57
          2117.06870	        -3.17645e+56
          2117.87500	        -1.55518e+57
          2118.68130	         1.99033e+57
          2119.48760	        -7.31580e+56
          2120.29390	        -1.20347e+57
          2121.10020	        -1.10990e+57
          2121.90650	        -2.06428e+57
          2122.71280	        -4.34854e+57
          2123.51910	         2.66325e+57
          2124.32540	         8.90988e+56
          2125.13170	         1.33732e+57
          2125.93800	         4.50257e+57
          2126.74430	        -3.50399e+57
          2127.55060	        -7.27520e+57
          2128.35690	        -8.50355e+57
          2129.16320	        -1.99444e+57
          2129.96950	        -5.54698e+57
          2130.77580	        -3.00599e+57
          2131.58210	        -4.39506e+57
          2132.38840	        -1.31215e+57
          2133.19470	        -3.83866e+57
          2134.00100	        -7.10743e+57
          2134.80730	        -3.97013e+57
          2135.61360	         9.47010e+57
          2136.41990	         1.12072e+58
          2137.22620	         1.41688e+57
          2138.03250	        -4.06186e+56
          2138.83880	         1.22229e+57
          2139.64510	         5.77926e+56
          2140.45140	        -5.89727e+57
          2141.25770	        -8.07291e+57
          2142.06400	        -2.28724e+57
          2142.87030	        -1.20531e+56
          2143.67660	        -6.64739e+57
          2144.48290	         8.31555e+57
          2145.28920	         2.12836e+58
          2146.09550	        -1.24650e+58
          2146.90180	        -7.27345e+57
          2147.70810	        -5.79933e+57
          2148.51440	        -6.16953e+57
          2149.32070	        -9.11092e+57
          2150.12700	        -1.39671e+58
          2150.93330	        -4.28818e+57
          2151.73960	         5.58804e+57
          2152.54590	         3.08077e+57
          2153.35220	         1.00260e+57
          2154.15850	         1.86408e+57
          2154.96480	         3.82030e+57
          2155.77110	        -2.03090e+57
          2156.57740	        -3.87628e+57
          2157.38370	         1.49533e+57
          2158.19000	         1.82704e+57
          2158.99630	        -4.81262e+57
          2159.80260	        -1.63122e+58
          2160.60890	        -1.47605e+58
          2161.41520	        -3.53956e+57
          2162.22150	        -1.94524e+57
          2163.02780	        -9.82689e+57
          2163.83410	        -7.81110e+57
          2164.64040	        -1.36320e+58
          2165.44670	        -9.37965e+57
          2166.25300	        -1.30770e+58
          2167.05930	        -3.36157e+57
          2167.86560	        -1.03410e+58
          2168.67190	        -1.19306e+58
          2169.47820	        -8.82533e+57
          2170.28450	        -1.18582e+58
          2171.09080	        -4.98940e+57
          2171.89710	        -7.59794e+56
          2172.70340	         3.60070e+57
          2173.50970	        -4.85418e+57
          2174.31600	        -6.85540e+57
          2175.12230	        -1.70158e+57
          2175.92860	        -2.15265e+57
          2176.73490	        -6.71006e+57
          2177.54120	        -1.00120e+58
          2178.34750	        -4.91950e+57
          2179.15380	                 nan
          2179.96010	                 nan
          2180.76640	                 nan
          2181.57270	                 nan
          2182.37900	                 nan
          2183.18530	                 nan
          2183.99160	                 nan
          2184.79790	                 nan
          2185.60420	                 nan
          2186.41050	                 nan
          2187.21680	                 nan
          2188.02310	                 nan
          2188.82940	                 nan
          2189.63570	                 nan
          2190.44200	                 nan
          2191.24830	                 nan
          2192.05460	                 nan
          2192.86090	                 nan
          2193.66720	                 nan
          2194.47350	                 nan
          2195.27980	                 nan
          2196.08610	                 nan
          2196.89240	                 nan
          2197.69870	                 nan
          2198.50500	                 nan
          2199.31130	                 nan
          2200.11760	                 nan
          2200.92390	                 nan
          2201.73020	                 nan
          2202.53650	                 nan
          2203.34280	                 nan
          2204.14910	                 nan
          2204.95540	                 nan
          2205.76170	                 nan
          2206.56800	                 nan
          2207.37430	                 nan
          2208.18060	                 nan
          2208.98690	                 nan
          2209.79320	                 nan
          2210.59950	                 nan
          2211.40580	                 nan
          2212.21210	                 nan
          2213.01840	                 nan
          2213.82470	                 nan
          2214.63100	                 nan
          2215.43730	         0.00000e+00
