#sample_153_stacked_spectrum_rest_UV-bands_median_H-alpha_noDC.txt
#median Lum: 1.70697e+42
#Rest-frame wavelength (A) | Luminosity (erg/s/A)
#
          1110.00000	         0.00000e+00
          1110.80630	         1.85982e+58
          1111.61260	        -1.56167e+59
          1112.41890	         6.79429e+58
          1113.22520	        -2.50626e+57
          1114.03150	        -2.49186e+59
          1114.83780	         1.52381e+59
          1115.64410	         2.47457e+59
          1116.45040	         1.71144e+59
          1117.25670	         2.51756e+59
          1118.06300	        -8.89030e+58
          1118.86930	        -9.16789e+58
          1119.67560	         6.35240e+58
          1120.48190	        -1.46869e+58
          1121.28820	        -1.52182e+59
          1122.09450	        -7.15067e+58
          1122.90080	        -5.47358e+58
          1123.70710	         1.86672e+58
          1124.51340	         5.95317e+58
          1125.31970	         1.47821e+56
          1126.12600	        -6.78496e+57
          1126.93230	        -1.97980e+58
          1127.73860	        -2.61857e+58
          1128.54490	         4.61772e+57
          1129.35120	        -7.61836e+57
          1130.15750	        -2.21547e+58
          1130.96380	        -9.71158e+57
          1131.77010	         5.52463e+58
          1132.57640	         3.88618e+58
          1133.38270	         3.74111e+58
          1134.18900	         1.02962e+58
          1134.99530	         3.54134e+58
          1135.80160	         3.64973e+57
          1136.60790	         6.96124e+57
          1137.41420	         1.62558e+58
          1138.22050	         3.83415e+58
          1139.02680	         3.49169e+58
          1139.83310	         1.89838e+58
          1140.63940	         2.64397e+58
          1141.44570	        -1.20010e+58
          1142.25200	        -1.20841e+58
          1143.05830	         7.63398e+57
          1143.86460	         1.74647e+58
          1144.67090	         1.27005e+58
          1145.47720	         1.41133e+58
          1146.28350	         1.32155e+58
          1147.08980	         8.25957e+57
          1147.89610	         7.40145e+57
          1148.70240	         3.41200e+58
          1149.50870	         2.28424e+58
          1150.31500	         9.32070e+56
          1151.12130	         6.45297e+57
          1151.92760	         7.92636e+57
          1152.73390	         1.23743e+57
          1153.54020	        -3.91898e+57
          1154.34650	         2.54207e+58
          1155.15280	         2.28888e+58
          1155.95910	         1.80739e+58
          1156.76540	         2.98247e+57
          1157.57170	         5.30630e+57
          1158.37800	        -1.50723e+57
          1159.18430	        -1.65429e+57
          1159.99060	         3.93628e+57
          1160.79690	        -8.80849e+56
          1161.60320	         1.66891e+58
          1162.40950	         1.47995e+58
          1163.21580	         2.39070e+58
          1164.02210	         1.77425e+58
          1164.82840	         6.62744e+57
          1165.63470	         2.13463e+58
          1166.44100	         2.58934e+58
          1167.24730	         1.93859e+58
          1168.05360	         1.41063e+58
          1168.85990	         1.43777e+58
          1169.66620	         1.07158e+58
          1170.47250	         1.96344e+58
          1171.27880	         1.69484e+58
          1172.08510	         9.16775e+57
          1172.89140	         4.85619e+57
          1173.69770	         9.16141e+57
          1174.50400	         1.23929e+58
          1175.31030	         1.28144e+58
          1176.11660	         1.46355e+58
          1176.92290	         1.40969e+58
          1177.72920	         1.54656e+58
          1178.53550	         6.84492e+57
          1179.34180	         2.69243e+56
          1180.14810	         6.94320e+57
          1180.95440	         1.06233e+58
          1181.76070	         1.07049e+58
          1182.56700	         1.53743e+58
          1183.37330	         1.05032e+58
          1184.17960	         1.26321e+58
          1184.98590	         1.35960e+58
          1185.79220	         1.00690e+58
          1186.59850	         1.53043e+58
          1187.40480	         1.36734e+58
          1188.21110	         1.61698e+58
          1189.01740	         7.61476e+57
          1189.82370	         7.47823e+57
          1190.63000	         1.39383e+58
          1191.43630	         9.63288e+57
          1192.24260	         8.84640e+57
          1193.04890	         1.20602e+58
          1193.85520	         5.49930e+57
          1194.66150	         6.33011e+57
          1195.46780	         1.19592e+58
          1196.27410	         1.19987e+58
          1197.08040	         1.15100e+58
          1197.88670	         1.51336e+58
          1198.69300	         1.59541e+58
          1199.49930	         1.46004e+58
          1200.30560	         1.08725e+58
          1201.11190	         1.19748e+58
          1201.91820	         1.09452e+58
          1202.72450	         9.17232e+57
          1203.53080	         1.52763e+58
          1204.33710	         1.32934e+58
          1205.14340	         8.58340e+57
          1205.94970	         6.04211e+57
          1206.75600	         4.04262e+57
          1207.56230	         6.40301e+57
          1208.36860	         9.73198e+57
          1209.17490	         2.90199e+57
          1209.98120	         3.89732e+57
          1210.78750	         7.51584e+57
          1211.59380	         1.30697e+58
          1212.40010	         1.95887e+58
          1213.20640	         2.20482e+58
          1214.01270	         2.38228e+58
          1214.81900	         2.58260e+58
          1215.62530	         4.25870e+58
          1216.43160	         9.13784e+58
          1217.23790	         1.49094e+59
          1218.04420	         1.10826e+59
          1218.85050	         8.42626e+58
          1219.65680	         5.41725e+58
          1220.46310	         3.49546e+58
          1221.26940	         2.63025e+58
          1222.07570	         1.57849e+58
          1222.88200	         1.03182e+58
          1223.68830	         8.79607e+57
          1224.49460	         7.06910e+57
          1225.30090	         5.90530e+57
          1226.10720	         7.17313e+57
          1226.91350	         5.67580e+57
          1227.71980	         1.19451e+58
          1228.52610	         1.31044e+58
          1229.33240	         8.62112e+57
          1230.13870	         9.11518e+57
          1230.94500	         6.59735e+57
          1231.75130	         5.76045e+57
          1232.55760	         9.10376e+57
          1233.36390	         1.04112e+58
          1234.17020	         1.06385e+58
          1234.97650	         8.67209e+57
          1235.78280	         6.23218e+57
          1236.58910	         7.86094e+57
          1237.39540	         1.10004e+58
          1238.20170	         1.02265e+58
          1239.00800	         1.24335e+58
          1239.81430	         1.44704e+58
          1240.62060	         9.35710e+57
          1241.42690	         9.99851e+57
          1242.23320	         1.16938e+58
          1243.03950	         8.39015e+57
          1243.84580	         9.15880e+57
          1244.65210	         1.10430e+58
          1245.45840	         1.08428e+58
          1246.26470	         8.42973e+57
          1247.07100	         6.59739e+57
          1247.87730	         7.46309e+57
          1248.68360	         5.02792e+57
          1249.48990	         6.49233e+57
          1250.29620	         8.47260e+57
          1251.10250	         6.20714e+57
          1251.90880	         3.30897e+57
          1252.71510	         6.05478e+57
          1253.52140	         9.52369e+57
          1254.32770	         1.14998e+58
          1255.13400	         1.44213e+58
          1255.94030	         1.48533e+58
          1256.74660	         1.09093e+58
          1257.55290	         9.52541e+57
          1258.35920	         8.38505e+57
          1259.16550	         6.85159e+57
          1259.97180	         6.63361e+57
          1260.77810	         6.61708e+57
          1261.58440	         1.00863e+58
          1262.39070	         7.93214e+57
          1263.19700	         7.22661e+57
          1264.00330	         9.34113e+57
          1264.80960	         9.88248e+57
          1265.61590	         1.23945e+58
          1266.42220	         1.44114e+58
          1267.22850	         1.38388e+58
          1268.03480	         1.35346e+58
          1268.84110	         1.36244e+58
          1269.64740	         1.14904e+58
          1270.45370	         1.20479e+58
          1271.26000	         1.12996e+58
          1272.06630	         9.93030e+57
          1272.87260	         1.13160e+58
          1273.67890	         1.25431e+58
          1274.48520	         1.28938e+58
          1275.29150	         1.45402e+58
          1276.09780	         1.35695e+58
          1276.90410	         1.28086e+58
          1277.71040	         1.08968e+58
          1278.51670	         1.10754e+58
          1279.32300	         1.27338e+58
          1280.12930	         1.36023e+58
          1280.93560	         1.27415e+58
          1281.74190	         1.16888e+58
          1282.54820	         1.15001e+58
          1283.35450	         1.21221e+58
          1284.16080	         1.26280e+58
          1284.96710	         1.20335e+58
          1285.77340	         1.04268e+58
          1286.57970	         9.86791e+57
          1287.38600	         1.49680e+58
          1288.19230	         2.08602e+58
          1288.99860	         1.79581e+58
          1289.80490	         1.00548e+58
          1290.61120	         1.36050e+58
          1291.41750	         1.41804e+58
          1292.22380	         1.04132e+58
          1293.03010	         9.15267e+57
          1293.83640	         1.18534e+58
          1294.64270	         1.08630e+58
          1295.44900	         6.11870e+57
          1296.25530	         6.49540e+57
          1297.06160	         8.08581e+57
          1297.86790	         8.70745e+57
          1298.67420	         7.14722e+57
          1299.48050	         9.07168e+57
          1300.28680	         1.04059e+58
          1301.09310	         8.15167e+57
          1301.89940	         3.72589e+57
          1302.70570	         6.43138e+57
          1303.51200	         8.01378e+57
          1304.31830	         9.91097e+57
          1305.12460	         1.18612e+58
          1305.93090	         1.18412e+58
          1306.73720	         1.13317e+58
          1307.54350	         1.29661e+58
          1308.34980	         1.58310e+58
          1309.15610	         1.68261e+58
          1309.96240	         1.44684e+58
          1310.76870	         1.38128e+58
          1311.57500	         1.14405e+58
          1312.38130	         1.17428e+58
          1313.18760	         1.52770e+58
          1313.99390	         1.44794e+58
          1314.80020	         1.68430e+58
          1315.60650	         1.44415e+58
          1316.41280	         1.06751e+58
          1317.21910	         1.16031e+58
          1318.02540	         1.20238e+58
          1318.83170	         1.25863e+58
          1319.63800	         1.19327e+58
          1320.44430	         1.05705e+58
          1321.25060	         1.18684e+58
          1322.05690	         1.22133e+58
          1322.86320	         1.22567e+58
          1323.66950	         1.08823e+58
          1324.47580	         8.93178e+57
          1325.28210	         9.78143e+57
          1326.08840	         1.06797e+58
          1326.89470	         1.03877e+58
          1327.70100	         9.41199e+57
          1328.50730	         8.11931e+57
          1329.31360	         9.03207e+57
          1330.11990	         8.43049e+57
          1330.92620	         9.18864e+57
          1331.73250	         1.07781e+58
          1332.53880	         9.41008e+57
          1333.34510	         8.94688e+57
          1334.15140	         8.44011e+57
          1334.95770	         9.12065e+57
          1335.76400	         1.07713e+58
          1336.57030	         1.05137e+58
          1337.37660	         1.01926e+58
          1338.18290	         1.06859e+58
          1338.98920	         1.11772e+58
          1339.79550	         1.16712e+58
          1340.60180	         1.20633e+58
          1341.40810	         1.28377e+58
          1342.21440	         1.24532e+58
          1343.02070	         1.28986e+58
          1343.82700	         1.40274e+58
          1344.63330	         1.27862e+58
          1345.43960	         1.25365e+58
          1346.24590	         1.10565e+58
          1347.05220	         1.16233e+58
          1347.85850	         1.04976e+58
          1348.66480	         1.14208e+58
          1349.47110	         1.25352e+58
          1350.27740	         1.14539e+58
          1351.08370	         1.10609e+58
          1351.89000	         1.12553e+58
          1352.69630	         1.11381e+58
          1353.50260	         1.02248e+58
          1354.30890	         1.07576e+58
          1355.11520	         1.20978e+58
          1355.92150	         1.19164e+58
          1356.72780	         9.98850e+57
          1357.53410	         1.01408e+58
          1358.34040	         1.17761e+58
          1359.14670	         1.12682e+58
          1359.95300	         1.14055e+58
          1360.75930	         1.13718e+58
          1361.56560	         1.02664e+58
          1362.37190	         1.04823e+58
          1363.17820	         1.04588e+58
          1363.98450	         1.23252e+58
          1364.79080	         1.31907e+58
          1365.59710	         1.34374e+58
          1366.40340	         1.24075e+58
          1367.20970	         1.06248e+58
          1368.01600	         9.73644e+57
          1368.82230	         1.00934e+58
          1369.62860	         1.14597e+58
          1370.43490	         8.36820e+57
          1371.24120	         8.21843e+57
          1372.04750	         8.64981e+57
          1372.85380	         1.07717e+58
          1373.66010	         1.27824e+58
          1374.46640	         1.12404e+58
          1375.27270	         9.87021e+57
          1376.07900	         8.24130e+57
          1376.88530	         8.33557e+57
          1377.69160	         8.51512e+57
          1378.49790	         6.25728e+57
          1379.30420	         6.78298e+57
          1380.11050	         9.45402e+57
          1380.91680	         8.32656e+57
          1381.72310	         7.81844e+57
          1382.52940	         8.22373e+57
          1383.33570	         8.63415e+57
          1384.14200	         1.04459e+58
          1384.94830	         1.12259e+58
          1385.75460	         1.05749e+58
          1386.56090	         1.10405e+58
          1387.36720	         1.04746e+58
          1388.17350	         1.15759e+58
          1388.97980	         1.10078e+58
          1389.78610	         9.91722e+57
          1390.59240	         9.10399e+57
          1391.39870	         8.25418e+57
          1392.20500	         8.21899e+57
          1393.01130	         7.38263e+57
          1393.81760	         7.52283e+57
          1394.62390	         8.34916e+57
          1395.43020	         6.92500e+57
          1396.23650	         6.29209e+57
          1397.04280	         6.81571e+57
          1397.84910	         8.10467e+57
          1398.65540	         9.00741e+57
          1399.46170	         9.33583e+57
          1400.26800	         8.40251e+57
          1401.07430	         6.76630e+57
          1401.88060	         7.46826e+57
          1402.68690	         9.84221e+57
          1403.49320	         9.76662e+57
          1404.29950	         9.15079e+57
          1405.10580	         9.83230e+57
          1405.91210	         1.12705e+58
          1406.71840	         1.07874e+58
          1407.52470	         9.64865e+57
          1408.33100	         9.34847e+57
          1409.13730	         1.09360e+58
          1409.94360	         1.31050e+58
          1410.74990	         1.20612e+58
          1411.55620	         8.91952e+57
          1412.36250	         9.36414e+57
          1413.16880	         9.52305e+57
          1413.97510	         8.65138e+57
          1414.78140	         9.32662e+57
          1415.58770	         1.09297e+58
          1416.39400	         1.12383e+58
          1417.20030	         9.56020e+57
          1418.00660	         9.78112e+57
          1418.81290	         1.26190e+58
          1419.61920	         1.15340e+58
          1420.42550	         1.24809e+58
          1421.23180	         1.42913e+58
          1422.03810	         1.25655e+58
          1422.84440	         1.07916e+58
          1423.65070	         1.20472e+58
          1424.45700	         1.08912e+58
          1425.26330	         8.85156e+57
          1426.06960	         8.78917e+57
          1426.87590	         9.78303e+57
          1427.68220	         1.00337e+58
          1428.48850	         1.02715e+58
          1429.29480	         1.09336e+58
          1430.10110	         1.01838e+58
          1430.90740	         8.75169e+57
          1431.71370	         8.48726e+57
          1432.52000	         9.51367e+57
          1433.32630	         8.32845e+57
          1434.13260	         6.94277e+57
          1434.93890	         7.81178e+57
          1435.74520	         8.66086e+57
          1436.55150	         9.35886e+57
          1437.35780	         9.02331e+57
          1438.16410	         8.60807e+57
          1438.97040	         9.04455e+57
          1439.77670	         8.75652e+57
          1440.58300	         8.63244e+57
          1441.38930	         9.58713e+57
          1442.19560	         9.94452e+57
          1443.00190	         9.47538e+57
          1443.80820	         1.00875e+58
          1444.61450	         9.71241e+57
          1445.42080	         9.17225e+57
          1446.22710	         9.46406e+57
          1447.03340	         1.05671e+58
          1447.83970	         1.18519e+58
          1448.64600	         1.12258e+58
          1449.45230	         9.42381e+57
          1450.25860	         8.78942e+57
          1451.06490	         8.66289e+57
          1451.87120	         8.09940e+57
          1452.67750	         7.10529e+57
          1453.48380	         9.10038e+57
          1454.29010	         8.60197e+57
          1455.09640	         8.12651e+57
          1455.90270	         9.37148e+57
          1456.70900	         8.27890e+57
          1457.51530	         8.44799e+57
          1458.32160	         1.10752e+58
          1459.12790	         1.15363e+58
          1459.93420	         1.00769e+58
          1460.74050	         8.43588e+57
          1461.54680	         8.58665e+57
          1462.35310	         7.26107e+57
          1463.15940	         9.33946e+57
          1463.96570	         1.06641e+58
          1464.77200	         1.17272e+58
          1465.57830	         1.04806e+58
          1466.38460	         9.02190e+57
          1467.19090	         9.06334e+57
          1467.99720	         8.98850e+57
          1468.80350	         9.23829e+57
          1469.60980	         9.31728e+57
          1470.41610	         1.04659e+58
          1471.22240	         9.56874e+57
          1472.02870	         8.59735e+57
          1472.83500	         9.67298e+57
          1473.64130	         1.04879e+58
          1474.44760	         9.54299e+57
          1475.25390	         8.43054e+57
          1476.06020	         8.62476e+57
          1476.86650	         8.05196e+57
          1477.67280	         6.87665e+57
          1478.47910	         6.05572e+57
          1479.28540	         7.04167e+57
          1480.09170	         9.05473e+57
          1480.89800	         8.91376e+57
          1481.70430	         8.19333e+57
          1482.51060	         7.42632e+57
          1483.31690	         7.46106e+57
          1484.12320	         6.49216e+57
          1484.92950	         6.75020e+57
          1485.73580	         8.37909e+57
          1486.54210	         9.06341e+57
          1487.34840	         1.01053e+58
          1488.15470	         9.24095e+57
          1488.96100	         9.14577e+57
          1489.76730	         8.89306e+57
          1490.57360	         8.71638e+57
          1491.37990	         8.00211e+57
          1492.18620	         6.93615e+57
          1492.99250	         7.06720e+57
          1493.79880	         8.27113e+57
          1494.60510	         8.58275e+57
          1495.41140	         8.07997e+57
          1496.21770	         9.48796e+57
          1497.02400	         1.07146e+58
          1497.83030	         9.03915e+57
          1498.63660	         7.42781e+57
          1499.44290	         6.18191e+57
          1500.24920	         6.60300e+57
          1501.05550	         7.42489e+57
          1501.86180	         7.63123e+57
          1502.66810	         8.46152e+57
          1503.47440	         8.36274e+57
          1504.28070	         8.17263e+57
          1505.08700	         8.91366e+57
          1505.89330	         8.00901e+57
          1506.69960	         7.30063e+57
          1507.50590	         8.52517e+57
          1508.31220	         8.39782e+57
          1509.11850	         8.50129e+57
          1509.92480	         9.59419e+57
          1510.73110	         9.39241e+57
          1511.53740	         8.71081e+57
          1512.34370	         7.37749e+57
          1513.15000	         8.68627e+57
          1513.95630	         1.03809e+58
          1514.76260	         8.61383e+57
          1515.56890	         8.40579e+57
          1516.37520	         9.04194e+57
          1517.18150	         7.91518e+57
          1517.98780	         6.95730e+57
          1518.79410	         7.44824e+57
          1519.60040	         7.47314e+57
          1520.40670	         8.80832e+57
          1521.21300	         8.91380e+57
          1522.01930	         7.93148e+57
          1522.82560	         8.88922e+57
          1523.63190	         1.04093e+58
          1524.43820	         9.22171e+57
          1525.24450	         6.76910e+57
          1526.05080	         5.95893e+57
          1526.85710	         5.84909e+57
          1527.66340	         6.36225e+57
          1528.46970	         7.78991e+57
          1529.27600	         8.10172e+57
          1530.08230	         7.87482e+57
          1530.88860	         6.74256e+57
          1531.69490	         7.42690e+57
          1532.50120	         8.88960e+57
          1533.30750	         9.27696e+57
          1534.11380	         8.96223e+57
          1534.92010	         8.60016e+57
          1535.72640	         8.82619e+57
          1536.53270	         8.93548e+57
          1537.33900	         8.65322e+57
          1538.14530	         8.39493e+57
          1538.95160	         9.28534e+57
          1539.75790	         9.85315e+57
          1540.56420	         9.37305e+57
          1541.37050	         8.53090e+57
          1542.17680	         8.09376e+57
          1542.98310	         7.27853e+57
          1543.78940	         7.64084e+57
          1544.59570	         6.74112e+57
          1545.40200	         7.36369e+57
          1546.20830	         8.52280e+57
          1547.01460	         9.97689e+57
          1547.82090	         1.17965e+58
          1548.62720	         1.19372e+58
          1549.43350	         1.16108e+58
          1550.23980	         1.11154e+58
          1551.04610	         1.20089e+58
          1551.85240	         1.13963e+58
          1552.65870	         1.10628e+58
          1553.46500	         1.06046e+58
          1554.27130	         1.02067e+58
          1555.07760	         9.50863e+57
          1555.88390	         7.27111e+57
          1556.69020	         7.95315e+57
          1557.49650	         8.77769e+57
          1558.30280	         7.98785e+57
          1559.10910	         8.23351e+57
          1559.91540	         8.17075e+57
          1560.72170	         8.57889e+57
          1561.52800	         8.52148e+57
          1562.33430	         9.40275e+57
          1563.14060	         9.17044e+57
          1563.94690	         8.48605e+57
          1564.75320	         7.32705e+57
          1565.55950	         6.46175e+57
          1566.36580	         6.75299e+57
          1567.17210	         8.58913e+57
          1567.97840	         1.00800e+58
          1568.78470	         8.83772e+57
          1569.59100	         8.64370e+57
          1570.39730	         7.98669e+57
          1571.20360	         6.59206e+57
          1572.00990	         6.59255e+57
          1572.81620	         7.55811e+57
          1573.62250	         9.30959e+57
          1574.42880	         9.09042e+57
          1575.23510	         8.08074e+57
          1576.04140	         8.56019e+57
          1576.84770	         9.21545e+57
          1577.65400	         8.11643e+57
          1578.46030	         8.73728e+57
          1579.26660	         1.02500e+58
          1580.07290	         8.73338e+57
          1580.87920	         7.69682e+57
          1581.68550	         8.06259e+57
          1582.49180	         8.70360e+57
          1583.29810	         8.12531e+57
          1584.10440	         8.53123e+57
          1584.91070	         8.64420e+57
          1585.71700	         8.77903e+57
          1586.52330	         9.34632e+57
          1587.32960	         9.12344e+57
          1588.13590	         8.69859e+57
          1588.94220	         8.52434e+57
          1589.74850	         9.30789e+57
          1590.55480	         1.01238e+58
          1591.36110	         8.25818e+57
          1592.16740	         7.81571e+57
          1592.97370	         8.51180e+57
          1593.78000	         8.61216e+57
          1594.58630	         9.53872e+57
          1595.39260	         8.44883e+57
          1596.19890	         7.80721e+57
          1597.00520	         9.06598e+57
          1597.81150	         9.11178e+57
          1598.61780	         7.03863e+57
          1599.42410	         6.77943e+57
          1600.23040	         7.76277e+57
          1601.03670	         7.76482e+57
          1601.84300	         7.21984e+57
          1602.64930	         8.46273e+57
          1603.45560	         8.57054e+57
          1604.26190	         7.62909e+57
          1605.06820	         8.25329e+57
          1605.87450	         7.88301e+57
          1606.68080	         6.83987e+57
          1607.48710	         6.51373e+57
          1608.29340	         5.46106e+57
          1609.09970	         6.71240e+57
          1609.90600	         8.20571e+57
          1610.71230	         8.47710e+57
          1611.51860	         7.76433e+57
          1612.32490	         6.21468e+57
          1613.13120	         8.13110e+57
          1613.93750	         8.79652e+57
          1614.74380	         9.26305e+57
          1615.55010	         9.56492e+57
          1616.35640	         9.65845e+57
          1617.16270	         9.78658e+57
          1617.96900	         9.82668e+57
          1618.77530	         7.93377e+57
          1619.58160	         7.91045e+57
          1620.38790	         8.51809e+57
          1621.19420	         9.10437e+57
          1622.00050	         8.15705e+57
          1622.80680	         8.87430e+57
          1623.61310	         8.56951e+57
          1624.41940	         8.06054e+57
          1625.22570	         8.00970e+57
          1626.03200	         8.21270e+57
          1626.83830	         7.80061e+57
          1627.64460	         7.12388e+57
          1628.45090	         6.93362e+57
          1629.25720	         8.37196e+57
          1630.06350	         9.78505e+57
          1630.86980	         6.76114e+57
          1631.67610	         6.30350e+57
          1632.48240	         8.30613e+57
          1633.28870	         7.88925e+57
          1634.09500	         7.80773e+57
          1634.90130	         1.12200e+58
          1635.70760	         9.74750e+57
          1636.51390	         7.69447e+57
          1637.32020	         7.84750e+57
          1638.12650	         9.03630e+57
          1638.93280	         8.71063e+57
          1639.73910	         9.81167e+57
          1640.54540	         1.05593e+58
          1641.35170	         7.49323e+57
          1642.15800	         8.23295e+57
          1642.96430	         8.08670e+57
          1643.77060	         8.41575e+57
          1644.57690	         8.70450e+57
          1645.38320	         9.29002e+57
          1646.18950	         7.36269e+57
          1646.99580	         7.82598e+57
          1647.80210	         7.66158e+57
          1648.60840	         8.20072e+57
          1649.41470	         8.90092e+57
          1650.22100	         6.92390e+57
          1651.02730	         6.94782e+57
          1651.83360	         7.13273e+57
          1652.63990	         7.54665e+57
          1653.44620	         8.75825e+57
          1654.25250	         8.54552e+57
          1655.05880	         7.94490e+57
          1655.86510	         7.39132e+57
          1656.67140	         8.24604e+57
          1657.47770	         8.98451e+57
          1658.28400	         9.14665e+57
          1659.09030	         9.31983e+57
          1659.89660	         9.13082e+57
          1660.70290	         9.52063e+57
          1661.50920	         9.40334e+57
          1662.31550	         8.91051e+57
          1663.12180	         8.67354e+57
          1663.92810	         9.78031e+57
          1664.73440	         1.04837e+58
          1665.54070	         1.15668e+58
          1666.34700	         1.26999e+58
          1667.15330	         1.09189e+58
          1667.95960	         8.23429e+57
          1668.76590	         7.07256e+57
          1669.57220	         6.75509e+57
          1670.37850	         7.28898e+57
          1671.18480	         7.83779e+57
          1671.99110	         7.73279e+57
          1672.79740	         8.10118e+57
          1673.60370	         7.28988e+57
          1674.41000	         6.53759e+57
          1675.21630	         6.91693e+57
          1676.02260	         6.71473e+57
          1676.82890	         6.04310e+57
          1677.63520	         7.10648e+57
          1678.44150	         7.08900e+57
          1679.24780	         7.93501e+57
          1680.05410	         7.31261e+57
          1680.86040	         6.48337e+57
          1681.66670	         8.20852e+57
          1682.47300	         8.20911e+57
          1683.27930	         8.41669e+57
          1684.08560	         8.95046e+57
          1684.89190	         8.12367e+57
          1685.69820	         5.99908e+57
          1686.50450	         5.36448e+57
          1687.31080	         6.55749e+57
          1688.11710	         7.47936e+57
          1688.92340	         6.73772e+57
          1689.72970	         6.59573e+57
          1690.53600	         6.45006e+57
          1691.34230	         6.65570e+57
          1692.14860	         8.18408e+57
          1692.95490	         8.36202e+57
          1693.76120	         8.09470e+57
          1694.56750	         7.19132e+57
          1695.37380	         7.67385e+57
          1696.18010	         8.63642e+57
          1696.98640	         8.91356e+57
          1697.79270	         8.18888e+57
          1698.59900	         7.91046e+57
          1699.40530	         6.06061e+57
          1700.21160	         6.53633e+57
          1701.01790	         9.09763e+57
          1701.82420	         7.22596e+57
          1702.63050	         6.99660e+57
          1703.43680	         8.25264e+57
          1704.24310	         8.58752e+57
          1705.04940	         8.11037e+57
          1705.85570	         7.78478e+57
          1706.66200	         8.30575e+57
          1707.46830	         8.57023e+57
          1708.27460	         8.07230e+57
          1709.08090	         7.22967e+57
          1709.88720	         7.42369e+57
          1710.69350	         7.19829e+57
          1711.49980	         6.29792e+57
          1712.30610	         7.70365e+57
          1713.11240	         9.28410e+57
          1713.91870	         7.60358e+57
          1714.72500	         7.51769e+57
          1715.53130	         9.78304e+57
          1716.33760	         8.29070e+57
          1717.14390	         7.39235e+57
          1717.95020	         8.90771e+57
          1718.75650	         8.44443e+57
          1719.56280	         8.92683e+57
          1720.36910	         7.55218e+57
          1721.17540	         7.16271e+57
          1721.98170	         7.20603e+57
          1722.78800	         6.63389e+57
          1723.59430	         6.31360e+57
          1724.40060	         7.43229e+57
          1725.20690	         8.06698e+57
          1726.01320	         8.26343e+57
          1726.81950	         8.20486e+57
          1727.62580	         8.39590e+57
          1728.43210	         7.70020e+57
          1729.23840	         7.93016e+57
          1730.04470	         8.19657e+57
          1730.85100	         8.50853e+57
          1731.65730	         8.61298e+57
          1732.46360	         7.97150e+57
          1733.26990	         7.40444e+57
          1734.07620	         6.41254e+57
          1734.88250	         6.45293e+57
          1735.68880	         7.90516e+57
          1736.49510	         8.66483e+57
          1737.30140	         8.08408e+57
          1738.10770	         6.79149e+57
          1738.91400	         7.38776e+57
          1739.72030	         7.62678e+57
          1740.52660	         6.39374e+57
          1741.33290	         5.92756e+57
          1742.13920	         5.42014e+57
          1742.94550	         6.43175e+57
          1743.75180	         7.88258e+57
          1744.55810	         7.72147e+57
          1745.36440	         7.40535e+57
          1746.17070	         5.37707e+57
          1746.97700	         4.27599e+57
          1747.78330	         6.46938e+57
          1748.58960	         6.94666e+57
          1749.39590	         7.18432e+57
          1750.20220	         5.76300e+57
          1751.00850	         4.86369e+57
          1751.81480	         5.72981e+57
          1752.62110	         5.99780e+57
          1753.42740	         7.61490e+57
          1754.23370	         7.87241e+57
          1755.04000	         7.88169e+57
          1755.84630	         7.16250e+57
          1756.65260	         8.15560e+57
          1757.45890	         7.55986e+57
          1758.26520	         5.86374e+57
          1759.07150	         7.60328e+57
          1759.87780	         8.89187e+57
          1760.68410	         8.26127e+57
          1761.49040	         8.00409e+57
          1762.29670	         8.21507e+57
          1763.10300	         8.48502e+57
          1763.90930	         7.57012e+57
          1764.71560	         7.89041e+57
          1765.52190	         8.01656e+57
          1766.32820	         7.99950e+57
          1767.13450	         8.47829e+57
          1767.94080	         7.27144e+57
          1768.74710	         6.31182e+57
          1769.55340	         6.47287e+57
          1770.35970	         6.73776e+57
          1771.16600	         7.85868e+57
          1771.97230	         8.70842e+57
          1772.77860	         8.94355e+57
          1773.58490	         7.96593e+57
          1774.39120	         6.87843e+57
          1775.19750	         6.84672e+57
          1776.00380	         6.59421e+57
          1776.81010	         6.09297e+57
          1777.61640	         6.14411e+57
          1778.42270	         5.49945e+57
          1779.22900	         6.54452e+57
          1780.03530	         7.28944e+57
          1780.84160	         7.54417e+57
          1781.64790	         8.24940e+57
          1782.45420	         7.91752e+57
          1783.26050	         7.19065e+57
          1784.06680	         6.97933e+57
          1784.87310	         6.72949e+57
          1785.67940	         6.57810e+57
          1786.48570	         6.89960e+57
          1787.29200	         6.60967e+57
          1788.09830	         7.09659e+57
          1788.90460	         5.59389e+57
          1789.71090	         5.00611e+57
          1790.51720	         4.92685e+57
          1791.32350	         6.15148e+57
          1792.12980	         7.89255e+57
          1792.93610	         7.56416e+57
          1793.74240	         7.02371e+57
          1794.54870	         7.25366e+57
          1795.35500	         7.46426e+57
          1796.16130	         7.65444e+57
          1796.96760	         6.91059e+57
          1797.77390	         6.23565e+57
          1798.58020	         6.65902e+57
          1799.38650	         7.14791e+57
          1800.19280	         7.21100e+57
          1800.99910	         7.36619e+57
          1801.80540	         7.32820e+57
          1802.61170	         7.74344e+57
          1803.41800	         7.89551e+57
          1804.22430	         7.49322e+57
          1805.03060	         6.79654e+57
          1805.83690	         7.36419e+57
          1806.64320	         8.09528e+57
          1807.44950	         7.46646e+57
          1808.25580	         6.44174e+57
          1809.06210	         7.95065e+57
          1809.86840	         7.37716e+57
          1810.67470	         7.46746e+57
          1811.48100	         9.10854e+57
          1812.28730	         8.11303e+57
          1813.09360	         6.66926e+57
          1813.89990	         7.49419e+57
          1814.70620	         7.19099e+57
          1815.51250	         8.16033e+57
          1816.31880	         8.48991e+57
          1817.12510	         7.53450e+57
          1817.93140	         6.27010e+57
          1818.73770	         6.30029e+57
          1819.54400	         7.99372e+57
          1820.35030	         8.36198e+57
          1821.15660	         6.48610e+57
          1821.96290	         5.94340e+57
          1822.76920	         7.75781e+57
          1823.57550	         7.70116e+57
          1824.38180	         7.10353e+57
          1825.18810	         7.55831e+57
          1825.99440	         8.15374e+57
          1826.80070	         7.99778e+57
          1827.60700	         6.52244e+57
          1828.41330	         5.79660e+57
          1829.21960	         6.47245e+57
          1830.02590	         6.98025e+57
          1830.83220	         8.60589e+57
          1831.63850	         8.95455e+57
          1832.44480	         7.96601e+57
          1833.25110	         8.48566e+57
          1834.05740	         8.36109e+57
          1834.86370	         6.60861e+57
          1835.67000	         6.28568e+57
          1836.47630	         7.01242e+57
          1837.28260	         8.39205e+57
          1838.08890	         8.98474e+57
          1838.89520	         8.65271e+57
          1839.70150	         8.95361e+57
          1840.50780	         8.47319e+57
          1841.31410	         7.16894e+57
          1842.12040	         7.43794e+57
          1842.92670	         7.36300e+57
          1843.73300	         7.35436e+57
          1844.53930	         6.48655e+57
          1845.34560	         7.57765e+57
          1846.15190	         7.59705e+57
          1846.95820	         6.43140e+57
          1847.76450	         6.56276e+57
          1848.57080	         5.84211e+57
          1849.37710	         5.60525e+57
          1850.18340	         6.44586e+57
          1850.98970	         7.87625e+57
          1851.79600	         6.77717e+57
          1852.60230	         6.08258e+57
          1853.40860	         7.08609e+57
          1854.21490	         6.86121e+57
          1855.02120	         5.77837e+57
          1855.82750	         5.36995e+57
          1856.63380	         5.81335e+57
          1857.44010	         7.50152e+57
          1858.24640	         8.18133e+57
          1859.05270	         6.57304e+57
          1859.85900	         5.74369e+57
          1860.66530	         6.25393e+57
          1861.47160	         7.02724e+57
          1862.27790	         7.42326e+57
          1863.08420	         7.66109e+57
          1863.89050	         8.02643e+57
          1864.69680	         7.94515e+57
          1865.50310	         6.75620e+57
          1866.30940	         5.81230e+57
          1867.11570	         6.20640e+57
          1867.92200	         7.74567e+57
          1868.72830	         7.65560e+57
          1869.53460	         6.64799e+57
          1870.34090	         7.58699e+57
          1871.14720	         7.55375e+57
          1871.95350	         7.29946e+57
          1872.75980	         7.14828e+57
          1873.56610	         6.41194e+57
          1874.37240	         5.41602e+57
          1875.17870	         5.62405e+57
          1875.98500	         7.68717e+57
          1876.79130	         8.32769e+57
          1877.59760	         6.38910e+57
          1878.40390	         5.60869e+57
          1879.21020	         5.86964e+57
          1880.01650	         6.29889e+57
          1880.82280	         8.35569e+57
          1881.62910	         8.92337e+57
          1882.43540	         9.81518e+57
          1883.24170	         8.48658e+57
          1884.04800	         7.52373e+57
          1884.85430	         7.38168e+57
          1885.66060	         7.43507e+57
          1886.46690	         7.82749e+57
          1887.27320	         7.49168e+57
          1888.07950	         7.06167e+57
          1888.88580	         7.67591e+57
          1889.69210	         7.84772e+57
          1890.49840	         7.33635e+57
          1891.30470	         6.51044e+57
          1892.11100	         7.48326e+57
          1892.91730	         7.40035e+57
          1893.72360	         6.93454e+57
          1894.52990	         6.51928e+57
          1895.33620	         6.96452e+57
          1896.14250	         7.12022e+57
          1896.94880	         6.58145e+57
          1897.75510	         5.15515e+57
          1898.56140	         5.84170e+57
          1899.36770	         7.06608e+57
          1900.17400	         5.90739e+57
          1900.98030	         6.41925e+57
          1901.78660	         7.90623e+57
          1902.59290	         7.19219e+57
          1903.39920	         9.08800e+57
          1904.20550	         1.02417e+58
          1905.01180	         1.01736e+58
          1905.81810	         1.06023e+58
          1906.62440	         1.27628e+58
          1907.43070	         1.56526e+58
          1908.23700	         1.50713e+58
          1909.04330	         1.30149e+58
          1909.84960	         1.12575e+58
          1910.65590	         1.04092e+58
          1911.46220	         9.57283e+57
          1912.26850	         7.30873e+57
          1913.07480	         6.23617e+57
          1913.88110	         5.94159e+57
          1914.68740	         5.68264e+57
          1915.49370	         5.34541e+57
          1916.30000	         6.47160e+57
          1917.10630	         7.13831e+57
          1917.91260	         5.90708e+57
          1918.71890	         5.00116e+57
          1919.52520	         6.32209e+57
          1920.33150	         6.07085e+57
          1921.13780	         7.05624e+57
          1921.94410	         7.80026e+57
          1922.75040	         7.65591e+57
          1923.55670	         7.79571e+57
          1924.36300	         7.45559e+57
          1925.16930	         6.88559e+57
          1925.97560	         5.42711e+57
          1926.78190	         4.69290e+57
          1927.58820	         5.48180e+57
          1928.39450	         5.20276e+57
          1929.20080	         4.48398e+57
          1930.00710	         6.33896e+57
          1930.81340	         7.90924e+57
          1931.61970	         7.72356e+57
          1932.42600	         8.31014e+57
          1933.23230	         7.52666e+57
          1934.03860	         6.56350e+57
          1934.84490	         5.60103e+57
          1935.65120	         7.36081e+57
          1936.45750	         9.34280e+57
          1937.26380	         7.75451e+57
          1938.07010	         6.49855e+57
          1938.87640	         6.67103e+57
          1939.68270	         6.95862e+57
          1940.48900	         7.40619e+57
          1941.29530	         7.93298e+57
          1942.10160	         7.05005e+57
          1942.90790	         6.03909e+57
          1943.71420	         6.84220e+57
          1944.52050	         6.79475e+57
          1945.32680	         6.22698e+57
          1946.13310	         7.47531e+57
          1946.93940	         7.63494e+57
          1947.74570	         7.12312e+57
          1948.55200	         5.43276e+57
          1949.35830	         6.04653e+57
          1950.16460	         6.53814e+57
          1950.97090	         6.26239e+57
          1951.77720	         7.28409e+57
          1952.58350	         8.17875e+57
          1953.38980	         6.56795e+57
          1954.19610	         5.20678e+57
          1955.00240	         5.20838e+57
          1955.80870	         6.38977e+57
          1956.61500	         6.66937e+57
          1957.42130	         6.22487e+57
          1958.22760	         6.80137e+57
          1959.03390	         7.61100e+57
          1959.84020	         7.28658e+57
          1960.64650	         6.68579e+57
          1961.45280	         6.00920e+57
          1962.25910	         5.80335e+57
          1963.06540	         6.24319e+57
          1963.87170	         6.28477e+57
          1964.67800	         6.91298e+57
          1965.48430	         6.30215e+57
          1966.29060	         5.55860e+57
          1967.09690	         6.51067e+57
          1967.90320	         6.55711e+57
          1968.70950	         6.88604e+57
          1969.51580	         6.32759e+57
          1970.32210	         7.41130e+57
          1971.12840	         6.38262e+57
          1971.93470	         4.70390e+57
          1972.74100	         4.72947e+57
          1973.54730	         7.06289e+57
          1974.35360	         7.22671e+57
          1975.15990	         7.74157e+57
          1975.96620	         7.46891e+57
          1976.77250	         7.88865e+57
          1977.57880	         8.47311e+57
          1978.38510	         6.43702e+57
          1979.19140	         7.34056e+57
          1979.99770	         7.63940e+57
          1980.80400	         7.43868e+57
          1981.61030	         7.35728e+57
          1982.41660	         5.37319e+57
          1983.22290	         5.70519e+57
          1984.02920	         6.12434e+57
          1984.83550	         5.06662e+57
          1985.64180	         6.13003e+57
          1986.44810	         6.36868e+57
          1987.25440	         5.74441e+57
          1988.06070	         5.56688e+57
          1988.86700	         5.49099e+57
          1989.67330	         6.93697e+57
          1990.47960	         7.27551e+57
          1991.28590	         6.22077e+57
          1992.09220	         4.91134e+57
          1992.89850	         5.23918e+57
          1993.70480	         5.55829e+57
          1994.51110	         5.00233e+57
          1995.31740	         4.12942e+57
          1996.12370	         4.35970e+57
          1996.93000	         6.14605e+57
          1997.73630	         7.16009e+57
          1998.54260	         7.23140e+57
          1999.34890	         5.65534e+57
          2000.15520	         5.91602e+57
          2000.96150	         7.53954e+57
          2001.76780	         6.22092e+57
          2002.57410	         4.77506e+57
          2003.38040	         6.35042e+57
          2004.18670	         7.02734e+57
          2004.99300	         6.54164e+57
          2005.79930	         7.43240e+57
          2006.60560	         6.87939e+57
          2007.41190	         5.59773e+57
          2008.21820	         6.13090e+57
          2009.02450	         6.58001e+57
          2009.83080	         6.51214e+57
          2010.63710	         5.87244e+57
          2011.44340	         6.88224e+57
          2012.24970	         8.02888e+57
          2013.05600	         7.34745e+57
          2013.86230	         7.17668e+57
          2014.66860	         5.48194e+57
          2015.47490	         6.19174e+57
          2016.28120	         5.66848e+57
          2017.08750	         5.64543e+57
          2017.89380	         6.26340e+57
          2018.70010	         6.00772e+57
          2019.50640	         4.90648e+57
          2020.31270	         5.35022e+57
          2021.11900	         7.08386e+57
          2021.92530	         7.00498e+57
          2022.73160	         7.17007e+57
          2023.53790	         6.83228e+57
          2024.34420	         7.28567e+57
          2025.15050	         5.32455e+57
          2025.95680	         5.47508e+57
          2026.76310	         6.48723e+57
          2027.56940	         5.80839e+57
          2028.37570	         5.94725e+57
          2029.18200	         6.04425e+57
          2029.98830	         5.43409e+57
          2030.79460	         5.78261e+57
          2031.60090	         6.88446e+57
          2032.40720	         7.19880e+57
          2033.21350	         5.37640e+57
          2034.01980	         4.02075e+57
          2034.82610	         4.66726e+57
          2035.63240	         5.44414e+57
          2036.43870	         6.11967e+57
          2037.24500	         6.30934e+57
          2038.05130	         5.66481e+57
          2038.85760	         5.56809e+57
          2039.66390	         4.86959e+57
          2040.47020	         6.12340e+57
          2041.27650	         5.60422e+57
          2042.08280	         4.76578e+57
          2042.88910	         5.59645e+57
          2043.69540	         6.55667e+57
          2044.50170	         6.35627e+57
          2045.30800	         5.87150e+57
          2046.11430	         5.01637e+57
          2046.92060	         5.84689e+57
          2047.72690	         5.37733e+57
          2048.53320	         6.20191e+57
          2049.33950	         5.36317e+57
          2050.14580	         4.79033e+57
          2050.95210	         6.05590e+57
          2051.75840	         7.44199e+57
          2052.56470	         5.85596e+57
          2053.37100	         4.04895e+57
          2054.17730	         3.86507e+57
          2054.98360	         4.60065e+57
          2055.78990	         2.52754e+57
          2056.59620	         2.64030e+57
          2057.40250	         5.45877e+57
          2058.20880	         7.11730e+57
          2059.01510	         6.04075e+57
          2059.82140	         6.35335e+57
          2060.62770	         9.54698e+57
          2061.43400	         1.79693e+58
          2062.24030	         1.27088e+58
          2063.04660	         5.51213e+57
          2063.85290	         3.81701e+57
          2064.65920	        -3.91600e+57
          2065.46550	        -9.32635e+57
          2066.27180	        -7.25052e+57
          2067.07810	         4.55619e+57
          2067.88440	         6.89796e+57
          2068.69070	         7.06425e+57
          2069.49700	         4.33140e+57
          2070.30330	         3.97745e+57
          2071.10960	         4.78856e+57
          2071.91590	         5.82190e+57
          2072.72220	         3.14244e+57
          2073.52850	         3.83231e+57
          2074.33480	         5.58331e+57
          2075.14110	         5.77962e+57
          2075.94740	         5.06250e+57
          2076.75370	         4.70417e+57
          2077.56000	         4.87552e+57
          2078.36630	         5.44106e+57
          2079.17260	         6.23344e+57
          2079.97890	         7.12820e+57
          2080.78520	         5.21011e+57
          2081.59150	         4.49900e+57
          2082.39780	         3.54962e+57
          2083.20410	         3.00101e+57
          2084.01040	         1.91864e+57
          2084.81670	         2.96743e+57
          2085.62300	         2.94347e+57
          2086.42930	         3.68488e+57
          2087.23560	         4.03951e+57
          2088.04190	         3.62606e+57
          2088.84820	         2.86899e+57
          2089.65450	         4.02980e+57
          2090.46080	         2.04871e+57
          2091.26710	         1.86569e+57
          2092.07340	         3.42462e+57
          2092.87970	         4.54039e+57
          2093.68600	         5.06684e+56
          2094.49230	         4.45948e+56
          2095.29860	         6.21123e+57
          2096.10490	         3.31717e+57
          2096.91120	         2.72306e+57
          2097.71750	         1.00353e+57
          2098.52380	         7.63997e+56
          2099.33010	         1.19800e+57
          2100.13640	         6.39151e+55
          2100.94270	         6.58173e+56
          2101.74900	         2.63429e+57
          2102.55530	         2.44150e+57
          2103.36160	         3.03621e+57
          2104.16790	         4.12662e+57
          2104.97420	         2.03466e+57
          2105.78050	         1.61408e+57
          2106.58680	         3.49661e+57
          2107.39310	         9.32536e+56
          2108.19940	         8.29052e+56
          2109.00570	        -2.23347e+57
          2109.81200	        -2.20259e+57
          2110.61830	         1.83360e+57
          2111.42460	        -5.43660e+56
          2112.23090	         1.18208e+57
          2113.03720	         6.81044e+56
          2113.84350	        -7.70768e+56
          2114.64980	         2.41645e+57
          2115.45610	        -4.66333e+56
          2116.26240	        -5.95204e+57
          2117.06870	        -4.41852e+56
          2117.87500	        -2.56126e+57
          2118.68130	        -3.96185e+56
          2119.48760	         7.37963e+55
          2120.29390	        -2.98393e+57
          2121.10020	        -6.59185e+57
          2121.90650	         1.88294e+57
          2122.71280	         9.77742e+56
          2123.51910	         4.28559e+57
          2124.32540	         2.18722e+57
          2125.13170	        -1.74780e+57
          2125.93800	         4.58039e+57
          2126.74430	        -3.37049e+57
          2127.55060	        -4.96829e+57
          2128.35690	        -7.14716e+57
          2129.16320	        -9.91639e+57
          2129.96950	        -1.67187e+57
          2130.77580	         3.01499e+57
          2131.58210	         1.04127e+57
          2132.38840	        -2.45890e+57
          2133.19470	         2.60407e+56
          2134.00100	         5.78633e+55
          2134.80730	        -8.73889e+57
          2135.61360	         2.39225e+57
          2136.41990	         2.20946e+57
          2137.22620	        -3.48298e+57
          2138.03250	         2.36930e+57
          2138.83880	        -2.55112e+57
          2139.64510	        -4.19541e+57
          2140.45140	        -5.77951e+57
          2141.25770	        -1.45721e+58
          2142.06400	        -6.74394e+57
          2142.87030	         6.06662e+57
          2143.67660	         1.14560e+58
          2144.48290	         2.09220e+57
          2145.28920	         1.69692e+58
          2146.09550	        -2.91107e+57
          2146.90180	        -1.28603e+58
          2147.70810	        -5.33810e+57
          2148.51440	        -1.46124e+58
          2149.32070	        -1.00416e+58
          2150.12700	        -5.55242e+57
          2150.93330	         4.01272e+56
          2151.73960	         7.74689e+56
          2152.54590	        -4.19951e+57
          2153.35220	         1.45226e+57
          2154.15850	        -1.13154e+57
          2154.96480	        -5.69516e+57
          2155.77110	        -1.99192e+57
          2156.57740	         9.71469e+56
          2157.38370	         2.55999e+57
          2158.19000	        -4.38662e+57
          2158.99630	        -8.18283e+57
          2159.80260	        -9.83120e+57
          2160.60890	         1.48252e+56
          2161.41520	        -2.94037e+57
          2162.22150	        -1.15632e+58
          2163.02780	        -7.54793e+57
          2163.83410	        -8.75631e+57
          2164.64040	        -1.56945e+58
          2165.44670	        -1.57290e+58
          2166.25300	        -9.86562e+57
          2167.05930	        -1.33969e+58
          2167.86560	        -1.27976e+58
          2168.67190	        -1.53474e+58
          2169.47820	        -4.05304e+57
          2170.28450	        -5.86612e+57
          2171.09080	        -7.38164e+57
          2171.89710	        -4.68483e+57
          2172.70340	         1.57665e+57
          2173.50970	        -9.54307e+56
          2174.31600	        -3.55693e+57
          2175.12230	        -1.51098e+57
          2175.92860	        -3.62322e+57
          2176.73490	        -1.21921e+58
          2177.54120	        -8.34783e+57
          2178.34750	        -4.42736e+57
          2179.15380	                 nan
          2179.96010	                 nan
          2180.76640	                 nan
          2181.57270	                 nan
          2182.37900	                 nan
          2183.18530	                 nan
          2183.99160	                 nan
          2184.79790	                 nan
          2185.60420	                 nan
          2186.41050	                 nan
          2187.21680	                 nan
          2188.02310	                 nan
          2188.82940	                 nan
          2189.63570	                 nan
          2190.44200	                 nan
          2191.24830	                 nan
          2192.05460	                 nan
          2192.86090	                 nan
          2193.66720	                 nan
          2194.47350	                 nan
          2195.27980	                 nan
          2196.08610	                 nan
          2196.89240	                 nan
          2197.69870	                 nan
          2198.50500	                 nan
          2199.31130	                 nan
          2200.11760	                 nan
          2200.92390	                 nan
          2201.73020	                 nan
          2202.53650	                 nan
          2203.34280	                 nan
          2204.14910	                 nan
          2204.95540	                 nan
          2205.76170	                 nan
          2206.56800	                 nan
          2207.37430	                 nan
          2208.18060	                 nan
          2208.98690	                 nan
          2209.79320	                 nan
          2210.59950	                 nan
          2211.40580	                 nan
          2212.21210	                 nan
          2213.01840	                 nan
          2213.82470	                 nan
          2214.63100	                 nan
          2215.43730	         0.00000e+00
