#sample_325_stacked_spectrum_rest_UV-bands_median_H-alpha_noDC.txt
#median Lum: 1.68270e+42
#Rest-frame wavelength (A) | Luminosity (erg/s/A)
#
          1110.00000	         0.00000e+00
          1110.80630	         2.66288e+59
          1111.61260	         1.60426e+59
          1112.41890	         1.02970e+59
          1113.22520	         2.42394e+58
          1114.03150	        -1.91248e+59
          1114.83780	         8.09323e+58
          1115.64410	         8.05927e+58
          1116.45040	        -1.06570e+59
          1117.25670	         8.39681e+58
          1118.06300	         1.47550e+59
          1118.86930	        -7.00818e+58
          1119.67560	         1.94169e+58
          1120.48190	        -2.60052e+58
          1121.28820	        -1.88433e+59
          1122.09450	        -5.58944e+58
          1122.90080	         1.23394e+59
          1123.70710	         1.37190e+59
          1124.51340	         1.18709e+58
          1125.31970	         4.46132e+56
          1126.12600	         1.35732e+58
          1126.93230	        -6.60576e+58
          1127.73860	        -3.50247e+58
          1128.54490	        -2.61516e+58
          1129.35120	        -3.58204e+58
          1130.15750	        -2.73540e+58
          1130.96380	         2.92418e+58
          1131.77010	         6.27520e+58
          1132.57640	         2.81949e+58
          1133.38270	         3.35919e+58
          1134.18900	         2.04205e+58
          1134.99530	         2.89757e+58
          1135.80160	         1.89663e+58
          1136.60790	         1.20903e+58
          1137.41420	        -1.19080e+57
          1138.22050	         4.07594e+58
          1139.02680	         3.61174e+58
          1139.83310	         9.06247e+57
          1140.63940	         2.00174e+58
          1141.44570	        -8.82892e+57
          1142.25200	        -4.53298e+57
          1143.05830	         2.91630e+58
          1143.86460	         4.13185e+58
          1144.67090	         2.43117e+58
          1145.47720	         1.72468e+58
          1146.28350	         9.96819e+57
          1147.08980	         3.70934e+57
          1147.89610	         1.70476e+58
          1148.70240	         2.92029e+58
          1149.50870	         2.36188e+58
          1150.31500	         2.03826e+58
          1151.12130	         8.15276e+57
          1151.92760	         4.65969e+57
          1152.73390	        -6.98568e+57
          1153.54020	         1.05570e+58
          1154.34650	         2.32171e+58
          1155.15280	         2.36413e+58
          1155.95910	         1.54376e+58
          1156.76540	         1.90889e+58
          1157.57170	         2.73968e+57
          1158.37800	        -1.10709e+57
          1159.18430	        -5.53756e+57
          1159.99060	         8.21096e+56
          1160.79690	         1.62351e+57
          1161.60320	         1.10201e+58
          1162.40950	         2.59706e+58
          1163.21580	         2.38548e+58
          1164.02210	         1.42368e+58
          1164.82840	         1.28692e+58
          1165.63470	         2.15562e+58
          1166.44100	         3.22365e+58
          1167.24730	         1.91085e+58
          1168.05360	         7.19176e+57
          1168.85990	         7.50925e+57
          1169.66620	         6.74066e+57
          1170.47250	         2.81589e+57
          1171.27880	         6.04104e+57
          1172.08510	         7.90465e+57
          1172.89140	         6.11885e+57
          1173.69770	         8.57674e+57
          1174.50400	         1.27455e+58
          1175.31030	         1.33806e+58
          1176.11660	         1.59154e+58
          1176.92290	         1.36053e+58
          1177.72920	         1.18662e+58
          1178.53550	         5.47489e+57
          1179.34180	         4.68988e+57
          1180.14810	         8.12316e+57
          1180.95440	         9.17221e+57
          1181.76070	         8.14860e+57
          1182.56700	         9.79327e+57
          1183.37330	         9.69299e+57
          1184.17960	         1.18216e+58
          1184.98590	         8.86726e+57
          1185.79220	         7.18162e+57
          1186.59850	         1.11621e+58
          1187.40480	         9.66275e+57
          1188.21110	         1.64821e+58
          1189.01740	         8.95891e+57
          1189.82370	         1.44208e+58
          1190.63000	         1.08887e+58
          1191.43630	         8.45559e+57
          1192.24260	         1.09699e+58
          1193.04890	         1.64154e+58
          1193.85520	         1.07338e+58
          1194.66150	         3.50813e+57
          1195.46780	         8.36430e+57
          1196.27410	         1.46324e+58
          1197.08040	         1.33030e+58
          1197.88670	         1.72764e+58
          1198.69300	         1.67227e+58
          1199.49930	         1.97765e+58
          1200.30560	         1.25662e+58
          1201.11190	         1.51707e+58
          1201.91820	         1.40532e+58
          1202.72450	         9.23152e+57
          1203.53080	         1.26758e+58
          1204.33710	         1.02692e+58
          1205.14340	         9.49058e+57
          1205.94970	         9.98955e+57
          1206.75600	         1.02936e+58
          1207.56230	         6.20546e+57
          1208.36860	         1.04589e+58
          1209.17490	         5.40082e+57
          1209.98120	         6.58077e+57
          1210.78750	         6.38569e+57
          1211.59380	         9.48344e+57
          1212.40010	         1.60289e+58
          1213.20640	         1.75981e+58
          1214.01270	         2.34541e+58
          1214.81900	         2.93794e+58
          1215.62530	         4.48149e+58
          1216.43160	         9.15045e+58
          1217.23790	         1.52640e+59
          1218.04420	         1.13692e+59
          1218.85050	         8.56785e+58
          1219.65680	         5.85076e+58
          1220.46310	         3.42465e+58
          1221.26940	         2.50065e+58
          1222.07570	         1.60417e+58
          1222.88200	         1.17620e+58
          1223.68830	         1.19904e+58
          1224.49460	         7.90539e+57
          1225.30090	         4.91506e+57
          1226.10720	         4.98407e+57
          1226.91350	         7.27561e+57
          1227.71980	         1.03081e+58
          1228.52610	         1.13483e+58
          1229.33240	         1.01826e+58
          1230.13870	         1.02942e+58
          1230.94500	         7.00768e+57
          1231.75130	         9.62570e+57
          1232.55760	         1.11402e+58
          1233.36390	         8.42013e+57
          1234.17020	         8.11288e+57
          1234.97650	         6.09213e+57
          1235.78280	         6.26118e+57
          1236.58910	         6.99387e+57
          1237.39540	         1.00556e+58
          1238.20170	         1.04927e+58
          1239.00800	         1.24409e+58
          1239.81430	         1.48128e+58
          1240.62060	         1.28102e+58
          1241.42690	         1.10645e+58
          1242.23320	         1.12026e+58
          1243.03950	         7.92671e+57
          1243.84580	         7.42250e+57
          1244.65210	         1.04026e+58
          1245.45840	         1.02182e+58
          1246.26470	         8.13909e+57
          1247.07100	         5.92101e+57
          1247.87730	         4.64696e+57
          1248.68360	         5.31921e+57
          1249.48990	         1.09457e+58
          1250.29620	         1.11568e+58
          1251.10250	         7.78460e+57
          1251.90880	         5.46513e+57
          1252.71510	         6.03797e+57
          1253.52140	         1.04508e+58
          1254.32770	         1.11893e+58
          1255.13400	         1.42779e+58
          1255.94030	         1.22958e+58
          1256.74660	         1.06832e+58
          1257.55290	         1.00642e+58
          1258.35920	         8.91848e+57
          1259.16550	         8.38066e+57
          1259.97180	         5.65779e+57
          1260.77810	         6.96725e+57
          1261.58440	         9.82362e+57
          1262.39070	         1.01670e+58
          1263.19700	         9.36501e+57
          1264.00330	         8.17673e+57
          1264.80960	         8.57163e+57
          1265.61590	         1.23066e+58
          1266.42220	         1.12909e+58
          1267.22850	         1.04673e+58
          1268.03480	         1.34087e+58
          1268.84110	         1.37526e+58
          1269.64740	         1.24508e+58
          1270.45370	         1.22520e+58
          1271.26000	         1.12816e+58
          1272.06630	         1.06945e+58
          1272.87260	         1.00087e+58
          1273.67890	         1.02338e+58
          1274.48520	         1.20379e+58
          1275.29150	         1.22171e+58
          1276.09780	         1.10400e+58
          1276.90410	         1.35133e+58
          1277.71040	         1.25999e+58
          1278.51670	         1.25076e+58
          1279.32300	         1.39975e+58
          1280.12930	         1.26884e+58
          1280.93560	         1.09005e+58
          1281.74190	         1.20130e+58
          1282.54820	         1.27616e+58
          1283.35450	         9.54883e+57
          1284.16080	         9.75329e+57
          1284.96710	         1.49453e+58
          1285.77340	         1.27657e+58
          1286.57970	         1.03894e+58
          1287.38600	         1.27390e+58
          1288.19230	         1.64396e+58
          1288.99860	         1.60195e+58
          1289.80490	         1.10525e+58
          1290.61120	         1.22066e+58
          1291.41750	         1.22966e+58
          1292.22380	         1.23084e+58
          1293.03010	         1.22805e+58
          1293.83640	         1.23818e+58
          1294.64270	         9.02135e+57
          1295.44900	         4.78361e+57
          1296.25530	         6.47283e+57
          1297.06160	         1.03172e+58
          1297.86790	         9.91163e+57
          1298.67420	         8.95582e+57
          1299.48050	         1.03261e+58
          1300.28680	         1.15640e+58
          1301.09310	         9.27079e+57
          1301.89940	         4.07886e+57
          1302.70570	         7.14511e+57
          1303.51200	         8.59361e+57
          1304.31830	         9.83992e+57
          1305.12460	         1.15289e+58
          1305.93090	         1.13143e+58
          1306.73720	         1.12524e+58
          1307.54350	         1.44637e+58
          1308.34980	         1.43857e+58
          1309.15610	         1.41762e+58
          1309.96240	         1.56477e+58
          1310.76870	         1.46194e+58
          1311.57500	         1.05871e+58
          1312.38130	         1.05390e+58
          1313.18760	         1.21878e+58
          1313.99390	         1.41666e+58
          1314.80020	         1.51339e+58
          1315.60650	         1.35221e+58
          1316.41280	         1.09131e+58
          1317.21910	         1.10608e+58
          1318.02540	         1.10731e+58
          1318.83170	         1.19364e+58
          1319.63800	         1.09213e+58
          1320.44430	         1.27065e+58
          1321.25060	         1.27311e+58
          1322.05690	         1.13134e+58
          1322.86320	         1.24972e+58
          1323.66950	         1.12426e+58
          1324.47580	         1.01744e+58
          1325.28210	         1.01523e+58
          1326.08840	         9.91761e+57
          1326.89470	         1.06301e+58
          1327.70100	         8.90512e+57
          1328.50730	         7.38180e+57
          1329.31360	         9.64435e+57
          1330.11990	         9.24041e+57
          1330.92620	         8.96588e+57
          1331.73250	         1.05762e+58
          1332.53880	         1.02847e+58
          1333.34510	         1.03846e+58
          1334.15140	         9.40927e+57
          1334.95770	         9.17596e+57
          1335.76400	         1.05029e+58
          1336.57030	         1.14779e+58
          1337.37660	         1.08527e+58
          1338.18290	         1.08677e+58
          1338.98920	         1.16566e+58
          1339.79550	         1.05511e+58
          1340.60180	         9.84044e+57
          1341.40810	         1.17335e+58
          1342.21440	         1.26920e+58
          1343.02070	         1.25753e+58
          1343.82700	         1.25324e+58
          1344.63330	         1.13514e+58
          1345.43960	         1.26350e+58
          1346.24590	         1.25513e+58
          1347.05220	         1.20386e+58
          1347.85850	         1.14094e+58
          1348.66480	         1.29269e+58
          1349.47110	         1.28355e+58
          1350.27740	         1.32099e+58
          1351.08370	         1.20371e+58
          1351.89000	         1.09227e+58
          1352.69630	         1.21323e+58
          1353.50260	         1.38367e+58
          1354.30890	         1.37059e+58
          1355.11520	         1.24164e+58
          1355.92150	         1.08101e+58
          1356.72780	         1.10041e+58
          1357.53410	         1.13012e+58
          1358.34040	         1.08513e+58
          1359.14670	         1.09552e+58
          1359.95300	         1.16192e+58
          1360.75930	         1.19296e+58
          1361.56560	         1.06029e+58
          1362.37190	         1.15542e+58
          1363.17820	         1.34659e+58
          1363.98450	         1.26744e+58
          1364.79080	         1.15773e+58
          1365.59710	         1.28411e+58
          1366.40340	         1.27434e+58
          1367.20970	         9.46289e+57
          1368.01600	         9.01391e+57
          1368.82230	         9.79851e+57
          1369.62860	         1.06650e+58
          1370.43490	         9.32097e+57
          1371.24120	         8.28267e+57
          1372.04750	         6.72752e+57
          1372.85380	         9.81655e+57
          1373.66010	         1.16880e+58
          1374.46640	         9.37493e+57
          1375.27270	         9.00092e+57
          1376.07900	         8.28866e+57
          1376.88530	         7.91010e+57
          1377.69160	         8.56011e+57
          1378.49790	         7.84819e+57
          1379.30420	         7.41412e+57
          1380.11050	         9.69612e+57
          1380.91680	         8.66200e+57
          1381.72310	         7.74793e+57
          1382.52940	         8.40562e+57
          1383.33570	         7.62673e+57
          1384.14200	         8.90258e+57
          1384.94830	         1.02228e+58
          1385.75460	         1.05925e+58
          1386.56090	         1.28101e+58
          1387.36720	         8.97041e+57
          1388.17350	         9.87792e+57
          1388.97980	         1.14991e+58
          1389.78610	         9.84365e+57
          1390.59240	         8.00295e+57
          1391.39870	         6.10608e+57
          1392.20500	         7.98845e+57
          1393.01130	         7.70009e+57
          1393.81760	         6.79219e+57
          1394.62390	         7.02156e+57
          1395.43020	         6.00691e+57
          1396.23650	         5.11493e+57
          1397.04280	         6.15019e+57
          1397.84910	         9.01217e+57
          1398.65540	         9.29378e+57
          1399.46170	         8.95391e+57
          1400.26800	         8.07151e+57
          1401.07430	         7.83683e+57
          1401.88060	         8.62642e+57
          1402.68690	         9.51899e+57
          1403.49320	         9.51629e+57
          1404.29950	         8.96530e+57
          1405.10580	         1.05263e+58
          1405.91210	         1.14966e+58
          1406.71840	         1.05118e+58
          1407.52470	         1.09018e+58
          1408.33100	         1.06108e+58
          1409.13730	         1.08150e+58
          1409.94360	         1.08653e+58
          1410.74990	         1.08976e+58
          1411.55620	         9.17715e+57
          1412.36250	         9.26590e+57
          1413.16880	         9.98412e+57
          1413.97510	         7.44826e+57
          1414.78140	         7.47297e+57
          1415.58770	         1.04601e+58
          1416.39400	         1.08013e+58
          1417.20030	         1.06787e+58
          1418.00660	         9.37667e+57
          1418.81290	         1.03814e+58
          1419.61920	         1.10516e+58
          1420.42550	         1.14966e+58
          1421.23180	         1.28936e+58
          1422.03810	         1.14266e+58
          1422.84440	         1.11061e+58
          1423.65070	         1.38543e+58
          1424.45700	         1.28941e+58
          1425.26330	         1.05635e+58
          1426.06960	         1.02517e+58
          1426.87590	         1.05972e+58
          1427.68220	         1.05580e+58
          1428.48850	         1.00056e+58
          1429.29480	         8.73115e+57
          1430.10110	         9.02579e+57
          1430.90740	         9.10537e+57
          1431.71370	         9.47837e+57
          1432.52000	         9.36965e+57
          1433.32630	         8.29477e+57
          1434.13260	         7.36766e+57
          1434.93890	         7.31792e+57
          1435.74520	         9.14548e+57
          1436.55150	         9.28181e+57
          1437.35780	         9.38846e+57
          1438.16410	         1.00262e+58
          1438.97040	         9.13633e+57
          1439.77670	         9.24208e+57
          1440.58300	         9.47867e+57
          1441.38930	         9.58665e+57
          1442.19560	         1.00522e+58
          1443.00190	         9.82989e+57
          1443.80820	         1.03238e+58
          1444.61450	         1.00424e+58
          1445.42080	         8.65822e+57
          1446.22710	         1.00746e+58
          1447.03340	         1.14524e+58
          1447.83970	         1.13969e+58
          1448.64600	         1.17179e+58
          1449.45230	         1.20696e+58
          1450.25860	         1.06485e+58
          1451.06490	         8.90447e+57
          1451.87120	         7.94618e+57
          1452.67750	         7.74188e+57
          1453.48380	         9.02041e+57
          1454.29010	         8.35212e+57
          1455.09640	         7.58920e+57
          1455.90270	         8.80598e+57
          1456.70900	         9.28580e+57
          1457.51530	         9.86276e+57
          1458.32160	         1.24711e+58
          1459.12790	         1.18324e+58
          1459.93420	         9.39849e+57
          1460.74050	         8.32843e+57
          1461.54680	         8.35737e+57
          1462.35310	         7.29148e+57
          1463.15940	         9.67603e+57
          1463.96570	         1.14508e+58
          1464.77200	         1.19169e+58
          1465.57830	         1.14512e+58
          1466.38460	         9.85942e+57
          1467.19090	         8.59401e+57
          1467.99720	         8.18221e+57
          1468.80350	         9.10800e+57
          1469.60980	         9.29285e+57
          1470.41610	         9.85814e+57
          1471.22240	         9.80807e+57
          1472.02870	         1.05616e+58
          1472.83500	         9.93895e+57
          1473.64130	         9.46417e+57
          1474.44760	         9.58843e+57
          1475.25390	         9.92054e+57
          1476.06020	         9.75471e+57
          1476.86650	         9.43192e+57
          1477.67280	         7.85161e+57
          1478.47910	         6.87630e+57
          1479.28540	         7.50354e+57
          1480.09170	         8.64259e+57
          1480.89800	         8.55774e+57
          1481.70430	         9.30739e+57
          1482.51060	         9.11173e+57
          1483.31690	         7.50652e+57
          1484.12320	         8.14798e+57
          1484.92950	         9.10889e+57
          1485.73580	         8.36475e+57
          1486.54210	         7.70969e+57
          1487.34840	         8.82292e+57
          1488.15470	         8.75600e+57
          1488.96100	         8.16775e+57
          1489.76730	         9.08040e+57
          1490.57360	         8.02280e+57
          1491.37990	         7.04407e+57
          1492.18620	         7.57725e+57
          1492.99250	         8.00535e+57
          1493.79880	         8.29166e+57
          1494.60510	         8.51969e+57
          1495.41140	         7.12380e+57
          1496.21770	         8.03874e+57
          1497.02400	         9.80673e+57
          1497.83030	         9.24960e+57
          1498.63660	         7.61297e+57
          1499.44290	         6.83497e+57
          1500.24920	         7.28459e+57
          1501.05550	         8.00511e+57
          1501.86180	         9.19322e+57
          1502.66810	         9.33164e+57
          1503.47440	         9.02207e+57
          1504.28070	         8.72390e+57
          1505.08700	         8.71479e+57
          1505.89330	         8.72768e+57
          1506.69960	         7.99513e+57
          1507.50590	         8.91097e+57
          1508.31220	         8.50425e+57
          1509.11850	         8.17082e+57
          1509.92480	         9.45019e+57
          1510.73110	         9.47783e+57
          1511.53740	         7.75643e+57
          1512.34370	         7.41426e+57
          1513.15000	         8.50687e+57
          1513.95630	         9.42496e+57
          1514.76260	         8.94572e+57
          1515.56890	         8.38771e+57
          1516.37520	         8.92504e+57
          1517.18150	         8.79271e+57
          1517.98780	         7.70625e+57
          1518.79410	         6.57975e+57
          1519.60040	         7.97316e+57
          1520.40670	         9.49680e+57
          1521.21300	         9.33239e+57
          1522.01930	         8.57039e+57
          1522.82560	         8.84175e+57
          1523.63190	         9.66669e+57
          1524.43820	         8.71026e+57
          1525.24450	         6.45648e+57
          1526.05080	         6.17726e+57
          1526.85710	         6.12130e+57
          1527.66340	         5.95800e+57
          1528.46970	         7.41884e+57
          1529.27600	         7.45072e+57
          1530.08230	         8.19758e+57
          1530.88860	         8.70585e+57
          1531.69490	         9.33897e+57
          1532.50120	         9.69622e+57
          1533.30750	         1.04414e+58
          1534.11380	         1.04161e+58
          1534.92010	         9.76552e+57
          1535.72640	         9.73937e+57
          1536.53270	         8.98005e+57
          1537.33900	         8.70206e+57
          1538.14530	         9.71293e+57
          1538.95160	         9.01579e+57
          1539.75790	         9.32509e+57
          1540.56420	         1.00470e+58
          1541.37050	         9.33255e+57
          1542.17680	         8.61267e+57
          1542.98310	         8.38614e+57
          1543.78940	         8.00249e+57
          1544.59570	         7.51069e+57
          1545.40200	         7.39800e+57
          1546.20830	         9.04406e+57
          1547.01460	         1.09596e+58
          1547.82090	         1.11932e+58
          1548.62720	         1.23393e+58
          1549.43350	         1.13192e+58
          1550.23980	         1.03668e+58
          1551.04610	         1.22254e+58
          1551.85240	         1.17130e+58
          1552.65870	         1.16323e+58
          1553.46500	         1.05387e+58
          1554.27130	         9.46862e+57
          1555.07760	         9.71455e+57
          1555.88390	         8.99254e+57
          1556.69020	         8.38444e+57
          1557.49650	         8.79512e+57
          1558.30280	         7.86721e+57
          1559.10910	         8.07610e+57
          1559.91540	         8.91279e+57
          1560.72170	         8.02796e+57
          1561.52800	         7.43025e+57
          1562.33430	         7.67425e+57
          1563.14060	         7.73530e+57
          1563.94690	         7.81499e+57
          1564.75320	         8.48813e+57
          1565.55950	         8.16991e+57
          1566.36580	         8.32757e+57
          1567.17210	         9.58142e+57
          1567.97840	         9.01809e+57
          1568.78470	         8.10928e+57
          1569.59100	         9.27101e+57
          1570.39730	         9.15712e+57
          1571.20360	         8.04630e+57
          1572.00990	         7.53661e+57
          1572.81620	         8.13551e+57
          1573.62250	         1.01075e+58
          1574.42880	         9.35374e+57
          1575.23510	         7.84045e+57
          1576.04140	         8.40876e+57
          1576.84770	         8.93445e+57
          1577.65400	         8.78350e+57
          1578.46030	         9.71900e+57
          1579.26660	         1.05483e+58
          1580.07290	         8.68428e+57
          1580.87920	         7.38568e+57
          1581.68550	         7.81973e+57
          1582.49180	         8.00051e+57
          1583.29810	         7.72113e+57
          1584.10440	         7.80929e+57
          1584.91070	         8.34490e+57
          1585.71700	         8.42989e+57
          1586.52330	         8.34294e+57
          1587.32960	         8.44891e+57
          1588.13590	         8.22916e+57
          1588.94220	         8.30439e+57
          1589.74850	         8.80192e+57
          1590.55480	         9.07878e+57
          1591.36110	         8.71823e+57
          1592.16740	         8.52439e+57
          1592.97370	         7.69838e+57
          1593.78000	         7.57576e+57
          1594.58630	         8.89990e+57
          1595.39260	         9.14554e+57
          1596.19890	         9.09755e+57
          1597.00520	         9.42170e+57
          1597.81150	         8.83927e+57
          1598.61780	         7.21822e+57
          1599.42410	         7.19555e+57
          1600.23040	         7.31307e+57
          1601.03670	         7.39844e+57
          1601.84300	         8.43604e+57
          1602.64930	         8.85515e+57
          1603.45560	         9.14291e+57
          1604.26190	         9.00886e+57
          1605.06820	         8.39270e+57
          1605.87450	         7.98754e+57
          1606.68080	         7.36442e+57
          1607.48710	         6.16214e+57
          1608.29340	         5.16727e+57
          1609.09970	         6.44808e+57
          1609.90600	         6.85108e+57
          1610.71230	         6.38129e+57
          1611.51860	         6.76180e+57
          1612.32490	         7.34849e+57
          1613.13120	         8.19679e+57
          1613.93750	         7.77114e+57
          1614.74380	         8.98201e+57
          1615.55010	         9.29227e+57
          1616.35640	         9.12402e+57
          1617.16270	         9.29535e+57
          1617.96900	         9.09860e+57
          1618.77530	         8.23941e+57
          1619.58160	         8.32443e+57
          1620.38790	         7.16383e+57
          1621.19420	         7.58352e+57
          1622.00050	         8.22125e+57
          1622.80680	         9.62154e+57
          1623.61310	         8.07885e+57
          1624.41940	         7.84994e+57
          1625.22570	         9.83096e+57
          1626.03200	         9.53496e+57
          1626.83830	         9.40521e+57
          1627.64460	         9.24957e+57
          1628.45090	         7.74610e+57
          1629.25720	         8.19442e+57
          1630.06350	         9.08393e+57
          1630.86980	         6.80352e+57
          1631.67610	         7.18415e+57
          1632.48240	         8.72252e+57
          1633.28870	         8.84340e+57
          1634.09500	         1.03225e+58
          1634.90130	         1.17743e+58
          1635.70760	         9.53671e+57
          1636.51390	         8.06394e+57
          1637.32020	         8.34092e+57
          1638.12650	         9.33383e+57
          1638.93280	         1.00295e+58
          1639.73910	         9.88926e+57
          1640.54540	         9.52093e+57
          1641.35170	         8.65562e+57
          1642.15800	         9.67135e+57
          1642.96430	         9.44113e+57
          1643.77060	         9.10791e+57
          1644.57690	         8.59128e+57
          1645.38320	         7.69939e+57
          1646.18950	         7.04620e+57
          1646.99580	         8.45159e+57
          1647.80210	         7.80769e+57
          1648.60840	         7.54116e+57
          1649.41470	         8.92650e+57
          1650.22100	         7.81061e+57
          1651.02730	         7.18667e+57
          1651.83360	         7.34129e+57
          1652.63990	         8.45990e+57
          1653.44620	         1.00461e+58
          1654.25250	         8.67142e+57
          1655.05880	         7.14862e+57
          1655.86510	         8.15536e+57
          1656.67140	         8.02504e+57
          1657.47770	         6.71096e+57
          1658.28400	         7.59844e+57
          1659.09030	         9.03894e+57
          1659.89660	         9.52702e+57
          1660.70290	         9.20915e+57
          1661.50920	         8.90559e+57
          1662.31550	         7.90693e+57
          1663.12180	         9.05410e+57
          1663.92810	         9.45467e+57
          1664.73440	         1.03662e+58
          1665.54070	         1.16747e+58
          1666.34700	         1.16076e+58
          1667.15330	         1.17756e+58
          1667.95960	         1.02991e+58
          1668.76590	         7.85370e+57
          1669.57220	         6.84611e+57
          1670.37850	         7.45581e+57
          1671.18480	         8.22668e+57
          1671.99110	         7.55626e+57
          1672.79740	         6.84537e+57
          1673.60370	         6.80887e+57
          1674.41000	         7.19875e+57
          1675.21630	         6.57341e+57
          1676.02260	         6.44969e+57
          1676.82890	         7.34074e+57
          1677.63520	         7.42862e+57
          1678.44150	         6.82009e+57
          1679.24780	         8.17739e+57
          1680.05410	         7.92961e+57
          1680.86040	         7.40466e+57
          1681.66670	         8.24574e+57
          1682.47300	         8.63002e+57
          1683.27930	         7.99073e+57
          1684.08560	         8.55132e+57
          1684.89190	         8.44613e+57
          1685.69820	         6.23578e+57
          1686.50450	         4.81046e+57
          1687.31080	         5.77297e+57
          1688.11710	         8.07605e+57
          1688.92340	         6.89439e+57
          1689.72970	         5.86736e+57
          1690.53600	         5.99985e+57
          1691.34230	         6.67884e+57
          1692.14860	         7.00548e+57
          1692.95490	         7.46486e+57
          1693.76120	         7.49533e+57
          1694.56750	         7.47035e+57
          1695.37380	         9.16970e+57
          1696.18010	         9.01647e+57
          1696.98640	         8.87900e+57
          1697.79270	         8.70129e+57
          1698.59900	         8.66883e+57
          1699.40530	         7.48091e+57
          1700.21160	         8.44966e+57
          1701.01790	         9.22732e+57
          1701.82420	         8.31232e+57
          1702.63050	         7.62140e+57
          1703.43680	         8.99781e+57
          1704.24310	         9.20402e+57
          1705.04940	         7.96864e+57
          1705.85570	         7.85131e+57
          1706.66200	         8.27828e+57
          1707.46830	         8.05045e+57
          1708.27460	         7.63988e+57
          1709.08090	         6.80725e+57
          1709.88720	         7.11012e+57
          1710.69350	         7.18774e+57
          1711.49980	         6.73813e+57
          1712.30610	         6.86241e+57
          1713.11240	         9.07834e+57
          1713.91870	         7.26114e+57
          1714.72500	         8.28459e+57
          1715.53130	         9.71308e+57
          1716.33760	         8.39189e+57
          1717.14390	         7.16133e+57
          1717.95020	         8.57932e+57
          1718.75650	         9.28484e+57
          1719.56280	         8.05128e+57
          1720.36910	         7.48434e+57
          1721.17540	         7.16520e+57
          1721.98170	         6.34293e+57
          1722.78800	         5.74701e+57
          1723.59430	         7.21002e+57
          1724.40060	         8.71641e+57
          1725.20690	         7.94935e+57
          1726.01320	         7.63000e+57
          1726.81950	         7.03349e+57
          1727.62580	         7.20460e+57
          1728.43210	         6.50844e+57
          1729.23840	         6.54599e+57
          1730.04470	         7.34882e+57
          1730.85100	         7.89401e+57
          1731.65730	         9.03804e+57
          1732.46360	         8.37855e+57
          1733.26990	         6.80025e+57
          1734.07620	         6.62328e+57
          1734.88250	         7.35971e+57
          1735.68880	         8.24004e+57
          1736.49510	         8.97272e+57
          1737.30140	         7.97349e+57
          1738.10770	         7.23022e+57
          1738.91400	         8.60454e+57
          1739.72030	         8.37439e+57
          1740.52660	         6.60588e+57
          1741.33290	         6.32936e+57
          1742.13920	         6.35536e+57
          1742.94550	         7.17088e+57
          1743.75180	         7.84860e+57
          1744.55810	         7.28909e+57
          1745.36440	         7.04152e+57
          1746.17070	         4.83525e+57
          1746.97700	         3.80218e+57
          1747.78330	         6.26429e+57
          1748.58960	         7.31686e+57
          1749.39590	         6.34725e+57
          1750.20220	         5.48026e+57
          1751.00850	         6.00776e+57
          1751.81480	         5.22649e+57
          1752.62110	         5.97663e+57
          1753.42740	         8.27877e+57
          1754.23370	         6.68280e+57
          1755.04000	         6.14900e+57
          1755.84630	         7.82967e+57
          1756.65260	         9.30022e+57
          1757.45890	         8.42394e+57
          1758.26520	         6.57027e+57
          1759.07150	         9.01933e+57
          1759.87780	         9.17789e+57
          1760.68410	         8.26280e+57
          1761.49040	         8.56701e+57
          1762.29670	         6.65704e+57
          1763.10300	         7.54030e+57
          1763.90930	         8.36119e+57
          1764.71560	         8.40453e+57
          1765.52190	         8.04558e+57
          1766.32820	         8.45733e+57
          1767.13450	         8.26099e+57
          1767.94080	         6.73737e+57
          1768.74710	         6.77189e+57
          1769.55340	         7.19505e+57
          1770.35970	         7.16577e+57
          1771.16600	         7.99218e+57
          1771.97230	         8.07536e+57
          1772.77860	         8.28061e+57
          1773.58490	         7.76837e+57
          1774.39120	         7.17858e+57
          1775.19750	         6.18705e+57
          1776.00380	         7.26956e+57
          1776.81010	         6.75588e+57
          1777.61640	         6.84740e+57
          1778.42270	         7.33992e+57
          1779.22900	         7.68614e+57
          1780.03530	         7.09731e+57
          1780.84160	         7.29948e+57
          1781.64790	         8.35096e+57
          1782.45420	         7.04603e+57
          1783.26050	         5.94164e+57
          1784.06680	         6.73520e+57
          1784.87310	         7.47420e+57
          1785.67940	         7.09948e+57
          1786.48570	         6.73652e+57
          1787.29200	         6.72166e+57
          1788.09830	         6.99349e+57
          1788.90460	         6.78426e+57
          1789.71090	         5.78874e+57
          1790.51720	         4.82835e+57
          1791.32350	         7.43545e+57
          1792.12980	         8.93707e+57
          1792.93610	         7.59083e+57
          1793.74240	         6.82786e+57
          1794.54870	         8.06886e+57
          1795.35500	         8.24011e+57
          1796.16130	         7.19101e+57
          1796.96760	         7.01298e+57
          1797.77390	         6.92248e+57
          1798.58020	         6.98624e+57
          1799.38650	         7.10964e+57
          1800.19280	         7.53471e+57
          1800.99910	         7.81183e+57
          1801.80540	         8.01259e+57
          1802.61170	         8.04530e+57
          1803.41800	         8.26924e+57
          1804.22430	         7.95432e+57
          1805.03060	         7.82438e+57
          1805.83690	         7.99473e+57
          1806.64320	         7.34036e+57
          1807.44950	         7.45684e+57
          1808.25580	         7.60743e+57
          1809.06210	         8.88226e+57
          1809.86840	         6.59071e+57
          1810.67470	         7.05611e+57
          1811.48100	         8.37556e+57
          1812.28730	         9.21511e+57
          1813.09360	         7.85286e+57
          1813.89990	         7.65095e+57
          1814.70620	         6.57589e+57
          1815.51250	         7.94889e+57
          1816.31880	         8.31148e+57
          1817.12510	         6.82359e+57
          1817.93140	         6.68434e+57
          1818.73770	         7.08105e+57
          1819.54400	         8.39136e+57
          1820.35030	         8.16955e+57
          1821.15660	         7.55180e+57
          1821.96290	         6.39779e+57
          1822.76920	         6.67841e+57
          1823.57550	         7.72373e+57
          1824.38180	         7.84214e+57
          1825.18810	         8.65232e+57
          1825.99440	         8.52226e+57
          1826.80070	         7.36951e+57
          1827.60700	         6.38919e+57
          1828.41330	         6.09638e+57
          1829.21960	         6.12209e+57
          1830.02590	         7.13175e+57
          1830.83220	         8.22331e+57
          1831.63850	         7.21817e+57
          1832.44480	         7.07348e+57
          1833.25110	         8.05102e+57
          1834.05740	         8.61278e+57
          1834.86370	         7.45950e+57
          1835.67000	         6.13721e+57
          1836.47630	         7.38370e+57
          1837.28260	         8.51921e+57
          1838.08890	         8.74087e+57
          1838.89520	         8.25717e+57
          1839.70150	         7.80466e+57
          1840.50780	         7.80501e+57
          1841.31410	         6.96054e+57
          1842.12040	         7.04059e+57
          1842.92670	         7.38624e+57
          1843.73300	         6.95283e+57
          1844.53930	         6.39587e+57
          1845.34560	         6.58415e+57
          1846.15190	         7.83304e+57
          1846.95820	         7.53461e+57
          1847.76450	         7.32940e+57
          1848.57080	         6.95849e+57
          1849.37710	         7.03243e+57
          1850.18340	         7.23964e+57
          1850.98970	         7.18392e+57
          1851.79600	         6.64365e+57
          1852.60230	         6.71091e+57
          1853.40860	         6.94329e+57
          1854.21490	         6.55519e+57
          1855.02120	         5.46387e+57
          1855.82750	         4.70328e+57
          1856.63380	         5.84602e+57
          1857.44010	         8.19442e+57
          1858.24640	         7.43166e+57
          1859.05270	         7.73478e+57
          1859.85900	         6.25756e+57
          1860.66530	         7.05756e+57
          1861.47160	         8.01197e+57
          1862.27790	         8.17299e+57
          1863.08420	         7.76089e+57
          1863.89050	         8.18279e+57
          1864.69680	         6.65765e+57
          1865.50310	         6.71226e+57
          1866.30940	         6.88149e+57
          1867.11570	         6.56552e+57
          1867.92200	         7.47016e+57
          1868.72830	         7.63495e+57
          1869.53460	         6.59212e+57
          1870.34090	         7.18270e+57
          1871.14720	         8.05487e+57
          1871.95350	         6.98920e+57
          1872.75980	         6.91046e+57
          1873.56610	         7.03941e+57
          1874.37240	         5.73872e+57
          1875.17870	         5.70683e+57
          1875.98500	         6.74072e+57
          1876.79130	         7.92166e+57
          1877.59760	         7.78416e+57
          1878.40390	         6.37234e+57
          1879.21020	         6.23116e+57
          1880.01650	         7.30163e+57
          1880.82280	         8.62045e+57
          1881.62910	         8.84866e+57
          1882.43540	         1.00227e+58
          1883.24170	         9.17382e+57
          1884.04800	         7.76221e+57
          1884.85430	         7.55438e+57
          1885.66060	         7.64664e+57
          1886.46690	         8.10664e+57
          1887.27320	         7.36565e+57
          1888.07950	         6.59919e+57
          1888.88580	         7.32043e+57
          1889.69210	         9.30794e+57
          1890.49840	         8.84120e+57
          1891.30470	         8.49756e+57
          1892.11100	         8.54787e+57
          1892.91730	         7.21306e+57
          1893.72360	         7.91616e+57
          1894.52990	         8.45892e+57
          1895.33620	         9.01710e+57
          1896.14250	         8.15786e+57
          1896.94880	         6.57889e+57
          1897.75510	         5.09810e+57
          1898.56140	         6.69779e+57
          1899.36770	         7.73824e+57
          1900.17400	         5.80198e+57
          1900.98030	         6.41277e+57
          1901.78660	         6.99876e+57
          1902.59290	         6.89699e+57
          1903.39920	         8.71962e+57
          1904.20550	         9.67904e+57
          1905.01180	         8.61843e+57
          1905.81810	         9.86749e+57
          1906.62440	         1.18260e+58
          1907.43070	         1.43682e+58
          1908.23700	         1.54705e+58
          1909.04330	         1.26442e+58
          1909.84960	         1.05541e+58
          1910.65590	         9.73617e+57
          1911.46220	         8.75987e+57
          1912.26850	         6.93390e+57
          1913.07480	         5.87013e+57
          1913.88110	         6.10399e+57
          1914.68740	         5.81997e+57
          1915.49370	         5.79360e+57
          1916.30000	         6.23310e+57
          1917.10630	         6.89673e+57
          1917.91260	         6.39456e+57
          1918.71890	         6.36092e+57
          1919.52520	         6.04695e+57
          1920.33150	         6.30546e+57
          1921.13780	         7.01083e+57
          1921.94410	         8.10591e+57
          1922.75040	         7.45853e+57
          1923.55670	         7.53886e+57
          1924.36300	         7.05555e+57
          1925.16930	         5.75154e+57
          1925.97560	         5.61313e+57
          1926.78190	         5.15926e+57
          1927.58820	         6.40065e+57
          1928.39450	         6.86928e+57
          1929.20080	         6.48031e+57
          1930.00710	         6.51314e+57
          1930.81340	         7.38129e+57
          1931.61970	         5.96928e+57
          1932.42600	         7.38769e+57
          1933.23230	         7.57113e+57
          1934.03860	         5.39951e+57
          1934.84490	         6.13485e+57
          1935.65120	         7.40594e+57
          1936.45750	         8.70333e+57
          1937.26380	         7.03527e+57
          1938.07010	         7.33541e+57
          1938.87640	         7.12047e+57
          1939.68270	         8.13312e+57
          1940.48900	         8.54185e+57
          1941.29530	         8.87043e+57
          1942.10160	         8.12320e+57
          1942.90790	         7.34256e+57
          1943.71420	         6.11397e+57
          1944.52050	         5.69043e+57
          1945.32680	         6.13743e+57
          1946.13310	         7.52092e+57
          1946.93940	         7.60351e+57
          1947.74570	         7.55943e+57
          1948.55200	         5.33191e+57
          1949.35830	         6.13850e+57
          1950.16460	         5.04964e+57
          1950.97090	         5.74836e+57
          1951.77720	         7.56354e+57
          1952.58350	         8.56349e+57
          1953.38980	         6.92330e+57
          1954.19610	         4.88647e+57
          1955.00240	         5.08561e+57
          1955.80870	         7.04882e+57
          1956.61500	         6.68888e+57
          1957.42130	         5.71978e+57
          1958.22760	         5.58648e+57
          1959.03390	         6.96032e+57
          1959.84020	         7.45636e+57
          1960.64650	         6.76970e+57
          1961.45280	         6.34007e+57
          1962.25910	         7.38045e+57
          1963.06540	         7.72473e+57
          1963.87170	         6.43789e+57
          1964.67800	         7.00340e+57
          1965.48430	         7.73252e+57
          1966.29060	         6.25496e+57
          1967.09690	         7.36982e+57
          1967.90320	         7.02686e+57
          1968.70950	         7.12909e+57
          1969.51580	         5.95587e+57
          1970.32210	         6.26101e+57
          1971.12840	         6.83919e+57
          1971.93470	         4.49571e+57
          1972.74100	         4.73230e+57
          1973.54730	         7.13023e+57
          1974.35360	         7.36544e+57
          1975.15990	         7.29041e+57
          1975.96620	         7.34255e+57
          1976.77250	         8.44558e+57
          1977.57880	         7.68728e+57
          1978.38510	         6.25404e+57
          1979.19140	         5.40609e+57
          1979.99770	         7.23598e+57
          1980.80400	         8.22433e+57
          1981.61030	         7.69955e+57
          1982.41660	         6.08259e+57
          1983.22290	         5.31093e+57
          1984.02920	         5.87012e+57
          1984.83550	         6.21362e+57
          1985.64180	         7.06604e+57
          1986.44810	         6.88858e+57
          1987.25440	         5.61024e+57
          1988.06070	         5.43545e+57
          1988.86700	         6.54337e+57
          1989.67330	         7.08786e+57
          1990.47960	         6.80006e+57
          1991.28590	         5.75651e+57
          1992.09220	         5.38043e+57
          1992.89850	         6.11240e+57
          1993.70480	         4.90210e+57
          1994.51110	         4.31307e+57
          1995.31740	         4.73531e+57
          1996.12370	         4.92495e+57
          1996.93000	         6.15834e+57
          1997.73630	         7.93612e+57
          1998.54260	         7.04031e+57
          1999.34890	         7.29916e+57
          2000.15520	         7.51035e+57
          2000.96150	         7.91184e+57
          2001.76780	         6.38075e+57
          2002.57410	         4.45918e+57
          2003.38040	         5.69802e+57
          2004.18670	         6.65162e+57
          2004.99300	         6.33751e+57
          2005.79930	         7.64749e+57
          2006.60560	         6.58814e+57
          2007.41190	         6.85549e+57
          2008.21820	         7.05828e+57
          2009.02450	         6.62000e+57
          2009.83080	         6.77745e+57
          2010.63710	         6.48591e+57
          2011.44340	         6.22743e+57
          2012.24970	         6.96105e+57
          2013.05600	         7.54521e+57
          2013.86230	         6.60100e+57
          2014.66860	         5.39710e+57
          2015.47490	         5.04801e+57
          2016.28120	         5.47682e+57
          2017.08750	         5.75287e+57
          2017.89380	         6.69976e+57
          2018.70010	         6.56144e+57
          2019.50640	         5.59956e+57
          2020.31270	         6.78901e+57
          2021.11900	         7.50345e+57
          2021.92530	         7.56890e+57
          2022.73160	         7.10139e+57
          2023.53790	         6.34975e+57
          2024.34420	         6.88404e+57
          2025.15050	         6.23227e+57
          2025.95680	         6.00729e+57
          2026.76310	         6.85148e+57
          2027.56940	         7.63931e+57
          2028.37570	         7.50250e+57
          2029.18200	         6.28303e+57
          2029.98830	         6.11238e+57
          2030.79460	         6.63242e+57
          2031.60090	         7.45963e+57
          2032.40720	         6.33026e+57
          2033.21350	         5.22882e+57
          2034.01980	         6.07674e+57
          2034.82610	         4.47661e+57
          2035.63240	         4.65656e+57
          2036.43870	         5.21152e+57
          2037.24500	         6.73949e+57
          2038.05130	         6.50815e+57
          2038.85760	         5.88794e+57
          2039.66390	         5.33654e+57
          2040.47020	         5.63545e+57
          2041.27650	         5.71845e+57
          2042.08280	         5.60950e+57
          2042.88910	         5.72435e+57
          2043.69540	         5.69593e+57
          2044.50170	         5.05562e+57
          2045.30800	         5.29153e+57
          2046.11430	         4.87979e+57
          2046.92060	         4.21321e+57
          2047.72690	         5.77346e+57
          2048.53320	         5.43369e+57
          2049.33950	         4.21296e+57
          2050.14580	         5.94085e+57
          2050.95210	         7.05576e+57
          2051.75840	         7.85656e+57
          2052.56470	         6.62565e+57
          2053.37100	         3.59444e+57
          2054.17730	         4.79345e+57
          2054.98360	         4.67196e+57
          2055.78990	         2.90877e+57
          2056.59620	         3.47129e+57
          2057.40250	         4.73876e+57
          2058.20880	         6.31263e+57
          2059.01510	         5.63909e+57
          2059.82140	         5.74590e+57
          2060.62770	         1.05616e+58
          2061.43400	         1.67551e+58
          2062.24030	         1.47657e+58
          2063.04660	         4.23069e+57
          2063.85290	         1.62403e+57
          2064.65920	        -3.15357e+57
          2065.46550	        -7.56162e+57
          2066.27180	        -8.08462e+57
          2067.07810	         3.08741e+57
          2067.88440	         5.33182e+57
          2068.69070	         6.26915e+57
          2069.49700	         5.74531e+57
          2070.30330	         2.61694e+57
          2071.10960	         6.50400e+57
          2071.91590	         6.47331e+57
          2072.72220	         3.37786e+57
          2073.52850	         4.46586e+57
          2074.33480	         3.95017e+57
          2075.14110	         4.61215e+57
          2075.94740	         3.48633e+57
          2076.75370	         3.60175e+57
          2077.56000	         4.14134e+57
          2078.36630	         5.27592e+57
          2079.17260	         4.76251e+57
          2079.97890	         5.66979e+57
          2080.78520	         5.68223e+57
          2081.59150	         5.10726e+57
          2082.39780	         3.79256e+57
          2083.20410	         2.63346e+57
          2084.01040	         3.65249e+57
          2084.81670	         4.02147e+57
          2085.62300	         2.38367e+57
          2086.42930	         2.17009e+57
          2087.23560	         4.30390e+57
          2088.04190	         4.48750e+57
          2088.84820	         4.21745e+57
          2089.65450	         3.59714e+57
          2090.46080	         1.04671e+57
          2091.26710	         2.26079e+57
          2092.07340	         3.13808e+57
          2092.87970	         1.79560e+57
          2093.68600	        -1.52740e+57
          2094.49230	         8.42846e+56
          2095.29860	         4.53070e+57
          2096.10490	         3.19506e+57
          2096.91120	         2.28845e+57
          2097.71750	         2.61289e+57
          2098.52380	         1.31268e+57
          2099.33010	         1.85758e+57
          2100.13640	         1.45984e+57
          2100.94270	         2.68287e+57
          2101.74900	         3.37773e+57
          2102.55530	         3.30579e+57
          2103.36160	         3.48121e+57
          2104.16790	         3.24295e+57
          2104.97420	         1.54182e+57
          2105.78050	         7.32474e+56
          2106.58680	        -5.58378e+56
          2107.39310	        -1.90993e+57
          2108.19940	        -8.31942e+56
          2109.00570	        -2.06170e+57
          2109.81200	        -1.73675e+57
          2110.61830	         1.62214e+57
          2111.42460	         3.09943e+56
          2112.23090	        -1.72016e+57
          2113.03720	         3.18255e+56
          2113.84350	        -9.40246e+56
          2114.64980	         1.63639e+57
          2115.45610	         2.47486e+57
          2116.26240	        -1.54915e+57
          2117.06870	        -2.30292e+56
          2117.87500	        -4.24800e+57
          2118.68130	        -1.63434e+57
          2119.48760	         2.15832e+57
          2120.29390	        -5.42589e+56
          2121.10020	        -2.31526e+57
          2121.90650	        -1.60063e+57
          2122.71280	        -3.81041e+57
          2123.51910	        -3.26537e+57
          2124.32540	         3.06306e+57
          2125.13170	        -2.81227e+57
          2125.93800	         8.02268e+56
          2126.74430	         6.49895e+56
          2127.55060	        -3.85551e+57
          2128.35690	         2.93356e+56
          2129.16320	        -3.64063e+57
          2129.96950	        -9.31159e+57
          2130.77580	        -1.23491e+57
          2131.58210	         4.20155e+57
          2132.38840	         1.61887e+56
          2133.19470	         1.23508e+56
          2134.00100	         1.13092e+57
          2134.80730	         4.23419e+57
          2135.61360	         1.00644e+58
          2136.41990	         3.47456e+57
          2137.22620	         9.80585e+56
          2138.03250	         2.25634e+57
          2138.83880	        -5.03486e+57
          2139.64510	        -5.12466e+57
          2140.45140	        -3.12557e+57
          2141.25770	        -1.22768e+58
          2142.06400	        -7.12477e+57
          2142.87030	         2.50806e+55
          2143.67660	         6.73805e+57
          2144.48290	         3.97974e+56
          2145.28920	         9.92260e+57
          2146.09550	        -1.14607e+57
          2146.90180	        -3.43372e+57
          2147.70810	        -3.20899e+57
          2148.51440	        -8.54214e+57
          2149.32070	        -7.82438e+57
          2150.12700	        -9.72278e+57
          2150.93330	        -4.99910e+57
          2151.73960	         2.48244e+57
          2152.54590	        -4.10151e+57
          2153.35220	        -7.96756e+57
          2154.15850	        -8.48392e+57
          2154.96480	         8.33692e+54
          2155.77110	        -9.43911e+57
          2156.57740	        -1.29530e+58
          2157.38370	        -8.38866e+57
          2158.19000	        -1.05042e+58
          2158.99630	        -1.68252e+57
          2159.80260	        -1.44530e+58
          2160.60890	        -1.37308e+58
          2161.41520	        -1.14351e+58
          2162.22150	         7.24849e+56
          2163.02780	         2.71711e+57
          2163.83410	        -3.68065e+57
          2164.64040	        -5.20290e+57
          2165.44670	        -1.44024e+58
          2166.25300	        -4.45833e+57
          2167.05930	        -7.77963e+57
          2167.86560	        -1.34544e+58
          2168.67190	        -6.84889e+57
          2169.47820	        -3.80532e+57
          2170.28450	        -1.44084e+58
          2171.09080	         8.12999e+56
          2171.89710	        -3.07024e+57
          2172.70340	         3.46583e+57
          2173.50970	        -6.93068e+57
          2174.31600	        -5.20714e+57
          2175.12230	        -5.73737e+57
          2175.92860	        -5.34678e+57
          2176.73490	        -5.07044e+57
          2177.54120	        -1.30099e+57
          2178.34750	        -6.22319e+56
          2179.15380	                 nan
          2179.96010	                 nan
          2180.76640	                 nan
          2181.57270	                 nan
          2182.37900	                 nan
          2183.18530	                 nan
          2183.99160	                 nan
          2184.79790	                 nan
          2185.60420	                 nan
          2186.41050	                 nan
          2187.21680	                 nan
          2188.02310	                 nan
          2188.82940	                 nan
          2189.63570	                 nan
          2190.44200	                 nan
          2191.24830	                 nan
          2192.05460	                 nan
          2192.86090	                 nan
          2193.66720	                 nan
          2194.47350	                 nan
          2195.27980	                 nan
          2196.08610	                 nan
          2196.89240	                 nan
          2197.69870	                 nan
          2198.50500	                 nan
          2199.31130	                 nan
          2200.11760	                 nan
          2200.92390	                 nan
          2201.73020	                 nan
          2202.53650	                 nan
          2203.34280	                 nan
          2204.14910	                 nan
          2204.95540	                 nan
          2205.76170	                 nan
          2206.56800	                 nan
          2207.37430	                 nan
          2208.18060	                 nan
          2208.98690	                 nan
          2209.79320	                 nan
          2210.59950	                 nan
          2211.40580	                 nan
          2212.21210	                 nan
          2213.01840	                 nan
          2213.82470	                 nan
          2214.63100	                 nan
          2215.43730	         0.00000e+00
