#sample_371_stacked_spectrum_rest_UV-bands_median_H-alpha_noDC.txt
#median Lum: 1.69120e+42
#Rest-frame wavelength (A) | Luminosity (erg/s/A)
#
          1110.00000	         0.00000e+00
          1110.80630	         3.47428e+58
          1111.61260	        -3.52669e+58
          1112.41890	         2.77454e+58
          1113.22520	         1.06808e+59
          1114.03150	        -9.48443e+58
          1114.83780	         1.22359e+59
          1115.64410	         1.95372e+59
          1116.45040	         2.06106e+59
          1117.25670	         1.66529e+58
          1118.06300	         9.69644e+58
          1118.86930	         3.36325e+58
          1119.67560	         6.84322e+58
          1120.48190	         5.82110e+58
          1121.28820	        -1.29602e+59
          1122.09450	        -2.73447e+58
          1122.90080	         5.42881e+58
          1123.70710	         2.52697e+58
          1124.51340	         8.86835e+58
          1125.31970	        -1.04593e+58
          1126.12600	        -5.45154e+58
          1126.93230	        -6.30186e+58
          1127.73860	        -5.90344e+58
          1128.54490	        -5.26586e+57
          1129.35120	        -1.45046e+58
          1130.15750	         2.23586e+58
          1130.96380	         4.14511e+57
          1131.77010	         3.26229e+58
          1132.57640	         2.71868e+58
          1133.38270	         1.76124e+58
          1134.18900	         3.69660e+58
          1134.99530	         2.00002e+58
          1135.80160	         2.66509e+58
          1136.60790	         5.00194e+57
          1137.41420	         4.00363e+57
          1138.22050	         6.19717e+58
          1139.02680	         4.17515e+58
          1139.83310	         1.97559e+58
          1140.63940	         9.21229e+57
          1141.44570	        -2.07576e+58
          1142.25200	        -4.01462e+56
          1143.05830	         2.12661e+58
          1143.86460	         2.15099e+58
          1144.67090	         1.12751e+58
          1145.47720	         1.37300e+58
          1146.28350	         1.76618e+58
          1147.08980	         8.47816e+57
          1147.89610	         1.33345e+58
          1148.70240	         1.93854e+58
          1149.50870	         2.56380e+58
          1150.31500	         2.87399e+58
          1151.12130	         5.12379e+57
          1151.92760	         1.08737e+58
          1152.73390	         9.88112e+57
          1153.54020	         1.40022e+58
          1154.34650	         1.98909e+58
          1155.15280	         1.08478e+58
          1155.95910	         6.97358e+57
          1156.76540	         8.75641e+56
          1157.57170	         8.90161e+57
          1158.37800	         6.22439e+57
          1159.18430	         9.02996e+57
          1159.99060	         1.07208e+58
          1160.79690	         5.47118e+57
          1161.60320	         9.60440e+57
          1162.40950	         1.07209e+58
          1163.21580	         8.25969e+57
          1164.02210	         1.39766e+58
          1164.82840	         9.37585e+57
          1165.63470	         1.68221e+58
          1166.44100	         2.88619e+58
          1167.24730	         1.54187e+58
          1168.05360	         1.03598e+58
          1168.85990	         1.02083e+58
          1169.66620	         1.35960e+58
          1170.47250	         7.08795e+57
          1171.27880	         8.64663e+57
          1172.08510	         1.46404e+58
          1172.89140	         6.51499e+57
          1173.69770	         6.81132e+57
          1174.50400	         1.18595e+58
          1175.31030	         1.36243e+58
          1176.11660	         1.82031e+58
          1176.92290	         1.84842e+58
          1177.72920	         1.52936e+58
          1178.53550	         1.12848e+58
          1179.34180	         5.93380e+57
          1180.14810	         1.16654e+58
          1180.95440	         8.78036e+57
          1181.76070	         2.88284e+57
          1182.56700	         4.82579e+57
          1183.37330	         7.30705e+57
          1184.17960	         1.27827e+58
          1184.98590	         9.17357e+57
          1185.79220	         4.78985e+57
          1186.59850	         8.88594e+57
          1187.40480	         5.96534e+57
          1188.21110	         1.44751e+58
          1189.01740	         1.26491e+58
          1189.82370	         1.39234e+58
          1190.63000	         1.54032e+58
          1191.43630	         1.21722e+58
          1192.24260	         1.10394e+58
          1193.04890	         1.17688e+58
          1193.85520	         1.45077e+58
          1194.66150	         4.87317e+57
          1195.46780	         1.06337e+58
          1196.27410	         1.03595e+58
          1197.08040	         6.75902e+57
          1197.88670	         1.01829e+58
          1198.69300	         1.05329e+58
          1199.49930	         1.15817e+58
          1200.30560	         1.10539e+58
          1201.11190	         8.99163e+57
          1201.91820	         1.24786e+58
          1202.72450	         9.11991e+57
          1203.53080	         1.20236e+58
          1204.33710	         8.07009e+57
          1205.14340	         8.07808e+57
          1205.94970	         8.87639e+57
          1206.75600	         8.37292e+57
          1207.56230	         4.39870e+57
          1208.36860	         9.39372e+57
          1209.17490	         3.26176e+57
          1209.98120	         4.44504e+57
          1210.78750	         8.13909e+57
          1211.59380	         1.21919e+58
          1212.40010	         1.81995e+58
          1213.20640	         1.82431e+58
          1214.01270	         2.09931e+58
          1214.81900	         2.89102e+58
          1215.62530	         4.69287e+58
          1216.43160	         9.05252e+58
          1217.23790	         1.50413e+59
          1218.04420	         1.12458e+59
          1218.85050	         8.41683e+58
          1219.65680	         5.33567e+58
          1220.46310	         3.17298e+58
          1221.26940	         2.27061e+58
          1222.07570	         1.33669e+58
          1222.88200	         9.36650e+57
          1223.68830	         6.39447e+57
          1224.49460	         5.38009e+57
          1225.30090	         6.61907e+57
          1226.10720	         7.17637e+57
          1226.91350	         8.77832e+57
          1227.71980	         1.21559e+58
          1228.52610	         1.31483e+58
          1229.33240	         7.70873e+57
          1230.13870	         7.98983e+57
          1230.94500	         8.24369e+57
          1231.75130	         7.40421e+57
          1232.55760	         9.10560e+57
          1233.36390	         8.63939e+57
          1234.17020	         7.14292e+57
          1234.97650	         6.67988e+57
          1235.78280	         6.34283e+57
          1236.58910	         7.05211e+57
          1237.39540	         8.79114e+57
          1238.20170	         9.12676e+57
          1239.00800	         1.01665e+58
          1239.81430	         1.47281e+58
          1240.62060	         1.00777e+58
          1241.42690	         9.58263e+57
          1242.23320	         1.19437e+58
          1243.03950	         5.80146e+57
          1243.84580	         6.90551e+57
          1244.65210	         1.08761e+58
          1245.45840	         1.00423e+58
          1246.26470	         9.98815e+57
          1247.07100	         1.03201e+58
          1247.87730	         7.75321e+57
          1248.68360	         8.77877e+57
          1249.48990	         8.30936e+57
          1250.29620	         8.72318e+57
          1251.10250	         7.42507e+57
          1251.90880	         4.90611e+57
          1252.71510	         5.17623e+57
          1253.52140	         7.11232e+57
          1254.32770	         9.66796e+57
          1255.13400	         1.06478e+58
          1255.94030	         1.09164e+58
          1256.74660	         9.81808e+57
          1257.55290	         9.20920e+57
          1258.35920	         7.73195e+57
          1259.16550	         5.77149e+57
          1259.97180	         5.54435e+57
          1260.77810	         9.19454e+57
          1261.58440	         1.15343e+58
          1262.39070	         7.94021e+57
          1263.19700	         8.89081e+57
          1264.00330	         9.82192e+57
          1264.80960	         1.03871e+58
          1265.61590	         1.24797e+58
          1266.42220	         1.08488e+58
          1267.22850	         9.87961e+57
          1268.03480	         1.30209e+58
          1268.84110	         1.57761e+58
          1269.64740	         1.27751e+58
          1270.45370	         1.07249e+58
          1271.26000	         9.08703e+57
          1272.06630	         1.08604e+58
          1272.87260	         1.12027e+58
          1273.67890	         1.12088e+58
          1274.48520	         1.30176e+58
          1275.29150	         1.30502e+58
          1276.09780	         1.21178e+58
          1276.90410	         1.47712e+58
          1277.71040	         1.45747e+58
          1278.51670	         1.11837e+58
          1279.32300	         1.18767e+58
          1280.12930	         1.38078e+58
          1280.93560	         1.27355e+58
          1281.74190	         1.12630e+58
          1282.54820	         1.22399e+58
          1283.35450	         1.04959e+58
          1284.16080	         1.11717e+58
          1284.96710	         1.44740e+58
          1285.77340	         1.19654e+58
          1286.57970	         1.14222e+58
          1287.38600	         1.69864e+58
          1288.19230	         1.92785e+58
          1288.99860	         1.69180e+58
          1289.80490	         1.13001e+58
          1290.61120	         1.11160e+58
          1291.41750	         1.34017e+58
          1292.22380	         1.11867e+58
          1293.03010	         1.07635e+58
          1293.83640	         1.34963e+58
          1294.64270	         1.10874e+58
          1295.44900	         7.79320e+57
          1296.25530	         8.08127e+57
          1297.06160	         9.09404e+57
          1297.86790	         9.13440e+57
          1298.67420	         8.95310e+57
          1299.48050	         9.45055e+57
          1300.28680	         1.09167e+58
          1301.09310	         9.47790e+57
          1301.89940	         4.07940e+57
          1302.70570	         6.77411e+57
          1303.51200	         8.32156e+57
          1304.31830	         9.71475e+57
          1305.12460	         1.01148e+58
          1305.93090	         1.19226e+58
          1306.73720	         1.29393e+58
          1307.54350	         1.43676e+58
          1308.34980	         1.50029e+58
          1309.15610	         1.66606e+58
          1309.96240	         1.51927e+58
          1310.76870	         1.25444e+58
          1311.57500	         1.42056e+58
          1312.38130	         1.22056e+58
          1313.18760	         1.37943e+58
          1313.99390	         1.48337e+58
          1314.80020	         1.55511e+58
          1315.60650	         1.57597e+58
          1316.41280	         1.19407e+58
          1317.21910	         9.73251e+57
          1318.02540	         1.26320e+58
          1318.83170	         1.35955e+58
          1319.63800	         1.16405e+58
          1320.44430	         1.25134e+58
          1321.25060	         1.34367e+58
          1322.05690	         1.18533e+58
          1322.86320	         1.19672e+58
          1323.66950	         1.05749e+58
          1324.47580	         9.93392e+57
          1325.28210	         1.05267e+58
          1326.08840	         1.02753e+58
          1326.89470	         1.20458e+58
          1327.70100	         1.03023e+58
          1328.50730	         9.15966e+57
          1329.31360	         1.13994e+58
          1330.11990	         1.05303e+58
          1330.92620	         9.14981e+57
          1331.73250	         1.04795e+58
          1332.53880	         1.00648e+58
          1333.34510	         9.32964e+57
          1334.15140	         9.60620e+57
          1334.95770	         9.41321e+57
          1335.76400	         1.13526e+58
          1336.57030	         1.18046e+58
          1337.37660	         1.07782e+58
          1338.18290	         1.09990e+58
          1338.98920	         1.15824e+58
          1339.79550	         1.17251e+58
          1340.60180	         1.40268e+58
          1341.40810	         1.52166e+58
          1342.21440	         1.29248e+58
          1343.02070	         1.23582e+58
          1343.82700	         1.27205e+58
          1344.63330	         1.22205e+58
          1345.43960	         1.34506e+58
          1346.24590	         1.09620e+58
          1347.05220	         9.76556e+57
          1347.85850	         1.00790e+58
          1348.66480	         1.25519e+58
          1349.47110	         1.36117e+58
          1350.27740	         1.14423e+58
          1351.08370	         1.17024e+58
          1351.89000	         1.18208e+58
          1352.69630	         1.23521e+58
          1353.50260	         1.23079e+58
          1354.30890	         1.23273e+58
          1355.11520	         1.00342e+58
          1355.92150	         1.03674e+58
          1356.72780	         1.05603e+58
          1357.53410	         1.02972e+58
          1358.34040	         1.24643e+58
          1359.14670	         1.15476e+58
          1359.95300	         1.05926e+58
          1360.75930	         1.11436e+58
          1361.56560	         1.10688e+58
          1362.37190	         1.14211e+58
          1363.17820	         1.20122e+58
          1363.98450	         1.23921e+58
          1364.79080	         1.33468e+58
          1365.59710	         1.23072e+58
          1366.40340	         1.14006e+58
          1367.20970	         1.10000e+58
          1368.01600	         9.59479e+57
          1368.82230	         8.84890e+57
          1369.62860	         1.01036e+58
          1370.43490	         1.04859e+58
          1371.24120	         1.02964e+58
          1372.04750	         8.41446e+57
          1372.85380	         8.86794e+57
          1373.66010	         1.04963e+58
          1374.46640	         1.03966e+58
          1375.27270	         1.08485e+58
          1376.07900	         1.04963e+58
          1376.88530	         9.62442e+57
          1377.69160	         8.62794e+57
          1378.49790	         6.72885e+57
          1379.30420	         6.85886e+57
          1380.11050	         8.15130e+57
          1380.91680	         7.24302e+57
          1381.72310	         5.83516e+57
          1382.52940	         7.32127e+57
          1383.33570	         9.19180e+57
          1384.14200	         9.56294e+57
          1384.94830	         9.95190e+57
          1385.75460	         1.05877e+58
          1386.56090	         1.11995e+58
          1387.36720	         9.27548e+57
          1388.17350	         1.12052e+58
          1388.97980	         1.15153e+58
          1389.78610	         9.06732e+57
          1390.59240	         8.13753e+57
          1391.39870	         6.97430e+57
          1392.20500	         9.37264e+57
          1393.01130	         9.27660e+57
          1393.81760	         8.24544e+57
          1394.62390	         8.04416e+57
          1395.43020	         6.00192e+57
          1396.23650	         6.50620e+57
          1397.04280	         7.22397e+57
          1397.84910	         8.11796e+57
          1398.65540	         8.70385e+57
          1399.46170	         9.44371e+57
          1400.26800	         8.47877e+57
          1401.07430	         8.05259e+57
          1401.88060	         7.73651e+57
          1402.68690	         8.54862e+57
          1403.49320	         9.48284e+57
          1404.29950	         8.79765e+57
          1405.10580	         1.07861e+58
          1405.91210	         1.26797e+58
          1406.71840	         1.09041e+58
          1407.52470	         1.04127e+58
          1408.33100	         1.05171e+58
          1409.13730	         1.21242e+58
          1409.94360	         1.17876e+58
          1410.74990	         1.10893e+58
          1411.55620	         1.01809e+58
          1412.36250	         1.04631e+58
          1413.16880	         9.55667e+57
          1413.97510	         7.23401e+57
          1414.78140	         6.71729e+57
          1415.58770	         1.03282e+58
          1416.39400	         1.14272e+58
          1417.20030	         1.03259e+58
          1418.00660	         1.01064e+58
          1418.81290	         1.05544e+58
          1419.61920	         1.00583e+58
          1420.42550	         1.23586e+58
          1421.23180	         1.41115e+58
          1422.03810	         1.22153e+58
          1422.84440	         1.23113e+58
          1423.65070	         1.28564e+58
          1424.45700	         1.22398e+58
          1425.26330	         9.21603e+57
          1426.06960	         9.02850e+57
          1426.87590	         9.71624e+57
          1427.68220	         1.01489e+58
          1428.48850	         1.07163e+58
          1429.29480	         9.90464e+57
          1430.10110	         9.37749e+57
          1430.90740	         8.76133e+57
          1431.71370	         8.65070e+57
          1432.52000	         9.27244e+57
          1433.32630	         7.93866e+57
          1434.13260	         8.45051e+57
          1434.93890	         8.94413e+57
          1435.74520	         9.65895e+57
          1436.55150	         9.81769e+57
          1437.35780	         8.77799e+57
          1438.16410	         8.32301e+57
          1438.97040	         7.72812e+57
          1439.77670	         8.69209e+57
          1440.58300	         9.24834e+57
          1441.38930	         9.31794e+57
          1442.19560	         9.78560e+57
          1443.00190	         1.03739e+58
          1443.80820	         1.14247e+58
          1444.61450	         9.63834e+57
          1445.42080	         8.56326e+57
          1446.22710	         1.00461e+58
          1447.03340	         1.04265e+58
          1447.83970	         1.08495e+58
          1448.64600	         1.10085e+58
          1449.45230	         9.69976e+57
          1450.25860	         9.44594e+57
          1451.06490	         9.74440e+57
          1451.87120	         8.95417e+57
          1452.67750	         8.26052e+57
          1453.48380	         9.73049e+57
          1454.29010	         8.55881e+57
          1455.09640	         8.41987e+57
          1455.90270	         8.91775e+57
          1456.70900	         9.22596e+57
          1457.51530	         9.97789e+57
          1458.32160	         1.13072e+58
          1459.12790	         1.12966e+58
          1459.93420	         1.13409e+58
          1460.74050	         9.30991e+57
          1461.54680	         8.94573e+57
          1462.35310	         8.55587e+57
          1463.15940	         9.66346e+57
          1463.96570	         1.10855e+58
          1464.77200	         1.22293e+58
          1465.57830	         1.17531e+58
          1466.38460	         9.78371e+57
          1467.19090	         9.27103e+57
          1467.99720	         9.45847e+57
          1468.80350	         9.94791e+57
          1469.60980	         9.22239e+57
          1470.41610	         1.00036e+58
          1471.22240	         1.00614e+58
          1472.02870	         9.90923e+57
          1472.83500	         9.92595e+57
          1473.64130	         1.01622e+58
          1474.44760	         1.02290e+58
          1475.25390	         9.77683e+57
          1476.06020	         9.59305e+57
          1476.86650	         8.97214e+57
          1477.67280	         8.10401e+57
          1478.47910	         7.17889e+57
          1479.28540	         7.47245e+57
          1480.09170	         8.64412e+57
          1480.89800	         8.20328e+57
          1481.70430	         8.12234e+57
          1482.51060	         7.71960e+57
          1483.31690	         7.26247e+57
          1484.12320	         7.43245e+57
          1484.92950	         8.78905e+57
          1485.73580	         8.47328e+57
          1486.54210	         7.64167e+57
          1487.34840	         8.76842e+57
          1488.15470	         8.98423e+57
          1488.96100	         9.05200e+57
          1489.76730	         9.99983e+57
          1490.57360	         8.89618e+57
          1491.37990	         7.49034e+57
          1492.18620	         7.59194e+57
          1492.99250	         8.04909e+57
          1493.79880	         8.58939e+57
          1494.60510	         9.10859e+57
          1495.41140	         6.93274e+57
          1496.21770	         6.75538e+57
          1497.02400	         9.85957e+57
          1497.83030	         8.94713e+57
          1498.63660	         6.42769e+57
          1499.44290	         6.42485e+57
          1500.24920	         7.92267e+57
          1501.05550	         8.46188e+57
          1501.86180	         8.37061e+57
          1502.66810	         8.29589e+57
          1503.47440	         8.31672e+57
          1504.28070	         9.11828e+57
          1505.08700	         9.85871e+57
          1505.89330	         9.87196e+57
          1506.69960	         8.26163e+57
          1507.50590	         8.43276e+57
          1508.31220	         8.57963e+57
          1509.11850	         9.46209e+57
          1509.92480	         9.51885e+57
          1510.73110	         9.61817e+57
          1511.53740	         8.36655e+57
          1512.34370	         7.15223e+57
          1513.15000	         9.09954e+57
          1513.95630	         1.06131e+58
          1514.76260	         9.23320e+57
          1515.56890	         8.16944e+57
          1516.37520	         9.42590e+57
          1517.18150	         9.03461e+57
          1517.98780	         7.93280e+57
          1518.79410	         7.33468e+57
          1519.60040	         7.73145e+57
          1520.40670	         9.23547e+57
          1521.21300	         8.89591e+57
          1522.01930	         7.50252e+57
          1522.82560	         8.62774e+57
          1523.63190	         1.01898e+58
          1524.43820	         8.58935e+57
          1525.24450	         5.83558e+57
          1526.05080	         5.42945e+57
          1526.85710	         5.37869e+57
          1527.66340	         6.48182e+57
          1528.46970	         7.95605e+57
          1529.27600	         9.07147e+57
          1530.08230	         8.27175e+57
          1530.88860	         8.27312e+57
          1531.69490	         8.78927e+57
          1532.50120	         8.63903e+57
          1533.30750	         8.88150e+57
          1534.11380	         8.98267e+57
          1534.92010	         9.20458e+57
          1535.72640	         9.55217e+57
          1536.53270	         9.04832e+57
          1537.33900	         8.17192e+57
          1538.14530	         8.89591e+57
          1538.95160	         9.40346e+57
          1539.75790	         9.22518e+57
          1540.56420	         8.47674e+57
          1541.37050	         8.01441e+57
          1542.17680	         8.59117e+57
          1542.98310	         8.09268e+57
          1543.78940	         7.47980e+57
          1544.59570	         7.13367e+57
          1545.40200	         7.08918e+57
          1546.20830	         8.35725e+57
          1547.01460	         9.62059e+57
          1547.82090	         1.17412e+58
          1548.62720	         1.20235e+58
          1549.43350	         1.13871e+58
          1550.23980	         1.17179e+58
          1551.04610	         1.35192e+58
          1551.85240	         1.15662e+58
          1552.65870	         1.12320e+58
          1553.46500	         1.03256e+58
          1554.27130	         1.04421e+58
          1555.07760	         9.91020e+57
          1555.88390	         7.93448e+57
          1556.69020	         9.29166e+57
          1557.49650	         8.97283e+57
          1558.30280	         8.54844e+57
          1559.10910	         8.86980e+57
          1559.91540	         9.19664e+57
          1560.72170	         8.29705e+57
          1561.52800	         8.24443e+57
          1562.33430	         8.94393e+57
          1563.14060	         8.95889e+57
          1563.94690	         8.10231e+57
          1564.75320	         7.16902e+57
          1565.55950	         6.08015e+57
          1566.36580	         7.05157e+57
          1567.17210	         9.28413e+57
          1567.97840	         9.13418e+57
          1568.78470	         7.95809e+57
          1569.59100	         8.91556e+57
          1570.39730	         8.63718e+57
          1571.20360	         7.00839e+57
          1572.00990	         6.91331e+57
          1572.81620	         9.16025e+57
          1573.62250	         1.06858e+58
          1574.42880	         9.22612e+57
          1575.23510	         7.55647e+57
          1576.04140	         8.68015e+57
          1576.84770	         8.67043e+57
          1577.65400	         8.21409e+57
          1578.46030	         1.04999e+58
          1579.26660	         1.12772e+58
          1580.07290	         9.71069e+57
          1580.87920	         7.65787e+57
          1581.68550	         6.79603e+57
          1582.49180	         7.71237e+57
          1583.29810	         7.58521e+57
          1584.10440	         7.80563e+57
          1584.91070	         7.87812e+57
          1585.71700	         8.01451e+57
          1586.52330	         8.78154e+57
          1587.32960	         9.14975e+57
          1588.13590	         8.76699e+57
          1588.94220	         8.03234e+57
          1589.74850	         9.00581e+57
          1590.55480	         9.94652e+57
          1591.36110	         9.02072e+57
          1592.16740	         8.19288e+57
          1592.97370	         8.19552e+57
          1593.78000	         9.16571e+57
          1594.58630	         9.63185e+57
          1595.39260	         8.96000e+57
          1596.19890	         9.04167e+57
          1597.00520	         9.92841e+57
          1597.81150	         9.24289e+57
          1598.61780	         7.66625e+57
          1599.42410	         7.88354e+57
          1600.23040	         7.55698e+57
          1601.03670	         7.19665e+57
          1601.84300	         6.85278e+57
          1602.64930	         7.53300e+57
          1603.45560	         1.00629e+58
          1604.26190	         8.73725e+57
          1605.06820	         8.13992e+57
          1605.87450	         7.91102e+57
          1606.68080	         7.04392e+57
          1607.48710	         5.36060e+57
          1608.29340	         5.24278e+57
          1609.09970	         7.05624e+57
          1609.90600	         8.72718e+57
          1610.71230	         7.04806e+57
          1611.51860	         5.96921e+57
          1612.32490	         6.99033e+57
          1613.13120	         7.71084e+57
          1613.93750	         8.07891e+57
          1614.74380	         8.72896e+57
          1615.55010	         8.50633e+57
          1616.35640	         8.87941e+57
          1617.16270	         9.48711e+57
          1617.96900	         9.58733e+57
          1618.77530	         8.89585e+57
          1619.58160	         8.82192e+57
          1620.38790	         8.59638e+57
          1621.19420	         9.17275e+57
          1622.00050	         8.56397e+57
          1622.80680	         8.17025e+57
          1623.61310	         7.94752e+57
          1624.41940	         8.75664e+57
          1625.22570	         9.91459e+57
          1626.03200	         8.97800e+57
          1626.83830	         7.20348e+57
          1627.64460	         7.42479e+57
          1628.45090	         7.37497e+57
          1629.25720	         8.50020e+57
          1630.06350	         9.71591e+57
          1630.86980	         6.48558e+57
          1631.67610	         6.53216e+57
          1632.48240	         7.98680e+57
          1633.28870	         8.44850e+57
          1634.09500	         8.72246e+57
          1634.90130	         1.05162e+58
          1635.70760	         8.72294e+57
          1636.51390	         8.09611e+57
          1637.32020	         7.65108e+57
          1638.12650	         7.95205e+57
          1638.93280	         8.37613e+57
          1639.73910	         9.41266e+57
          1640.54540	         1.07716e+58
          1641.35170	         9.39350e+57
          1642.15800	         9.56335e+57
          1642.96430	         8.94980e+57
          1643.77060	         8.17961e+57
          1644.57690	         8.32910e+57
          1645.38320	         9.50725e+57
          1646.18950	         7.79249e+57
          1646.99580	         9.41179e+57
          1647.80210	         9.44154e+57
          1648.60840	         7.78900e+57
          1649.41470	         7.73805e+57
          1650.22100	         7.01193e+57
          1651.02730	         7.27050e+57
          1651.83360	         7.13219e+57
          1652.63990	         7.39713e+57
          1653.44620	         7.88194e+57
          1654.25250	         6.75220e+57
          1655.05880	         6.19162e+57
          1655.86510	         7.68357e+57
          1656.67140	         7.89209e+57
          1657.47770	         8.18314e+57
          1658.28400	         8.11216e+57
          1659.09030	         8.58254e+57
          1659.89660	         8.92269e+57
          1660.70290	         9.38706e+57
          1661.50920	         9.48768e+57
          1662.31550	         8.36201e+57
          1663.12180	         8.36759e+57
          1663.92810	         9.28584e+57
          1664.73440	         1.07128e+58
          1665.54070	         1.13636e+58
          1666.34700	         1.15073e+58
          1667.15330	         1.04378e+58
          1667.95960	         8.78189e+57
          1668.76590	         7.78598e+57
          1669.57220	         7.92813e+57
          1670.37850	         7.67677e+57
          1671.18480	         7.23517e+57
          1671.99110	         7.25647e+57
          1672.79740	         7.28150e+57
          1673.60370	         7.74295e+57
          1674.41000	         8.54240e+57
          1675.21630	         7.63661e+57
          1676.02260	         7.03649e+57
          1676.82890	         7.05581e+57
          1677.63520	         7.60043e+57
          1678.44150	         8.02420e+57
          1679.24780	         7.92520e+57
          1680.05410	         6.70012e+57
          1680.86040	         5.87786e+57
          1681.66670	         6.74512e+57
          1682.47300	         8.36829e+57
          1683.27930	         8.52286e+57
          1684.08560	         8.48616e+57
          1684.89190	         8.12582e+57
          1685.69820	         5.11833e+57
          1686.50450	         4.17154e+57
          1687.31080	         6.60230e+57
          1688.11710	         7.15225e+57
          1688.92340	         6.46931e+57
          1689.72970	         6.81240e+57
          1690.53600	         6.13077e+57
          1691.34230	         6.23469e+57
          1692.14860	         7.94412e+57
          1692.95490	         8.44209e+57
          1693.76120	         6.99463e+57
          1694.56750	         6.82922e+57
          1695.37380	         8.30184e+57
          1696.18010	         8.48449e+57
          1696.98640	         8.51292e+57
          1697.79270	         7.86648e+57
          1698.59900	         8.32354e+57
          1699.40530	         7.62641e+57
          1700.21160	         7.78675e+57
          1701.01790	         9.03248e+57
          1701.82420	         7.54313e+57
          1702.63050	         7.55694e+57
          1703.43680	         8.08718e+57
          1704.24310	         7.56933e+57
          1705.04940	         7.25760e+57
          1705.85570	         7.70922e+57
          1706.66200	         7.29105e+57
          1707.46830	         7.98979e+57
          1708.27460	         8.06014e+57
          1709.08090	         7.38387e+57
          1709.88720	         6.00210e+57
          1710.69350	         7.24342e+57
          1711.49980	         7.69476e+57
          1712.30610	         7.19469e+57
          1713.11240	         8.01207e+57
          1713.91870	         7.68234e+57
          1714.72500	         8.48520e+57
          1715.53130	         9.08451e+57
          1716.33760	         8.31162e+57
          1717.14390	         8.44160e+57
          1717.95020	         8.55063e+57
          1718.75650	         8.73532e+57
          1719.56280	         8.55104e+57
          1720.36910	         7.51491e+57
          1721.17540	         6.96297e+57
          1721.98170	         6.38525e+57
          1722.78800	         6.88489e+57
          1723.59430	         7.68500e+57
          1724.40060	         8.53012e+57
          1725.20690	         7.82135e+57
          1726.01320	         7.10425e+57
          1726.81950	         7.17525e+57
          1727.62580	         7.27012e+57
          1728.43210	         5.87473e+57
          1729.23840	         6.75549e+57
          1730.04470	         7.28049e+57
          1730.85100	         8.86982e+57
          1731.65730	         8.65636e+57
          1732.46360	         7.53151e+57
          1733.26990	         7.02509e+57
          1734.07620	         6.90546e+57
          1734.88250	         6.89349e+57
          1735.68880	         6.83727e+57
          1736.49510	         7.58101e+57
          1737.30140	         7.37111e+57
          1738.10770	         7.29679e+57
          1738.91400	         8.31850e+57
          1739.72030	         7.60254e+57
          1740.52660	         5.98313e+57
          1741.33290	         6.05077e+57
          1742.13920	         5.87550e+57
          1742.94550	         6.81493e+57
          1743.75180	         7.62021e+57
          1744.55810	         7.20251e+57
          1745.36440	         6.39300e+57
          1746.17070	         6.68197e+57
          1746.97700	         6.70521e+57
          1747.78330	         7.24847e+57
          1748.58960	         7.16674e+57
          1749.39590	         6.66210e+57
          1750.20220	         7.10258e+57
          1751.00850	         7.04194e+57
          1751.81480	         6.28840e+57
          1752.62110	         7.10990e+57
          1753.42740	         8.36674e+57
          1754.23370	         6.74053e+57
          1755.04000	         7.20389e+57
          1755.84630	         7.70032e+57
          1756.65260	         8.49208e+57
          1757.45890	         8.04126e+57
          1758.26520	         7.12820e+57
          1759.07150	         9.46234e+57
          1759.87780	         9.97550e+57
          1760.68410	         8.30670e+57
          1761.49040	         8.31073e+57
          1762.29670	         8.31662e+57
          1763.10300	         7.88385e+57
          1763.90930	         7.66178e+57
          1764.71560	         7.19976e+57
          1765.52190	         6.99423e+57
          1766.32820	         8.44069e+57
          1767.13450	         7.94850e+57
          1767.94080	         6.86503e+57
          1768.74710	         7.30195e+57
          1769.55340	         7.91168e+57
          1770.35970	         6.69018e+57
          1771.16600	         7.63462e+57
          1771.97230	         9.07628e+57
          1772.77860	         9.32652e+57
          1773.58490	         8.46449e+57
          1774.39120	         6.75346e+57
          1775.19750	         5.13228e+57
          1776.00380	         6.03793e+57
          1776.81010	         6.54175e+57
          1777.61640	         6.35919e+57
          1778.42270	         6.69132e+57
          1779.22900	         7.10605e+57
          1780.03530	         6.92816e+57
          1780.84160	         7.85983e+57
          1781.64790	         8.71639e+57
          1782.45420	         7.39474e+57
          1783.26050	         7.13046e+57
          1784.06680	         7.15617e+57
          1784.87310	         7.66345e+57
          1785.67940	         7.38530e+57
          1786.48570	         6.83511e+57
          1787.29200	         6.54054e+57
          1788.09830	         6.44578e+57
          1788.90460	         6.16685e+57
          1789.71090	         5.79639e+57
          1790.51720	         5.86550e+57
          1791.32350	         7.77148e+57
          1792.12980	         8.96035e+57
          1792.93610	         7.78356e+57
          1793.74240	         7.25019e+57
          1794.54870	         7.69299e+57
          1795.35500	         7.95956e+57
          1796.16130	         7.03963e+57
          1796.96760	         6.18132e+57
          1797.77390	         6.54091e+57
          1798.58020	         7.04746e+57
          1799.38650	         6.19635e+57
          1800.19280	         5.96140e+57
          1800.99910	         7.91507e+57
          1801.80540	         8.03934e+57
          1802.61170	         8.81985e+57
          1803.41800	         8.64052e+57
          1804.22430	         8.26039e+57
          1805.03060	         7.59062e+57
          1805.83690	         7.50199e+57
          1806.64320	         7.37635e+57
          1807.44950	         7.72642e+57
          1808.25580	         6.90016e+57
          1809.06210	         7.79755e+57
          1809.86840	         7.63430e+57
          1810.67470	         7.02997e+57
          1811.48100	         8.42394e+57
          1812.28730	         9.70005e+57
          1813.09360	         7.52544e+57
          1813.89990	         6.95243e+57
          1814.70620	         8.23503e+57
          1815.51250	         8.90562e+57
          1816.31880	         8.86663e+57
          1817.12510	         7.62924e+57
          1817.93140	         6.87989e+57
          1818.73770	         7.07371e+57
          1819.54400	         8.20582e+57
          1820.35030	         8.32892e+57
          1821.15660	         6.87074e+57
          1821.96290	         7.28507e+57
          1822.76920	         7.61033e+57
          1823.57550	         7.62537e+57
          1824.38180	         7.63891e+57
          1825.18810	         7.42893e+57
          1825.99440	         8.06201e+57
          1826.80070	         7.38489e+57
          1827.60700	         6.53599e+57
          1828.41330	         6.26634e+57
          1829.21960	         6.53102e+57
          1830.02590	         7.06736e+57
          1830.83220	         7.41467e+57
          1831.63850	         7.24961e+57
          1832.44480	         6.91758e+57
          1833.25110	         7.67729e+57
          1834.05740	         8.28125e+57
          1834.86370	         7.30361e+57
          1835.67000	         6.57354e+57
          1836.47630	         7.51736e+57
          1837.28260	         8.68224e+57
          1838.08890	         9.34063e+57
          1838.89520	         9.62578e+57
          1839.70150	         8.68275e+57
          1840.50780	         7.57750e+57
          1841.31410	         6.93779e+57
          1842.12040	         7.48456e+57
          1842.92670	         6.74093e+57
          1843.73300	         6.63824e+57
          1844.53930	         6.60404e+57
          1845.34560	         6.64170e+57
          1846.15190	         7.36417e+57
          1846.95820	         8.19156e+57
          1847.76450	         7.80703e+57
          1848.57080	         6.21175e+57
          1849.37710	         6.18908e+57
          1850.18340	         7.33301e+57
          1850.98970	         8.62899e+57
          1851.79600	         9.46175e+57
          1852.60230	         8.21990e+57
          1853.40860	         6.87681e+57
          1854.21490	         6.94622e+57
          1855.02120	         6.55284e+57
          1855.82750	         5.42797e+57
          1856.63380	         6.58598e+57
          1857.44010	         7.32561e+57
          1858.24640	         7.49302e+57
          1859.05270	         7.55662e+57
          1859.85900	         6.82579e+57
          1860.66530	         7.24301e+57
          1861.47160	         8.00204e+57
          1862.27790	         7.13366e+57
          1863.08420	         6.72884e+57
          1863.89050	         6.29832e+57
          1864.69680	         6.57462e+57
          1865.50310	         7.25362e+57
          1866.30940	         6.07704e+57
          1867.11570	         6.50564e+57
          1867.92200	         7.55108e+57
          1868.72830	         7.93073e+57
          1869.53460	         6.77027e+57
          1870.34090	         7.73145e+57
          1871.14720	         7.86969e+57
          1871.95350	         6.89983e+57
          1872.75980	         7.84080e+57
          1873.56610	         7.16227e+57
          1874.37240	         6.05091e+57
          1875.17870	         6.31391e+57
          1875.98500	         7.43524e+57
          1876.79130	         7.63695e+57
          1877.59760	         6.90323e+57
          1878.40390	         5.37267e+57
          1879.21020	         5.72897e+57
          1880.01650	         6.30566e+57
          1880.82280	         8.04277e+57
          1881.62910	         9.10348e+57
          1882.43540	         9.39287e+57
          1883.24170	         7.72268e+57
          1884.04800	         6.21794e+57
          1884.85430	         6.99648e+57
          1885.66060	         7.33213e+57
          1886.46690	         7.96714e+57
          1887.27320	         7.58225e+57
          1888.07950	         6.67629e+57
          1888.88580	         7.15555e+57
          1889.69210	         8.66090e+57
          1890.49840	         7.76757e+57
          1891.30470	         7.43728e+57
          1892.11100	         8.30657e+57
          1892.91730	         7.89217e+57
          1893.72360	         6.97767e+57
          1894.52990	         7.17922e+57
          1895.33620	         7.14045e+57
          1896.14250	         5.46063e+57
          1896.94880	         5.66353e+57
          1897.75510	         5.04289e+57
          1898.56140	         6.25303e+57
          1899.36770	         7.85834e+57
          1900.17400	         6.71144e+57
          1900.98030	         6.38050e+57
          1901.78660	         7.68274e+57
          1902.59290	         7.09928e+57
          1903.39920	         8.71995e+57
          1904.20550	         9.78328e+57
          1905.01180	         1.03265e+58
          1905.81810	         9.27863e+57
          1906.62440	         1.18326e+58
          1907.43070	         1.52492e+58
          1908.23700	         1.56178e+58
          1909.04330	         1.36942e+58
          1909.84960	         1.11910e+58
          1910.65590	         1.02441e+58
          1911.46220	         1.04036e+58
          1912.26850	         7.68845e+57
          1913.07480	         5.89415e+57
          1913.88110	         6.40430e+57
          1914.68740	         6.31725e+57
          1915.49370	         5.58019e+57
          1916.30000	         6.51346e+57
          1917.10630	         7.43451e+57
          1917.91260	         6.98630e+57
          1918.71890	         6.75961e+57
          1919.52520	         7.29688e+57
          1920.33150	         6.07000e+57
          1921.13780	         6.94098e+57
          1921.94410	         8.55940e+57
          1922.75040	         7.16901e+57
          1923.55670	         7.54869e+57
          1924.36300	         7.27108e+57
          1925.16930	         6.12195e+57
          1925.97560	         5.53136e+57
          1926.78190	         4.99238e+57
          1927.58820	         5.34674e+57
          1928.39450	         5.37351e+57
          1929.20080	         4.59323e+57
          1930.00710	         7.07342e+57
          1930.81340	         8.22355e+57
          1931.61970	         6.79973e+57
          1932.42600	         7.62122e+57
          1933.23230	         8.42223e+57
          1934.03860	         7.27713e+57
          1934.84490	         4.88764e+57
          1935.65120	         7.22123e+57
          1936.45750	         9.18926e+57
          1937.26380	         7.70719e+57
          1938.07010	         6.43022e+57
          1938.87640	         6.62878e+57
          1939.68270	         6.73950e+57
          1940.48900	         7.23819e+57
          1941.29530	         8.15804e+57
          1942.10160	         7.54616e+57
          1942.90790	         5.91284e+57
          1943.71420	         6.02358e+57
          1944.52050	         5.03763e+57
          1945.32680	         5.55920e+57
          1946.13310	         7.37144e+57
          1946.93940	         7.83929e+57
          1947.74570	         7.55638e+57
          1948.55200	         6.37119e+57
          1949.35830	         6.43950e+57
          1950.16460	         5.89578e+57
          1950.97090	         6.02588e+57
          1951.77720	         7.51334e+57
          1952.58350	         7.98306e+57
          1953.38980	         5.75200e+57
          1954.19610	         4.50267e+57
          1955.00240	         5.07628e+57
          1955.80870	         6.28035e+57
          1956.61500	         6.70605e+57
          1957.42130	         6.61281e+57
          1958.22760	         7.54527e+57
          1959.03390	         7.54767e+57
          1959.84020	         7.29550e+57
          1960.64650	         7.22179e+57
          1961.45280	         6.34590e+57
          1962.25910	         5.54271e+57
          1963.06540	         5.45793e+57
          1963.87170	         5.67967e+57
          1964.67800	         6.77559e+57
          1965.48430	         5.49028e+57
          1966.29060	         5.49965e+57
          1967.09690	         8.44517e+57
          1967.90320	         7.48842e+57
          1968.70950	         6.84397e+57
          1969.51580	         6.81678e+57
          1970.32210	         7.20449e+57
          1971.12840	         7.04736e+57
          1971.93470	         5.85476e+57
          1972.74100	         6.42700e+57
          1973.54730	         6.94865e+57
          1974.35360	         7.15931e+57
          1975.15990	         8.00133e+57
          1975.96620	         7.28339e+57
          1976.77250	         7.95287e+57
          1977.57880	         7.67937e+57
          1978.38510	         6.56419e+57
          1979.19140	         6.82578e+57
          1979.99770	         7.38018e+57
          1980.80400	         7.74962e+57
          1981.61030	         7.19135e+57
          1982.41660	         5.54438e+57
          1983.22290	         5.68457e+57
          1984.02920	         5.98790e+57
          1984.83550	         6.01735e+57
          1985.64180	         7.07147e+57
          1986.44810	         7.12595e+57
          1987.25440	         5.12544e+57
          1988.06070	         4.87667e+57
          1988.86700	         6.46283e+57
          1989.67330	         6.67001e+57
          1990.47960	         6.34966e+57
          1991.28590	         6.85463e+57
          1992.09220	         6.17445e+57
          1992.89850	         5.62424e+57
          1993.70480	         5.45787e+57
          1994.51110	         3.76621e+57
          1995.31740	         4.24053e+57
          1996.12370	         4.20818e+57
          1996.93000	         5.43634e+57
          1997.73630	         7.63002e+57
          1998.54260	         8.81960e+57
          1999.34890	         6.78206e+57
          2000.15520	         5.24301e+57
          2000.96150	         7.61186e+57
          2001.76780	         6.90114e+57
          2002.57410	         4.90682e+57
          2003.38040	         5.60551e+57
          2004.18670	         6.13360e+57
          2004.99300	         7.02341e+57
          2005.79930	         7.32660e+57
          2006.60560	         6.67434e+57
          2007.41190	         6.18517e+57
          2008.21820	         6.44957e+57
          2009.02450	         7.09935e+57
          2009.83080	         6.28967e+57
          2010.63710	         6.22403e+57
          2011.44340	         7.38393e+57
          2012.24970	         8.40901e+57
          2013.05600	         7.16209e+57
          2013.86230	         5.04263e+57
          2014.66860	         5.93870e+57
          2015.47490	         6.39727e+57
          2016.28120	         6.09373e+57
          2017.08750	         6.48878e+57
          2017.89380	         6.78297e+57
          2018.70010	         7.14955e+57
          2019.50640	         5.87589e+57
          2020.31270	         6.22403e+57
          2021.11900	         6.76448e+57
          2021.92530	         8.06503e+57
          2022.73160	         7.61670e+57
          2023.53790	         7.84987e+57
          2024.34420	         7.19246e+57
          2025.15050	         6.15141e+57
          2025.95680	         4.91999e+57
          2026.76310	         5.66992e+57
          2027.56940	         6.34188e+57
          2028.37570	         7.72836e+57
          2029.18200	         6.23499e+57
          2029.98830	         6.54170e+57
          2030.79460	         7.33642e+57
          2031.60090	         6.20395e+57
          2032.40720	         6.00833e+57
          2033.21350	         6.14096e+57
          2034.01980	         5.83677e+57
          2034.82610	         5.14065e+57
          2035.63240	         4.04930e+57
          2036.43870	         5.56334e+57
          2037.24500	         5.56057e+57
          2038.05130	         7.60148e+57
          2038.85760	         6.25707e+57
          2039.66390	         5.43526e+57
          2040.47020	         5.61658e+57
          2041.27650	         4.43768e+57
          2042.08280	         4.36877e+57
          2042.88910	         5.96896e+57
          2043.69540	         7.24348e+57
          2044.50170	         6.16576e+57
          2045.30800	         5.74045e+57
          2046.11430	         5.71780e+57
          2046.92060	         6.38168e+57
          2047.72690	         6.97240e+57
          2048.53320	         5.77894e+57
          2049.33950	         6.20421e+57
          2050.14580	         6.86754e+57
          2050.95210	         7.58896e+57
          2051.75840	         8.17464e+57
          2052.56470	         6.09437e+57
          2053.37100	         4.55026e+57
          2054.17730	         4.85624e+57
          2054.98360	         5.34596e+57
          2055.78990	         3.30518e+57
          2056.59620	         3.28519e+57
          2057.40250	         6.04073e+57
          2058.20880	         7.39770e+57
          2059.01510	         7.64856e+57
          2059.82140	         7.47259e+57
          2060.62770	         9.47240e+57
          2061.43400	         1.47744e+58
          2062.24030	         9.14773e+57
          2063.04660	         4.93474e+57
          2063.85290	         7.92619e+56
          2064.65920	        -6.30013e+57
          2065.46550	        -1.02399e+58
          2066.27180	        -8.29782e+57
          2067.07810	         4.01643e+57
          2067.88440	         5.06066e+57
          2068.69070	         7.12707e+57
          2069.49700	         6.93872e+57
          2070.30330	         4.51741e+57
          2071.10960	         6.03706e+57
          2071.91590	         6.29492e+57
          2072.72220	         4.16691e+57
          2073.52850	         4.88743e+57
          2074.33480	         4.46643e+57
          2075.14110	         5.10237e+57
          2075.94740	         4.63036e+57
          2076.75370	         5.06324e+57
          2077.56000	         4.50788e+57
          2078.36630	         5.22695e+57
          2079.17260	         5.90627e+57
          2079.97890	         6.34413e+57
          2080.78520	         5.07590e+57
          2081.59150	         5.06506e+57
          2082.39780	         4.56037e+57
          2083.20410	         2.47628e+57
          2084.01040	         3.01444e+57
          2084.81670	         4.32119e+57
          2085.62300	         3.59954e+57
          2086.42930	         2.69085e+57
          2087.23560	         3.75005e+57
          2088.04190	         4.25914e+57
          2088.84820	         4.82001e+57
          2089.65450	         2.55644e+57
          2090.46080	         1.17924e+57
          2091.26710	         2.73694e+57
          2092.07340	         3.41716e+57
          2092.87970	         3.32375e+57
          2093.68600	        -2.92251e+56
          2094.49230	         3.20039e+57
          2095.29860	         4.24940e+57
          2096.10490	         3.97302e+57
          2096.91120	         1.16626e+57
          2097.71750	        -7.08905e+56
          2098.52380	         9.31380e+56
          2099.33010	         1.46588e+57
          2100.13640	         2.21019e+57
          2100.94270	         2.80310e+57
          2101.74900	         3.68667e+57
          2102.55530	         1.97397e+57
          2103.36160	         8.32306e+56
          2104.16790	         8.30515e+56
          2104.97420	         8.24029e+56
          2105.78050	         1.87702e+57
          2106.58680	         1.40774e+57
          2107.39310	        -2.43082e+57
          2108.19940	         1.85795e+57
          2109.00570	         7.96339e+56
          2109.81200	        -2.09381e+57
          2110.61830	         3.20747e+56
          2111.42460	         2.46684e+57
          2112.23090	         1.07216e+57
          2113.03720	        -2.00432e+55
          2113.84350	        -1.29971e+57
          2114.64980	         1.78520e+57
          2115.45610	        -4.30367e+57
          2116.26240	         8.92717e+56
          2117.06870	         2.74697e+57
          2117.87500	         4.69761e+56
          2118.68130	        -3.29278e+56
          2119.48760	         4.57080e+57
          2120.29390	        -6.53990e+56
          2121.10020	        -5.24994e+57
          2121.90650	        -4.63881e+56
          2122.71280	         3.87459e+57
          2123.51910	         3.28999e+57
          2124.32540	         1.21881e+57
          2125.13170	        -2.97258e+57
          2125.93800	        -4.31205e+56
          2126.74430	        -6.28678e+56
          2127.55060	        -6.45197e+57
          2128.35690	        -3.34020e+57
          2129.16320	         1.65925e+56
          2129.96950	         5.11992e+56
          2130.77580	         7.53683e+56
          2131.58210	         8.70925e+57
          2132.38840	         1.53985e+57
          2133.19470	         1.85626e+57
          2134.00100	         2.02371e+57
          2134.80730	        -3.59756e+57
          2135.61360	         6.13475e+57
          2136.41990	         9.39151e+56
          2137.22620	         7.66421e+57
          2138.03250	         1.02501e+57
          2138.83880	         4.67044e+57
          2139.64510	        -1.40369e+57
          2140.45140	        -4.66667e+57
          2141.25770	        -1.24258e+58
          2142.06400	        -1.06333e+58
          2142.87030	         4.78935e+56
          2143.67660	         8.30602e+57
          2144.48290	         1.01689e+58
          2145.28920	         1.62409e+58
          2146.09550	        -8.79869e+57
          2146.90180	        -2.22700e+58
          2147.70810	        -1.00691e+58
          2148.51440	        -5.43848e+57
          2149.32070	        -1.19249e+58
          2150.12700	        -1.00005e+58
          2150.93330	        -4.01825e+57
          2151.73960	        -6.88402e+57
          2152.54590	        -4.57588e+57
          2153.35220	         1.02128e+57
          2154.15850	        -5.60483e+57
          2154.96480	         3.23732e+57
          2155.77110	        -3.13832e+57
          2156.57740	        -1.01032e+58
          2157.38370	        -8.71757e+57
          2158.19000	         1.68122e+57
          2158.99630	        -4.92742e+57
          2159.80260	        -6.35090e+57
          2160.60890	         5.92762e+57
          2161.41520	        -4.07990e+56
          2162.22150	        -6.80499e+57
          2163.02780	        -2.89984e+57
          2163.83410	        -6.59980e+57
          2164.64040	        -6.35615e+57
          2165.44670	        -2.69859e+57
          2166.25300	        -2.40778e+57
          2167.05930	        -1.22005e+57
          2167.86560	        -9.99020e+57
          2168.67190	        -1.04180e+58
          2169.47820	        -8.36463e+57
          2170.28450	        -7.60986e+57
          2171.09080	        -2.29053e+57
          2171.89710	         3.73864e+57
          2172.70340	        -1.38438e+58
          2173.50970	        -5.21486e+57
          2174.31600	        -4.67944e+57
          2175.12230	         1.45262e+57
          2175.92860	        -3.00590e+57
          2176.73490	        -3.88274e+57
          2177.54120	        -1.10341e+58
          2178.34750	        -4.13655e+57
          2179.15380	                 nan
          2179.96010	                 nan
          2180.76640	                 nan
          2181.57270	                 nan
          2182.37900	                 nan
          2183.18530	                 nan
          2183.99160	                 nan
          2184.79790	                 nan
          2185.60420	                 nan
          2186.41050	                 nan
          2187.21680	                 nan
          2188.02310	                 nan
          2188.82940	                 nan
          2189.63570	                 nan
          2190.44200	                 nan
          2191.24830	                 nan
          2192.05460	                 nan
          2192.86090	                 nan
          2193.66720	                 nan
          2194.47350	                 nan
          2195.27980	                 nan
          2196.08610	                 nan
          2196.89240	                 nan
          2197.69870	                 nan
          2198.50500	                 nan
          2199.31130	                 nan
          2200.11760	                 nan
          2200.92390	                 nan
          2201.73020	                 nan
          2202.53650	                 nan
          2203.34280	                 nan
          2204.14910	                 nan
          2204.95540	                 nan
          2205.76170	                 nan
          2206.56800	                 nan
          2207.37430	                 nan
          2208.18060	                 nan
          2208.98690	                 nan
          2209.79320	                 nan
          2210.59950	                 nan
          2211.40580	                 nan
          2212.21210	                 nan
          2213.01840	                 nan
          2213.82470	                 nan
          2214.63100	                 nan
          2215.43730	         0.00000e+00
