#sample_344_stacked_spectrum_rest_UV-bands_median_H-alpha_noDC.txt
#median Lum: 1.66646e+42
#Rest-frame wavelength (A) | Luminosity (erg/s/A)
#
          1110.00000	         0.00000e+00
          1110.80630	         1.55226e+59
          1111.61260	        -1.26984e+59
          1112.41890	        -8.08502e+58
          1113.22520	        -4.39661e+58
          1114.03150	         5.89141e+58
          1114.83780	         1.89637e+59
          1115.64410	         8.42866e+58
          1116.45040	         2.56779e+59
          1117.25670	        -7.34504e+57
          1118.06300	         4.55285e+58
          1118.86930	        -8.37929e+58
          1119.67560	         1.01019e+59
          1120.48190	        -7.07380e+57
          1121.28820	        -1.33421e+59
          1122.09450	        -7.06583e+58
          1122.90080	         3.87506e+58
          1123.70710	         1.03430e+59
          1124.51340	         9.08720e+58
          1125.31970	        -2.40101e+58
          1126.12600	        -3.55650e+58
          1126.93230	        -4.91308e+58
          1127.73860	        -7.08610e+58
          1128.54490	         1.80893e+58
          1129.35120	         3.78523e+58
          1130.15750	         4.38317e+56
          1130.96380	        -3.61004e+58
          1131.77010	         2.16452e+58
          1132.57640	         4.69623e+58
          1133.38270	         4.36195e+58
          1134.18900	         1.42517e+58
          1134.99530	        -2.50500e+58
          1135.80160	         1.20584e+58
          1136.60790	         9.15895e+56
          1137.41420	        -5.14651e+57
          1138.22050	         7.65154e+57
          1139.02680	         3.93081e+55
          1139.83310	         2.19320e+58
          1140.63940	         4.05306e+58
          1141.44570	         6.84539e+57
          1142.25200	         3.60339e+57
          1143.05830	         1.25883e+58
          1143.86460	         2.00718e+58
          1144.67090	         3.72580e+58
          1145.47720	         1.44881e+58
          1146.28350	         6.82623e+57
          1147.08980	         2.30964e+58
          1147.89610	         2.00624e+58
          1148.70240	         1.56511e+58
          1149.50870	         1.94222e+58
          1150.31500	         1.46804e+58
          1151.12130	         9.74241e+57
          1151.92760	         5.37474e+57
          1152.73390	         1.28188e+58
          1153.54020	         9.31714e+57
          1154.34650	         2.68881e+58
          1155.15280	         1.93219e+58
          1155.95910	         4.72880e+56
          1156.76540	         3.91048e+57
          1157.57170	        -6.18275e+57
          1158.37800	         9.43498e+57
          1159.18430	         3.69479e+57
          1159.99060	         3.24977e+57
          1160.79690	         6.09979e+57
          1161.60320	         1.28672e+58
          1162.40950	         1.83853e+58
          1163.21580	         1.33238e+58
          1164.02210	         8.23412e+57
          1164.82840	         1.10115e+58
          1165.63470	         2.07850e+58
          1166.44100	         2.71475e+58
          1167.24730	         1.11580e+58
          1168.05360	         8.74720e+57
          1168.85990	         5.47223e+57
          1169.66620	         5.68573e+57
          1170.47250	         1.54504e+58
          1171.27880	         1.14814e+58
          1172.08510	         6.30256e+57
          1172.89140	         3.61501e+57
          1173.69770	         6.70486e+57
          1174.50400	         1.23608e+58
          1175.31030	         1.52988e+58
          1176.11660	         2.17217e+58
          1176.92290	         1.72473e+58
          1177.72920	         1.30728e+58
          1178.53550	         6.97868e+57
          1179.34180	         2.06520e+57
          1180.14810	         5.02225e+57
          1180.95440	         1.33261e+58
          1181.76070	         1.37726e+58
          1182.56700	         1.23201e+58
          1183.37330	         7.62468e+57
          1184.17960	         8.97407e+57
          1184.98590	         1.21420e+58
          1185.79220	         9.95320e+57
          1186.59850	         1.04929e+58
          1187.40480	         7.60143e+57
          1188.21110	         1.44024e+58
          1189.01740	         1.11647e+58
          1189.82370	         1.36728e+58
          1190.63000	         1.31368e+58
          1191.43630	         1.27444e+58
          1192.24260	         9.20845e+57
          1193.04890	         7.75561e+57
          1193.85520	         4.44462e+57
          1194.66150	         3.27492e+57
          1195.46780	         7.72069e+57
          1196.27410	         1.03199e+58
          1197.08040	         6.66007e+57
          1197.88670	         1.12855e+58
          1198.69300	         1.62720e+58
          1199.49930	         1.55462e+58
          1200.30560	         8.08497e+57
          1201.11190	         7.41623e+57
          1201.91820	         7.85683e+57
          1202.72450	         9.61354e+57
          1203.53080	         1.67370e+58
          1204.33710	         6.31690e+57
          1205.14340	         6.07108e+57
          1205.94970	         6.76046e+57
          1206.75600	         5.89870e+57
          1207.56230	         5.26595e+57
          1208.36860	         6.18485e+57
          1209.17490	         7.38860e+56
          1209.98120	         4.32521e+57
          1210.78750	         8.43785e+57
          1211.59380	         1.36929e+58
          1212.40010	         1.87901e+58
          1213.20640	         1.86871e+58
          1214.01270	         2.02528e+58
          1214.81900	         2.42539e+58
          1215.62530	         4.57774e+58
          1216.43160	         9.24614e+58
          1217.23790	         1.50172e+59
          1218.04420	         1.19922e+59
          1218.85050	         8.57751e+58
          1219.65680	         5.46557e+58
          1220.46310	         3.43763e+58
          1221.26940	         2.37015e+58
          1222.07570	         1.58850e+58
          1222.88200	         1.31432e+58
          1223.68830	         9.44153e+57
          1224.49460	         6.90187e+57
          1225.30090	         6.59206e+57
          1226.10720	         6.39534e+57
          1226.91350	         6.18500e+57
          1227.71980	         8.00178e+57
          1228.52610	         1.29860e+58
          1229.33240	         8.88000e+57
          1230.13870	         7.42231e+57
          1230.94500	         5.68112e+57
          1231.75130	         7.55965e+57
          1232.55760	         9.36969e+57
          1233.36390	         7.55481e+57
          1234.17020	         7.66504e+57
          1234.97650	         1.09855e+58
          1235.78280	         9.22349e+57
          1236.58910	         6.16869e+57
          1237.39540	         8.87308e+57
          1238.20170	         1.27316e+58
          1239.00800	         1.47752e+58
          1239.81430	         1.43551e+58
          1240.62060	         1.06812e+58
          1241.42690	         1.08835e+58
          1242.23320	         1.29120e+58
          1243.03950	         1.05583e+58
          1243.84580	         8.36706e+57
          1244.65210	         9.22878e+57
          1245.45840	         9.29915e+57
          1246.26470	         8.55132e+57
          1247.07100	         7.23769e+57
          1247.87730	         5.14788e+57
          1248.68360	         5.36279e+57
          1249.48990	         8.47946e+57
          1250.29620	         8.18446e+57
          1251.10250	         5.99265e+57
          1251.90880	         5.73147e+57
          1252.71510	         3.59319e+57
          1253.52140	         5.12144e+57
          1254.32770	         8.74519e+57
          1255.13400	         1.37178e+58
          1255.94030	         1.10744e+58
          1256.74660	         8.89359e+57
          1257.55290	         9.68856e+57
          1258.35920	         7.26182e+57
          1259.16550	         5.46107e+57
          1259.97180	         6.33212e+57
          1260.77810	         8.10784e+57
          1261.58440	         1.03544e+58
          1262.39070	         8.46781e+57
          1263.19700	         6.98682e+57
          1264.00330	         1.00040e+58
          1264.80960	         1.25024e+58
          1265.61590	         1.29278e+58
          1266.42220	         1.38140e+58
          1267.22850	         1.20815e+58
          1268.03480	         1.34645e+58
          1268.84110	         1.54536e+58
          1269.64740	         1.42593e+58
          1270.45370	         1.27362e+58
          1271.26000	         1.12904e+58
          1272.06630	         1.25699e+58
          1272.87260	         1.35075e+58
          1273.67890	         1.37077e+58
          1274.48520	         1.22705e+58
          1275.29150	         1.26260e+58
          1276.09780	         1.16203e+58
          1276.90410	         1.42476e+58
          1277.71040	         1.37861e+58
          1278.51670	         1.27306e+58
          1279.32300	         1.30849e+58
          1280.12930	         1.20829e+58
          1280.93560	         1.09452e+58
          1281.74190	         1.30068e+58
          1282.54820	         1.23956e+58
          1283.35450	         9.99671e+57
          1284.16080	         1.27384e+58
          1284.96710	         1.50613e+58
          1285.77340	         1.33206e+58
          1286.57970	         1.26502e+58
          1287.38600	         1.61570e+58
          1288.19230	         1.83500e+58
          1288.99860	         1.60245e+58
          1289.80490	         1.11418e+58
          1290.61120	         1.27974e+58
          1291.41750	         1.30441e+58
          1292.22380	         1.10626e+58
          1293.03010	         1.10390e+58
          1293.83640	         1.01249e+58
          1294.64270	         9.60798e+57
          1295.44900	         9.15799e+57
          1296.25530	         9.87954e+57
          1297.06160	         9.45127e+57
          1297.86790	         9.07118e+57
          1298.67420	         7.79344e+57
          1299.48050	         6.20916e+57
          1300.28680	         8.21247e+57
          1301.09310	         7.39197e+57
          1301.89940	         3.09910e+57
          1302.70570	         4.62355e+57
          1303.51200	         8.04487e+57
          1304.31830	         9.13481e+57
          1305.12460	         1.14648e+58
          1305.93090	         1.24352e+58
          1306.73720	         1.38817e+58
          1307.54350	         1.54955e+58
          1308.34980	         1.57890e+58
          1309.15610	         1.41412e+58
          1309.96240	         1.43146e+58
          1310.76870	         1.41460e+58
          1311.57500	         1.10916e+58
          1312.38130	         1.13833e+58
          1313.18760	         1.41586e+58
          1313.99390	         1.59300e+58
          1314.80020	         1.64936e+58
          1315.60650	         1.65675e+58
          1316.41280	         1.48683e+58
          1317.21910	         1.24499e+58
          1318.02540	         1.23568e+58
          1318.83170	         1.24558e+58
          1319.63800	         1.11536e+58
          1320.44430	         1.06739e+58
          1321.25060	         1.09336e+58
          1322.05690	         1.17900e+58
          1322.86320	         1.18537e+58
          1323.66950	         1.02307e+58
          1324.47580	         9.66581e+57
          1325.28210	         9.29316e+57
          1326.08840	         1.21618e+58
          1326.89470	         1.34429e+58
          1327.70100	         1.07151e+58
          1328.50730	         9.41223e+57
          1329.31360	         1.12017e+58
          1330.11990	         1.09875e+58
          1330.92620	         1.01296e+58
          1331.73250	         1.23197e+58
          1332.53880	         1.07445e+58
          1333.34510	         7.00470e+57
          1334.15140	         7.12176e+57
          1334.95770	         8.60201e+57
          1335.76400	         1.01636e+58
          1336.57030	         1.06922e+58
          1337.37660	         1.02271e+58
          1338.18290	         1.04339e+58
          1338.98920	         1.19620e+58
          1339.79550	         1.07895e+58
          1340.60180	         1.11907e+58
          1341.40810	         1.18277e+58
          1342.21440	         1.04186e+58
          1343.02070	         1.06949e+58
          1343.82700	         1.13790e+58
          1344.63330	         1.17696e+58
          1345.43960	         1.33128e+58
          1346.24590	         1.22892e+58
          1347.05220	         1.16363e+58
          1347.85850	         9.18244e+57
          1348.66480	         1.15400e+58
          1349.47110	         1.33433e+58
          1350.27740	         1.18384e+58
          1351.08370	         1.11438e+58
          1351.89000	         1.13337e+58
          1352.69630	         1.15746e+58
          1353.50260	         1.16042e+58
          1354.30890	         1.12373e+58
          1355.11520	         1.02529e+58
          1355.92150	         9.40184e+57
          1356.72780	         9.42283e+57
          1357.53410	         9.10782e+57
          1358.34040	         1.10746e+58
          1359.14670	         1.17551e+58
          1359.95300	         1.17610e+58
          1360.75930	         1.13640e+58
          1361.56560	         1.00308e+58
          1362.37190	         1.18371e+58
          1363.17820	         1.20817e+58
          1363.98450	         1.20238e+58
          1364.79080	         1.25271e+58
          1365.59710	         1.21864e+58
          1366.40340	         1.20059e+58
          1367.20970	         1.00450e+58
          1368.01600	         9.19014e+57
          1368.82230	         8.72844e+57
          1369.62860	         8.90884e+57
          1370.43490	         9.61006e+57
          1371.24120	         9.36604e+57
          1372.04750	         7.96700e+57
          1372.85380	         1.07233e+58
          1373.66010	         1.22890e+58
          1374.46640	         1.11405e+58
          1375.27270	         1.10113e+58
          1376.07900	         9.98190e+57
          1376.88530	         8.96122e+57
          1377.69160	         1.00280e+58
          1378.49790	         8.29289e+57
          1379.30420	         8.35255e+57
          1380.11050	         8.59389e+57
          1380.91680	         7.38535e+57
          1381.72310	         8.61778e+57
          1382.52940	         8.82331e+57
          1383.33570	         7.78470e+57
          1384.14200	         9.41512e+57
          1384.94830	         1.14200e+58
          1385.75460	         1.22530e+58
          1386.56090	         1.35300e+58
          1387.36720	         1.17010e+58
          1388.17350	         1.16995e+58
          1388.97980	         1.13180e+58
          1389.78610	         8.51193e+57
          1390.59240	         7.44912e+57
          1391.39870	         7.14495e+57
          1392.20500	         8.04942e+57
          1393.01130	         8.11378e+57
          1393.81760	         7.98322e+57
          1394.62390	         7.51587e+57
          1395.43020	         6.42769e+57
          1396.23650	         6.54904e+57
          1397.04280	         6.97971e+57
          1397.84910	         8.22506e+57
          1398.65540	         8.78807e+57
          1399.46170	         1.04571e+58
          1400.26800	         9.91978e+57
          1401.07430	         7.80663e+57
          1401.88060	         8.66583e+57
          1402.68690	         1.09205e+58
          1403.49320	         1.02478e+58
          1404.29950	         9.39754e+57
          1405.10580	         1.01429e+58
          1405.91210	         1.12445e+58
          1406.71840	         1.15160e+58
          1407.52470	         1.07494e+58
          1408.33100	         1.07488e+58
          1409.13730	         1.17745e+58
          1409.94360	         1.19945e+58
          1410.74990	         1.15519e+58
          1411.55620	         9.88115e+57
          1412.36250	         9.54586e+57
          1413.16880	         8.77953e+57
          1413.97510	         7.54221e+57
          1414.78140	         8.18810e+57
          1415.58770	         1.03735e+58
          1416.39400	         1.06869e+58
          1417.20030	         1.11818e+58
          1418.00660	         1.02120e+58
          1418.81290	         9.40467e+57
          1419.61920	         1.06152e+58
          1420.42550	         1.09550e+58
          1421.23180	         1.18358e+58
          1422.03810	         1.19998e+58
          1422.84440	         1.00722e+58
          1423.65070	         1.07033e+58
          1424.45700	         1.16661e+58
          1425.26330	         9.20898e+57
          1426.06960	         9.02676e+57
          1426.87590	         1.00337e+58
          1427.68220	         1.01125e+58
          1428.48850	         1.18067e+58
          1429.29480	         1.15487e+58
          1430.10110	         1.05001e+58
          1430.90740	         9.25742e+57
          1431.71370	         8.76418e+57
          1432.52000	         9.57618e+57
          1433.32630	         8.31931e+57
          1434.13260	         8.99968e+57
          1434.93890	         8.75858e+57
          1435.74520	         8.45067e+57
          1436.55150	         9.33512e+57
          1437.35780	         9.32364e+57
          1438.16410	         8.85341e+57
          1438.97040	         8.74291e+57
          1439.77670	         9.34291e+57
          1440.58300	         9.72045e+57
          1441.38930	         9.05138e+57
          1442.19560	         8.44593e+57
          1443.00190	         8.64467e+57
          1443.80820	         1.00765e+58
          1444.61450	         1.02249e+58
          1445.42080	         8.79136e+57
          1446.22710	         1.07559e+58
          1447.03340	         1.07367e+58
          1447.83970	         9.91123e+57
          1448.64600	         1.08314e+58
          1449.45230	         1.04729e+58
          1450.25860	         9.59259e+57
          1451.06490	         8.67464e+57
          1451.87120	         7.87922e+57
          1452.67750	         7.42798e+57
          1453.48380	         8.41443e+57
          1454.29010	         7.74337e+57
          1455.09640	         8.22453e+57
          1455.90270	         9.50075e+57
          1456.70900	         9.11386e+57
          1457.51530	         9.81220e+57
          1458.32160	         1.14644e+58
          1459.12790	         1.09084e+58
          1459.93420	         1.02258e+58
          1460.74050	         8.45759e+57
          1461.54680	         7.94399e+57
          1462.35310	         7.08689e+57
          1463.15940	         8.58218e+57
          1463.96570	         9.72725e+57
          1464.77200	         1.12111e+58
          1465.57830	         1.10283e+58
          1466.38460	         1.00961e+58
          1467.19090	         8.11076e+57
          1467.99720	         7.29300e+57
          1468.80350	         8.29441e+57
          1469.60980	         9.56439e+57
          1470.41610	         1.01360e+58
          1471.22240	         1.02624e+58
          1472.02870	         1.05790e+58
          1472.83500	         1.03254e+58
          1473.64130	         9.17467e+57
          1474.44760	         9.98921e+57
          1475.25390	         9.99086e+57
          1476.06020	         8.69740e+57
          1476.86650	         7.75397e+57
          1477.67280	         6.84899e+57
          1478.47910	         6.10116e+57
          1479.28540	         6.82103e+57
          1480.09170	         8.25495e+57
          1480.89800	         8.99786e+57
          1481.70430	         8.71784e+57
          1482.51060	         7.80317e+57
          1483.31690	         6.81485e+57
          1484.12320	         8.05624e+57
          1484.92950	         7.76389e+57
          1485.73580	         8.16965e+57
          1486.54210	         7.49157e+57
          1487.34840	         8.59411e+57
          1488.15470	         8.97875e+57
          1488.96100	         8.88441e+57
          1489.76730	         9.93519e+57
          1490.57360	         9.07771e+57
          1491.37990	         7.65426e+57
          1492.18620	         7.83009e+57
          1492.99250	         7.97741e+57
          1493.79880	         8.70053e+57
          1494.60510	         8.86882e+57
          1495.41140	         6.69760e+57
          1496.21770	         8.71060e+57
          1497.02400	         1.09854e+58
          1497.83030	         9.21916e+57
          1498.63660	         7.78747e+57
          1499.44290	         7.13116e+57
          1500.24920	         7.77890e+57
          1501.05550	         7.35314e+57
          1501.86180	         7.98062e+57
          1502.66810	         9.32504e+57
          1503.47440	         9.20250e+57
          1504.28070	         9.74791e+57
          1505.08700	         1.03167e+58
          1505.89330	         1.00022e+58
          1506.69960	         9.20218e+57
          1507.50590	         8.96171e+57
          1508.31220	         8.48302e+57
          1509.11850	         8.74375e+57
          1509.92480	         9.20171e+57
          1510.73110	         9.11283e+57
          1511.53740	         7.83485e+57
          1512.34370	         7.20038e+57
          1513.15000	         8.50324e+57
          1513.95630	         9.78628e+57
          1514.76260	         9.01884e+57
          1515.56890	         8.68660e+57
          1516.37520	         9.26199e+57
          1517.18150	         9.25473e+57
          1517.98780	         8.12286e+57
          1518.79410	         6.70735e+57
          1519.60040	         7.26269e+57
          1520.40670	         8.75534e+57
          1521.21300	         9.61047e+57
          1522.01930	         8.26576e+57
          1522.82560	         8.37047e+57
          1523.63190	         1.02127e+58
          1524.43820	         9.47691e+57
          1525.24450	         6.35602e+57
          1526.05080	         6.38665e+57
          1526.85710	         6.67571e+57
          1527.66340	         7.04309e+57
          1528.46970	         9.20312e+57
          1529.27600	         9.08754e+57
          1530.08230	         8.66903e+57
          1530.88860	         8.57997e+57
          1531.69490	         9.25502e+57
          1532.50120	         9.77069e+57
          1533.30750	         9.68475e+57
          1534.11380	         9.90867e+57
          1534.92010	         8.88167e+57
          1535.72640	         8.72954e+57
          1536.53270	         9.19369e+57
          1537.33900	         7.95641e+57
          1538.14530	         8.89926e+57
          1538.95160	         9.67311e+57
          1539.75790	         8.80004e+57
          1540.56420	         9.42974e+57
          1541.37050	         7.74120e+57
          1542.17680	         6.59045e+57
          1542.98310	         8.17383e+57
          1543.78940	         7.79324e+57
          1544.59570	         6.93085e+57
          1545.40200	         8.51187e+57
          1546.20830	         1.03409e+58
          1547.01460	         1.10923e+58
          1547.82090	         1.15942e+58
          1548.62720	         1.18019e+58
          1549.43350	         1.09130e+58
          1550.23980	         1.05929e+58
          1551.04610	         1.22936e+58
          1551.85240	         1.33446e+58
          1552.65870	         1.18293e+58
          1553.46500	         1.02635e+58
          1554.27130	         9.81457e+57
          1555.07760	         9.19705e+57
          1555.88390	         8.81043e+57
          1556.69020	         9.17477e+57
          1557.49650	         8.97930e+57
          1558.30280	         8.86366e+57
          1559.10910	         9.49092e+57
          1559.91540	         9.26015e+57
          1560.72170	         8.86311e+57
          1561.52800	         8.74190e+57
          1562.33430	         8.93650e+57
          1563.14060	         8.54552e+57
          1563.94690	         8.26653e+57
          1564.75320	         8.27760e+57
          1565.55950	         6.98343e+57
          1566.36580	         7.26589e+57
          1567.17210	         8.47193e+57
          1567.97840	         8.41494e+57
          1568.78470	         8.66929e+57
          1569.59100	         9.94649e+57
          1570.39730	         9.40161e+57
          1571.20360	         7.94752e+57
          1572.00990	         8.37043e+57
          1572.81620	         8.89562e+57
          1573.62250	         1.01607e+58
          1574.42880	         9.16755e+57
          1575.23510	         7.85777e+57
          1576.04140	         8.39632e+57
          1576.84770	         9.06212e+57
          1577.65400	         8.91402e+57
          1578.46030	         9.86497e+57
          1579.26660	         1.08857e+58
          1580.07290	         9.09496e+57
          1580.87920	         7.69955e+57
          1581.68550	         8.15459e+57
          1582.49180	         8.79030e+57
          1583.29810	         8.02436e+57
          1584.10440	         8.15437e+57
          1584.91070	         8.38346e+57
          1585.71700	         8.38553e+57
          1586.52330	         8.76472e+57
          1587.32960	         8.60598e+57
          1588.13590	         8.80323e+57
          1588.94220	         7.60454e+57
          1589.74850	         8.52255e+57
          1590.55480	         9.33267e+57
          1591.36110	         8.21919e+57
          1592.16740	         8.99894e+57
          1592.97370	         8.51536e+57
          1593.78000	         8.87670e+57
          1594.58630	         9.40852e+57
          1595.39260	         8.03366e+57
          1596.19890	         8.33630e+57
          1597.00520	         8.98800e+57
          1597.81150	         7.99306e+57
          1598.61780	         6.66698e+57
          1599.42410	         6.55546e+57
          1600.23040	         6.96437e+57
          1601.03670	         7.96355e+57
          1601.84300	         7.45292e+57
          1602.64930	         7.81309e+57
          1603.45560	         9.79973e+57
          1604.26190	         9.26440e+57
          1605.06820	         8.30249e+57
          1605.87450	         7.80035e+57
          1606.68080	         7.23698e+57
          1607.48710	         6.63172e+57
          1608.29340	         6.03418e+57
          1609.09970	         6.66671e+57
          1609.90600	         6.99363e+57
          1610.71230	         6.93524e+57
          1611.51860	         7.96688e+57
          1612.32490	         7.21266e+57
          1613.13120	         8.20315e+57
          1613.93750	         8.07277e+57
          1614.74380	         8.59746e+57
          1615.55010	         8.85236e+57
          1616.35640	         8.64155e+57
          1617.16270	         8.86029e+57
          1617.96900	         9.06733e+57
          1618.77530	         8.78508e+57
          1619.58160	         8.36012e+57
          1620.38790	         7.93143e+57
          1621.19420	         8.93861e+57
          1622.00050	         8.76430e+57
          1622.80680	         9.70648e+57
          1623.61310	         9.60595e+57
          1624.41940	         8.78624e+57
          1625.22570	         8.97127e+57
          1626.03200	         8.95170e+57
          1626.83830	         8.10482e+57
          1627.64460	         7.31068e+57
          1628.45090	         6.39116e+57
          1629.25720	         7.33652e+57
          1630.06350	         8.82168e+57
          1630.86980	         6.46378e+57
          1631.67610	         7.34483e+57
          1632.48240	         8.82261e+57
          1633.28870	         7.58150e+57
          1634.09500	         9.04026e+57
          1634.90130	         1.12910e+58
          1635.70760	         9.33019e+57
          1636.51390	         7.38054e+57
          1637.32020	         6.10190e+57
          1638.12650	         8.22838e+57
          1638.93280	         1.00225e+58
          1639.73910	         1.10449e+58
          1640.54540	         1.15907e+58
          1641.35170	         1.02824e+58
          1642.15800	         9.62427e+57
          1642.96430	         9.36663e+57
          1643.77060	         9.59459e+57
          1644.57690	         8.45946e+57
          1645.38320	         8.19958e+57
          1646.18950	         7.49339e+57
          1646.99580	         7.36611e+57
          1647.80210	         7.14362e+57
          1648.60840	         7.36565e+57
          1649.41470	         7.69682e+57
          1650.22100	         6.55796e+57
          1651.02730	         6.58035e+57
          1651.83360	         7.26459e+57
          1652.63990	         7.89789e+57
          1653.44620	         9.09351e+57
          1654.25250	         8.32463e+57
          1655.05880	         8.01442e+57
          1655.86510	         8.41157e+57
          1656.67140	         8.65057e+57
          1657.47770	         7.68780e+57
          1658.28400	         8.56588e+57
          1659.09030	         9.04026e+57
          1659.89660	         8.74418e+57
          1660.70290	         9.75393e+57
          1661.50920	         9.63386e+57
          1662.31550	         9.17285e+57
          1663.12180	         9.38779e+57
          1663.92810	         1.05795e+58
          1664.73440	         1.14620e+58
          1665.54070	         1.16198e+58
          1666.34700	         1.25841e+58
          1667.15330	         1.14165e+58
          1667.95960	         8.42607e+57
          1668.76590	         6.62818e+57
          1669.57220	         6.39722e+57
          1670.37850	         7.31752e+57
          1671.18480	         7.50229e+57
          1671.99110	         7.74344e+57
          1672.79740	         6.48475e+57
          1673.60370	         6.04011e+57
          1674.41000	         7.07400e+57
          1675.21630	         7.63690e+57
          1676.02260	         7.09315e+57
          1676.82890	         6.57368e+57
          1677.63520	         7.16545e+57
          1678.44150	         8.11088e+57
          1679.24780	         9.01123e+57
          1680.05410	         8.32935e+57
          1680.86040	         6.46160e+57
          1681.66670	         6.99561e+57
          1682.47300	         8.47689e+57
          1683.27930	         8.90593e+57
          1684.08560	         9.20964e+57
          1684.89190	         8.06192e+57
          1685.69820	         6.14438e+57
          1686.50450	         4.92229e+57
          1687.31080	         5.45825e+57
          1688.11710	         7.17519e+57
          1688.92340	         7.26333e+57
          1689.72970	         7.36928e+57
          1690.53600	         7.71562e+57
          1691.34230	         6.58378e+57
          1692.14860	         7.45646e+57
          1692.95490	         8.24611e+57
          1693.76120	         7.32650e+57
          1694.56750	         7.66614e+57
          1695.37380	         9.44091e+57
          1696.18010	         9.89496e+57
          1696.98640	         8.96651e+57
          1697.79270	         9.27308e+57
          1698.59900	         9.83642e+57
          1699.40530	         8.43433e+57
          1700.21160	         8.75300e+57
          1701.01790	         9.31564e+57
          1701.82420	         7.75959e+57
          1702.63050	         8.09734e+57
          1703.43680	         9.41894e+57
          1704.24310	         9.31421e+57
          1705.04940	         7.96395e+57
          1705.85570	         8.02835e+57
          1706.66200	         8.65369e+57
          1707.46830	         9.06254e+57
          1708.27460	         8.33987e+57
          1709.08090	         7.61135e+57
          1709.88720	         6.97451e+57
          1710.69350	         6.28973e+57
          1711.49980	         6.97140e+57
          1712.30610	         6.44483e+57
          1713.11240	         7.49994e+57
          1713.91870	         6.62119e+57
          1714.72500	         8.18951e+57
          1715.53130	         9.18276e+57
          1716.33760	         7.31438e+57
          1717.14390	         6.47432e+57
          1717.95020	         7.28920e+57
          1718.75650	         7.91279e+57
          1719.56280	         8.63458e+57
          1720.36910	         7.88724e+57
          1721.17540	         7.24458e+57
          1721.98170	         6.26405e+57
          1722.78800	         6.10187e+57
          1723.59430	         7.33111e+57
          1724.40060	         8.46783e+57
          1725.20690	         8.47711e+57
          1726.01320	         8.05153e+57
          1726.81950	         7.59412e+57
          1727.62580	         7.87479e+57
          1728.43210	         7.92415e+57
          1729.23840	         7.80989e+57
          1730.04470	         8.51623e+57
          1730.85100	         8.96068e+57
          1731.65730	         7.81354e+57
          1732.46360	         7.67751e+57
          1733.26990	         7.01081e+57
          1734.07620	         7.19696e+57
          1734.88250	         7.49372e+57
          1735.68880	         6.40729e+57
          1736.49510	         7.37910e+57
          1737.30140	         7.65770e+57
          1738.10770	         6.54323e+57
          1738.91400	         7.38217e+57
          1739.72030	         8.76897e+57
          1740.52660	         7.06199e+57
          1741.33290	         6.19580e+57
          1742.13920	         6.55122e+57
          1742.94550	         7.42398e+57
          1743.75180	         7.57132e+57
          1744.55810	         8.14151e+57
          1745.36440	         8.36029e+57
          1746.17070	         6.24513e+57
          1746.97700	         5.20224e+57
          1747.78330	         7.49562e+57
          1748.58960	         8.49705e+57
          1749.39590	         7.96282e+57
          1750.20220	         6.88438e+57
          1751.00850	         5.82550e+57
          1751.81480	         6.02338e+57
          1752.62110	         7.60010e+57
          1753.42740	         9.24311e+57
          1754.23370	         7.48945e+57
          1755.04000	         6.39809e+57
          1755.84630	         7.02263e+57
          1756.65260	         7.96301e+57
          1757.45890	         7.90112e+57
          1758.26520	         6.74442e+57
          1759.07150	         7.82803e+57
          1759.87780	         8.27153e+57
          1760.68410	         8.48993e+57
          1761.49040	         8.23361e+57
          1762.29670	         7.02306e+57
          1763.10300	         7.06536e+57
          1763.90930	         7.24614e+57
          1764.71560	         7.91735e+57
          1765.52190	         8.16209e+57
          1766.32820	         8.09401e+57
          1767.13450	         7.22428e+57
          1767.94080	         6.20176e+57
          1768.74710	         6.69718e+57
          1769.55340	         7.38936e+57
          1770.35970	         6.20332e+57
          1771.16600	         7.54803e+57
          1771.97230	         9.14353e+57
          1772.77860	         9.02018e+57
          1773.58490	         7.08564e+57
          1774.39120	         6.08992e+57
          1775.19750	         6.46636e+57
          1776.00380	         6.88217e+57
          1776.81010	         7.10964e+57
          1777.61640	         7.09473e+57
          1778.42270	         7.46999e+57
          1779.22900	         7.44150e+57
          1780.03530	         6.86388e+57
          1780.84160	         7.24379e+57
          1781.64790	         8.23293e+57
          1782.45420	         7.25708e+57
          1783.26050	         6.00709e+57
          1784.06680	         7.05421e+57
          1784.87310	         7.16288e+57
          1785.67940	         7.18452e+57
          1786.48570	         6.69341e+57
          1787.29200	         5.45871e+57
          1788.09830	         5.59526e+57
          1788.90460	         6.31938e+57
          1789.71090	         5.69806e+57
          1790.51720	         6.06130e+57
          1791.32350	         7.65136e+57
          1792.12980	         7.94076e+57
          1792.93610	         7.66292e+57
          1793.74240	         7.07324e+57
          1794.54870	         7.08969e+57
          1795.35500	         8.66396e+57
          1796.16130	         8.07610e+57
          1796.96760	         7.54423e+57
          1797.77390	         7.62533e+57
          1798.58020	         7.43665e+57
          1799.38650	         6.18596e+57
          1800.19280	         5.55711e+57
          1800.99910	         6.45524e+57
          1801.80540	         6.71697e+57
          1802.61170	         7.85801e+57
          1803.41800	         7.47307e+57
          1804.22430	         7.45824e+57
          1805.03060	         7.16245e+57
          1805.83690	         7.62733e+57
          1806.64320	         8.45347e+57
          1807.44950	         8.27854e+57
          1808.25580	         7.08622e+57
          1809.06210	         8.38326e+57
          1809.86840	         7.72745e+57
          1810.67470	         8.03723e+57
          1811.48100	         9.24723e+57
          1812.28730	         9.00492e+57
          1813.09360	         7.14523e+57
          1813.89990	         7.48847e+57
          1814.70620	         7.50234e+57
          1815.51250	         8.56732e+57
          1816.31880	         8.62273e+57
          1817.12510	         7.55743e+57
          1817.93140	         6.23354e+57
          1818.73770	         7.60444e+57
          1819.54400	         8.51579e+57
          1820.35030	         7.79631e+57
          1821.15660	         6.44446e+57
          1821.96290	         7.52737e+57
          1822.76920	         8.10574e+57
          1823.57550	         7.54311e+57
          1824.38180	         7.63627e+57
          1825.18810	         7.98264e+57
          1825.99440	         8.90315e+57
          1826.80070	         8.71700e+57
          1827.60700	         7.64993e+57
          1828.41330	         6.69766e+57
          1829.21960	         6.62140e+57
          1830.02590	         6.69739e+57
          1830.83220	         7.83218e+57
          1831.63850	         7.90711e+57
          1832.44480	         7.09180e+57
          1833.25110	         7.17242e+57
          1834.05740	         7.78698e+57
          1834.86370	         6.69979e+57
          1835.67000	         5.70349e+57
          1836.47630	         7.03023e+57
          1837.28260	         9.20159e+57
          1838.08890	         9.05533e+57
          1838.89520	         8.10753e+57
          1839.70150	         8.05791e+57
          1840.50780	         7.56977e+57
          1841.31410	         8.35578e+57
          1842.12040	         7.62742e+57
          1842.92670	         6.97792e+57
          1843.73300	         7.32928e+57
          1844.53930	         6.58597e+57
          1845.34560	         6.44210e+57
          1846.15190	         7.26935e+57
          1846.95820	         7.42159e+57
          1847.76450	         6.93692e+57
          1848.57080	         5.87095e+57
          1849.37710	         6.93880e+57
          1850.18340	         8.36298e+57
          1850.98970	         8.67202e+57
          1851.79600	         8.82348e+57
          1852.60230	         7.05755e+57
          1853.40860	         6.69075e+57
          1854.21490	         7.21630e+57
          1855.02120	         6.73277e+57
          1855.82750	         5.10069e+57
          1856.63380	         5.93357e+57
          1857.44010	         8.33868e+57
          1858.24640	         7.46729e+57
          1859.05270	         7.04136e+57
          1859.85900	         6.96936e+57
          1860.66530	         6.22928e+57
          1861.47160	         6.95148e+57
          1862.27790	         7.83926e+57
          1863.08420	         8.18439e+57
          1863.89050	         7.93480e+57
          1864.69680	         6.92511e+57
          1865.50310	         7.02298e+57
          1866.30940	         6.41460e+57
          1867.11570	         6.32968e+57
          1867.92200	         7.07910e+57
          1868.72830	         6.99464e+57
          1869.53460	         7.15687e+57
          1870.34090	         7.57001e+57
          1871.14720	         7.46610e+57
          1871.95350	         6.73693e+57
          1872.75980	         6.89493e+57
          1873.56610	         6.64362e+57
          1874.37240	         5.90918e+57
          1875.17870	         6.57023e+57
          1875.98500	         7.17338e+57
          1876.79130	         7.60004e+57
          1877.59760	         7.16148e+57
          1878.40390	         6.27478e+57
          1879.21020	         5.86600e+57
          1880.01650	         6.10453e+57
          1880.82280	         7.78900e+57
          1881.62910	         9.43662e+57
          1882.43540	         9.86422e+57
          1883.24170	         8.09641e+57
          1884.04800	         6.80940e+57
          1884.85430	         7.08428e+57
          1885.66060	         7.35860e+57
          1886.46690	         7.52886e+57
          1887.27320	         6.85234e+57
          1888.07950	         5.59713e+57
          1888.88580	         7.24177e+57
          1889.69210	         7.55122e+57
          1890.49840	         7.78594e+57
          1891.30470	         6.71795e+57
          1892.11100	         6.98312e+57
          1892.91730	         7.68370e+57
          1893.72360	         7.70452e+57
          1894.52990	         6.98456e+57
          1895.33620	         7.99393e+57
          1896.14250	         7.64722e+57
          1896.94880	         7.28407e+57
          1897.75510	         4.89941e+57
          1898.56140	         6.04010e+57
          1899.36770	         7.64494e+57
          1900.17400	         7.64417e+57
          1900.98030	         6.44251e+57
          1901.78660	         6.27904e+57
          1902.59290	         7.53284e+57
          1903.39920	         8.90548e+57
          1904.20550	         9.08134e+57
          1905.01180	         8.94132e+57
          1905.81810	         9.50036e+57
          1906.62440	         1.32079e+58
          1907.43070	         1.58745e+58
          1908.23700	         1.54921e+58
          1909.04330	         1.30964e+58
          1909.84960	         1.08463e+58
          1910.65590	         9.89902e+57
          1911.46220	         8.86558e+57
          1912.26850	         6.90499e+57
          1913.07480	         5.98263e+57
          1913.88110	         5.47575e+57
          1914.68740	         5.32615e+57
          1915.49370	         5.71611e+57
          1916.30000	         6.60400e+57
          1917.10630	         6.42570e+57
          1917.91260	         6.46644e+57
          1918.71890	         6.79674e+57
          1919.52520	         6.34860e+57
          1920.33150	         5.53586e+57
          1921.13780	         6.78843e+57
          1921.94410	         7.02657e+57
          1922.75040	         5.95991e+57
          1923.55670	         6.76801e+57
          1924.36300	         7.95471e+57
          1925.16930	         6.79644e+57
          1925.97560	         4.43387e+57
          1926.78190	         4.33685e+57
          1927.58820	         5.96349e+57
          1928.39450	         6.57500e+57
          1929.20080	         5.54970e+57
          1930.00710	         6.64703e+57
          1930.81340	         7.66272e+57
          1931.61970	         6.68911e+57
          1932.42600	         6.77595e+57
          1933.23230	         6.93757e+57
          1934.03860	         7.50553e+57
          1934.84490	         5.00481e+57
          1935.65120	         6.03612e+57
          1936.45750	         6.46978e+57
          1937.26380	         6.79626e+57
          1938.07010	         7.35761e+57
          1938.87640	         7.66105e+57
          1939.68270	         7.90947e+57
          1940.48900	         7.94903e+57
          1941.29530	         8.88462e+57
          1942.10160	         7.58866e+57
          1942.90790	         5.93901e+57
          1943.71420	         5.74409e+57
          1944.52050	         5.39758e+57
          1945.32680	         5.69913e+57
          1946.13310	         8.01003e+57
          1946.93940	         9.44376e+57
          1947.74570	         7.93174e+57
          1948.55200	         6.16060e+57
          1949.35830	         7.10579e+57
          1950.16460	         7.13576e+57
          1950.97090	         6.90957e+57
          1951.77720	         7.58989e+57
          1952.58350	         7.89164e+57
          1953.38980	         6.20073e+57
          1954.19610	         4.33900e+57
          1955.00240	         4.79567e+57
          1955.80870	         6.45903e+57
          1956.61500	         6.75133e+57
          1957.42130	         6.72502e+57
          1958.22760	         6.62082e+57
          1959.03390	         7.45997e+57
          1959.84020	         7.39099e+57
          1960.64650	         6.60745e+57
          1961.45280	         5.76365e+57
          1962.25910	         6.17032e+57
          1963.06540	         6.46009e+57
          1963.87170	         6.52036e+57
          1964.67800	         6.91701e+57
          1965.48430	         7.38968e+57
          1966.29060	         6.62194e+57
          1967.09690	         8.07805e+57
          1967.90320	         7.47282e+57
          1968.70950	         6.87796e+57
          1969.51580	         6.10159e+57
          1970.32210	         6.13111e+57
          1971.12840	         5.24660e+57
          1971.93470	         4.95206e+57
          1972.74100	         4.80141e+57
          1973.54730	         6.80741e+57
          1974.35360	         6.53818e+57
          1975.15990	         6.50941e+57
          1975.96620	         6.35347e+57
          1976.77250	         7.49523e+57
          1977.57880	         7.32220e+57
          1978.38510	         6.82389e+57
          1979.19140	         7.28744e+57
          1979.99770	         8.10810e+57
          1980.80400	         7.67314e+57
          1981.61030	         6.40194e+57
          1982.41660	         5.71519e+57
          1983.22290	         6.29972e+57
          1984.02920	         6.37282e+57
          1984.83550	         5.60329e+57
          1985.64180	         6.56322e+57
          1986.44810	         6.25581e+57
          1987.25440	         4.93342e+57
          1988.06070	         5.07447e+57
          1988.86700	         6.39444e+57
          1989.67330	         6.63196e+57
          1990.47960	         5.88032e+57
          1991.28590	         6.35758e+57
          1992.09220	         5.95502e+57
          1992.89850	         6.24443e+57
          1993.70480	         5.72446e+57
          1994.51110	         4.29729e+57
          1995.31740	         4.95019e+57
          1996.12370	         5.25650e+57
          1996.93000	         6.23600e+57
          1997.73630	         7.82587e+57
          1998.54260	         8.19446e+57
          1999.34890	         7.52458e+57
          2000.15520	         6.65372e+57
          2000.96150	         6.43118e+57
          2001.76780	         6.40107e+57
          2002.57410	         5.40587e+57
          2003.38040	         7.02813e+57
          2004.18670	         6.96871e+57
          2004.99300	         6.82305e+57
          2005.79930	         7.35701e+57
          2006.60560	         6.30401e+57
          2007.41190	         5.92599e+57
          2008.21820	         6.60085e+57
          2009.02450	         6.92108e+57
          2009.83080	         7.28759e+57
          2010.63710	         6.93129e+57
          2011.44340	         6.54634e+57
          2012.24970	         6.57491e+57
          2013.05600	         7.05074e+57
          2013.86230	         6.51980e+57
          2014.66860	         5.53248e+57
          2015.47490	         5.11563e+57
          2016.28120	         5.20976e+57
          2017.08750	         6.13892e+57
          2017.89380	         6.93677e+57
          2018.70010	         6.43812e+57
          2019.50640	         5.43277e+57
          2020.31270	         6.25700e+57
          2021.11900	         7.44452e+57
          2021.92530	         7.55045e+57
          2022.73160	         7.44386e+57
          2023.53790	         7.78283e+57
          2024.34420	         6.65707e+57
          2025.15050	         5.28607e+57
          2025.95680	         5.70914e+57
          2026.76310	         5.73090e+57
          2027.56940	         6.89559e+57
          2028.37570	         5.93841e+57
          2029.18200	         4.43509e+57
          2029.98830	         5.42759e+57
          2030.79460	         7.11010e+57
          2031.60090	         6.64093e+57
          2032.40720	         5.98597e+57
          2033.21350	         5.35615e+57
          2034.01980	         5.05488e+57
          2034.82610	         5.13752e+57
          2035.63240	         5.38070e+57
          2036.43870	         5.54897e+57
          2037.24500	         6.08427e+57
          2038.05130	         8.36527e+57
          2038.85760	         6.82274e+57
          2039.66390	         5.78878e+57
          2040.47020	         6.24493e+57
          2041.27650	         7.31218e+57
          2042.08280	         5.42437e+57
          2042.88910	         4.79049e+57
          2043.69540	         6.09733e+57
          2044.50170	         4.93956e+57
          2045.30800	         3.73222e+57
          2046.11430	         3.24789e+57
          2046.92060	         4.92456e+57
          2047.72690	         6.41622e+57
          2048.53320	         5.34296e+57
          2049.33950	         3.86056e+57
          2050.14580	         5.38614e+57
          2050.95210	         7.35089e+57
          2051.75840	         7.25016e+57
          2052.56470	         6.11495e+57
          2053.37100	         4.49334e+57
          2054.17730	         4.18082e+57
          2054.98360	         3.70730e+57
          2055.78990	         2.36899e+57
          2056.59620	         3.41621e+57
          2057.40250	         5.69551e+57
          2058.20880	         7.85123e+57
          2059.01510	         6.71416e+57
          2059.82140	         6.13240e+57
          2060.62770	         1.05471e+58
          2061.43400	         1.60533e+58
          2062.24030	         9.72955e+57
          2063.04660	         4.66987e+57
          2063.85290	         1.14763e+57
          2064.65920	        -5.00237e+56
          2065.46550	        -8.44014e+57
          2066.27180	        -7.24982e+57
          2067.07810	         5.32050e+57
          2067.88440	         3.81675e+57
          2068.69070	         5.77844e+57
          2069.49700	         5.45646e+57
          2070.30330	         3.75029e+57
          2071.10960	         4.70919e+57
          2071.91590	         6.48333e+57
          2072.72220	         4.52047e+57
          2073.52850	         4.78127e+57
          2074.33480	         5.40153e+57
          2075.14110	         5.78789e+57
          2075.94740	         6.36411e+57
          2076.75370	         5.29882e+57
          2077.56000	         5.34428e+57
          2078.36630	         6.59414e+57
          2079.17260	         4.50680e+57
          2079.97890	         5.63511e+57
          2080.78520	         5.58005e+57
          2081.59150	         5.00009e+57
          2082.39780	         4.12737e+57
          2083.20410	         3.99356e+57
          2084.01040	         2.86464e+57
          2084.81670	         3.30455e+57
          2085.62300	         2.88448e+57
          2086.42930	         2.76404e+57
          2087.23560	         2.20872e+57
          2088.04190	         3.11985e+57
          2088.84820	         2.20257e+57
          2089.65450	         2.17640e+57
          2090.46080	         1.86183e+57
          2091.26710	         1.97323e+57
          2092.07340	         1.85271e+57
          2092.87970	         1.29934e+57
          2093.68600	        -3.25911e+56
          2094.49230	         9.63104e+56
          2095.29860	         4.30828e+57
          2096.10490	         1.14871e+57
          2096.91120	         3.29257e+56
          2097.71750	        -6.16297e+56
          2098.52380	         1.41882e+57
          2099.33010	         2.73401e+56
          2100.13640	         1.11971e+57
          2100.94270	        -1.46046e+56
          2101.74900	         2.62780e+57
          2102.55530	         3.18545e+57
          2103.36160	         3.19583e+57
          2104.16790	         4.34713e+57
          2104.97420	         2.62669e+57
          2105.78050	         7.50517e+56
          2106.58680	        -3.50873e+55
          2107.39310	        -1.80850e+57
          2108.19940	        -9.78539e+55
          2109.00570	        -1.06840e+57
          2109.81200	        -6.88811e+56
          2110.61830	         1.12736e+57
          2111.42460	         3.73590e+57
          2112.23090	         2.04133e+57
          2113.03720	        -2.91973e+57
          2113.84350	        -1.88215e+57
          2114.64980	         2.25664e+57
          2115.45610	        -2.43912e+57
          2116.26240	        -4.85321e+57
          2117.06870	        -4.11753e+55
          2117.87500	        -8.05916e+56
          2118.68130	        -1.05113e+56
          2119.48760	         3.40769e+57
          2120.29390	        -2.12707e+56
          2121.10020	        -2.78263e+57
          2121.90650	        -1.20013e+57
          2122.71280	         3.49647e+57
          2123.51910	         8.87373e+57
          2124.32540	         8.54908e+56
          2125.13170	        -2.88255e+57
          2125.93800	         9.82310e+56
          2126.74430	        -1.27441e+57
          2127.55060	        -5.65036e+57
          2128.35690	        -5.50064e+57
          2129.16320	         1.60388e+57
          2129.96950	         2.14043e+56
          2130.77580	        -1.23965e+57
          2131.58210	        -3.76274e+57
          2132.38840	        -2.41013e+56
          2133.19470	         4.71492e+57
          2134.00100	        -1.99599e+57
          2134.80730	        -8.43519e+57
          2135.61360	         5.66457e+57
          2136.41990	         5.54286e+57
          2137.22620	         1.10992e+57
          2138.03250	         3.38550e+57
          2138.83880	        -9.81931e+57
          2139.64510	        -6.88388e+57
          2140.45140	        -7.08436e+56
          2141.25770	        -7.11375e+57
          2142.06400	        -1.58313e+57
          2142.87030	         3.23176e+57
          2143.67660	         4.13658e+57
          2144.48290	         1.32783e+58
          2145.28920	         8.57148e+57
          2146.09550	        -1.42894e+58
          2146.90180	        -1.03823e+58
          2147.70810	        -4.12886e+57
          2148.51440	        -9.14847e+57
          2149.32070	        -1.05328e+58
          2150.12700	        -6.83014e+57
          2150.93330	        -3.71394e+56
          2151.73960	         4.93117e+57
          2152.54590	        -5.31191e+57
          2153.35220	        -3.86543e+57
          2154.15850	        -3.44978e+57
          2154.96480	         3.92296e+57
          2155.77110	        -7.07978e+57
          2156.57740	        -4.35337e+57
          2157.38370	         2.58469e+57
          2158.19000	         4.63749e+57
          2158.99630	        -1.52166e+57
          2159.80260	        -5.22064e+57
          2160.60890	        -3.03453e+57
          2161.41520	         5.20257e+57
          2162.22150	        -2.82418e+57
          2163.02780	        -4.03512e+57
          2163.83410	        -1.25693e+58
          2164.64040	        -4.17828e+57
          2165.44670	        -1.50678e+58
          2166.25300	        -2.67946e+57
          2167.05930	         3.32267e+56
          2167.86560	        -6.34824e+57
          2168.67190	        -3.66160e+57
          2169.47820	        -1.78522e+57
          2170.28450	        -1.12790e+58
          2171.09080	         5.29453e+57
          2171.89710	        -9.35504e+56
          2172.70340	        -1.68924e+57
          2173.50970	        -7.21946e+57
          2174.31600	        -4.29440e+57
          2175.12230	        -6.94728e+56
          2175.92860	        -3.79865e+57
          2176.73490	        -3.77621e+57
          2177.54120	        -5.42160e+57
          2178.34750	        -3.50541e+57
          2179.15380	                 nan
          2179.96010	                 nan
          2180.76640	                 nan
          2181.57270	                 nan
          2182.37900	                 nan
          2183.18530	                 nan
          2183.99160	                 nan
          2184.79790	                 nan
          2185.60420	                 nan
          2186.41050	                 nan
          2187.21680	                 nan
          2188.02310	                 nan
          2188.82940	                 nan
          2189.63570	                 nan
          2190.44200	                 nan
          2191.24830	                 nan
          2192.05460	                 nan
          2192.86090	                 nan
          2193.66720	                 nan
          2194.47350	                 nan
          2195.27980	                 nan
          2196.08610	                 nan
          2196.89240	                 nan
          2197.69870	                 nan
          2198.50500	                 nan
          2199.31130	                 nan
          2200.11760	                 nan
          2200.92390	                 nan
          2201.73020	                 nan
          2202.53650	                 nan
          2203.34280	                 nan
          2204.14910	                 nan
          2204.95540	                 nan
          2205.76170	                 nan
          2206.56800	                 nan
          2207.37430	                 nan
          2208.18060	                 nan
          2208.98690	                 nan
          2209.79320	                 nan
          2210.59950	                 nan
          2211.40580	                 nan
          2212.21210	                 nan
          2213.01840	                 nan
          2213.82470	                 nan
          2214.63100	                 nan
          2215.43730	         0.00000e+00
