#sample_335_stacked_spectrum_rest_UV-bands_median_H-alpha_noDC.txt
#median Lum: 1.67914e+42
#Rest-frame wavelength (A) | Luminosity (erg/s/A)
#
          1110.00000	         0.00000e+00
          1110.80630	        -2.75062e+59
          1111.61260	        -1.65298e+57
          1112.41890	        -6.89973e+58
          1113.22520	         6.42653e+57
          1114.03150	        -1.32230e+59
          1114.83780	         7.79665e+58
          1115.64410	         1.87826e+59
          1116.45040	         7.54340e+58
          1117.25670	        -3.96454e+58
          1118.06300	         1.81467e+59
          1118.86930	        -8.78273e+58
          1119.67560	         1.12418e+59
          1120.48190	         6.37597e+58
          1121.28820	        -3.76995e+57
          1122.09450	         8.37729e+58
          1122.90080	         1.46836e+58
          1123.70710	        -5.98255e+57
          1124.51340	        -1.37190e+58
          1125.31970	        -2.60657e+58
          1126.12600	         8.46184e+57
          1126.93230	        -2.64181e+58
          1127.73860	        -1.19284e+58
          1128.54490	         3.01591e+58
          1129.35120	         8.11016e+57
          1130.15750	        -1.14630e+58
          1130.96380	        -2.19196e+58
          1131.77010	         7.31694e+58
          1132.57640	         3.86932e+58
          1133.38270	         5.76927e+57
          1134.18900	         1.01031e+58
          1134.99530	         1.33997e+58
          1135.80160	         5.39149e+58
          1136.60790	         2.03196e+58
          1137.41420	         1.48473e+57
          1138.22050	         3.24066e+58
          1139.02680	         4.68080e+58
          1139.83310	         1.93261e+58
          1140.63940	         5.76739e+57
          1141.44570	        -4.49138e+57
          1142.25200	        -5.06808e+57
          1143.05830	         1.19335e+58
          1143.86460	         2.65540e+58
          1144.67090	         1.45067e+58
          1145.47720	         2.17313e+57
          1146.28350	         1.04202e+58
          1147.08980	         1.41161e+58
          1147.89610	         1.35734e+58
          1148.70240	         2.02976e+58
          1149.50870	         1.15824e+58
          1150.31500	         1.06990e+58
          1151.12130	         1.02714e+58
          1151.92760	         4.90566e+57
          1152.73390	         2.51968e+57
          1153.54020	        -1.78951e+56
          1154.34650	         2.72331e+58
          1155.15280	         2.70463e+58
          1155.95910	         1.99627e+58
          1156.76540	         1.18498e+58
          1157.57170	        -6.41115e+57
          1158.37800	         1.21739e+57
          1159.18430	         6.66650e+57
          1159.99060	         5.85358e+57
          1160.79690	        -6.80169e+57
          1161.60320	         9.33924e+57
          1162.40950	         1.46486e+58
          1163.21580	         2.33640e+58
          1164.02210	         1.06871e+58
          1164.82840	         1.35889e+58
          1165.63470	         2.13122e+58
          1166.44100	         3.03681e+58
          1167.24730	         2.50999e+58
          1168.05360	         1.07781e+58
          1168.85990	         7.00978e+57
          1169.66620	         1.18279e+58
          1170.47250	         2.73831e+57
          1171.27880	         7.36457e+57
          1172.08510	         1.72292e+58
          1172.89140	         1.33290e+58
          1173.69770	         2.06309e+57
          1174.50400	         1.07907e+58
          1175.31030	         1.84737e+58
          1176.11660	         1.82052e+58
          1176.92290	         1.31554e+58
          1177.72920	         1.11847e+58
          1178.53550	         6.00308e+57
          1179.34180	         4.26226e+57
          1180.14810	         1.05436e+58
          1180.95440	         1.12362e+58
          1181.76070	         5.15045e+57
          1182.56700	         4.20301e+57
          1183.37330	         5.93458e+57
          1184.17960	         1.26035e+58
          1184.98590	         9.23577e+57
          1185.79220	         1.08760e+58
          1186.59850	         8.36077e+57
          1187.40480	         7.16530e+57
          1188.21110	         1.64769e+58
          1189.01740	         7.13219e+57
          1189.82370	         7.36992e+57
          1190.63000	         7.86611e+57
          1191.43630	         1.12839e+58
          1192.24260	         1.30832e+58
          1193.04890	         1.15531e+58
          1193.85520	         1.16168e+58
          1194.66150	         9.70414e+57
          1195.46780	         1.66409e+58
          1196.27410	         1.60647e+58
          1197.08040	         8.61813e+57
          1197.88670	         1.49242e+58
          1198.69300	         1.40846e+58
          1199.49930	         1.49471e+58
          1200.30560	         1.54206e+58
          1201.11190	         1.16527e+58
          1201.91820	         6.94833e+57
          1202.72450	         7.96841e+57
          1203.53080	         1.40713e+58
          1204.33710	         6.75741e+57
          1205.14340	         1.09093e+58
          1205.94970	         8.02558e+57
          1206.75600	         8.60168e+57
          1207.56230	         6.69396e+57
          1208.36860	         8.89149e+57
          1209.17490	         4.48463e+57
          1209.98120	         5.03251e+57
          1210.78750	         6.24395e+57
          1211.59380	         5.89662e+57
          1212.40010	         1.33989e+58
          1213.20640	         2.11102e+58
          1214.01270	         2.24376e+58
          1214.81900	         2.68542e+58
          1215.62530	         4.27608e+58
          1216.43160	         8.87479e+58
          1217.23790	         1.49741e+59
          1218.04420	         1.10661e+59
          1218.85050	         8.35933e+58
          1219.65680	         5.70366e+58
          1220.46310	         3.44665e+58
          1221.26940	         2.53180e+58
          1222.07570	         1.58998e+58
          1222.88200	         9.73539e+57
          1223.68830	         8.58667e+57
          1224.49460	         9.57778e+57
          1225.30090	         7.04343e+57
          1226.10720	         4.71342e+57
          1226.91350	         4.94032e+57
          1227.71980	         6.14068e+57
          1228.52610	         9.43868e+57
          1229.33240	         5.22128e+57
          1230.13870	         7.48985e+57
          1230.94500	         7.41387e+57
          1231.75130	         4.31219e+57
          1232.55760	         7.59810e+57
          1233.36390	         8.75433e+57
          1234.17020	         7.90184e+57
          1234.97650	         8.57496e+57
          1235.78280	         8.39371e+57
          1236.58910	         8.83531e+57
          1237.39540	         1.03226e+58
          1238.20170	         1.09073e+58
          1239.00800	         1.24108e+58
          1239.81430	         1.48880e+58
          1240.62060	         1.03415e+58
          1241.42690	         1.11129e+58
          1242.23320	         1.35612e+58
          1243.03950	         9.55599e+57
          1243.84580	         9.54027e+57
          1244.65210	         1.20193e+58
          1245.45840	         1.02264e+58
          1246.26470	         7.39135e+57
          1247.07100	         6.34104e+57
          1247.87730	         4.28426e+57
          1248.68360	         3.38038e+57
          1249.48990	         7.13023e+57
          1250.29620	         9.17438e+57
          1251.10250	         5.62647e+57
          1251.90880	         3.25010e+57
          1252.71510	         6.10936e+57
          1253.52140	         9.34344e+57
          1254.32770	         8.58381e+57
          1255.13400	         1.11459e+58
          1255.94030	         1.12637e+58
          1256.74660	         8.74781e+57
          1257.55290	         9.60869e+57
          1258.35920	         7.74548e+57
          1259.16550	         3.20862e+57
          1259.97180	         5.62027e+57
          1260.77810	         1.07949e+58
          1261.58440	         1.21939e+58
          1262.39070	         1.04070e+58
          1263.19700	         8.13119e+57
          1264.00330	         9.22771e+57
          1264.80960	         1.14992e+58
          1265.61590	         1.25376e+58
          1266.42220	         1.25574e+58
          1267.22850	         1.16358e+58
          1268.03480	         1.36443e+58
          1268.84110	         1.50762e+58
          1269.64740	         1.36468e+58
          1270.45370	         1.33705e+58
          1271.26000	         1.16938e+58
          1272.06630	         1.29941e+58
          1272.87260	         1.16555e+58
          1273.67890	         1.26597e+58
          1274.48520	         1.36582e+58
          1275.29150	         1.36371e+58
          1276.09780	         1.34316e+58
          1276.90410	         1.60277e+58
          1277.71040	         1.44889e+58
          1278.51670	         1.22124e+58
          1279.32300	         1.35955e+58
          1280.12930	         1.27858e+58
          1280.93560	         1.09248e+58
          1281.74190	         1.31243e+58
          1282.54820	         1.38847e+58
          1283.35450	         9.80507e+57
          1284.16080	         9.71027e+57
          1284.96710	         1.23963e+58
          1285.77340	         1.10508e+58
          1286.57970	         9.83234e+57
          1287.38600	         1.32444e+58
          1288.19230	         1.68373e+58
          1288.99860	         1.44391e+58
          1289.80490	         1.06212e+58
          1290.61120	         1.23911e+58
          1291.41750	         1.25993e+58
          1292.22380	         1.08538e+58
          1293.03010	         1.08358e+58
          1293.83640	         1.32273e+58
          1294.64270	         1.04743e+58
          1295.44900	         6.02236e+57
          1296.25530	         7.68403e+57
          1297.06160	         1.05113e+58
          1297.86790	         1.18568e+58
          1298.67420	         1.14306e+58
          1299.48050	         1.02137e+58
          1300.28680	         1.15741e+58
          1301.09310	         1.15332e+58
          1301.89940	         6.08216e+57
          1302.70570	         6.12791e+57
          1303.51200	         6.90923e+57
          1304.31830	         1.00065e+58
          1305.12460	         1.25440e+58
          1305.93090	         1.19292e+58
          1306.73720	         1.27717e+58
          1307.54350	         1.45759e+58
          1308.34980	         1.55839e+58
          1309.15610	         1.73574e+58
          1309.96240	         1.53875e+58
          1310.76870	         1.23077e+58
          1311.57500	         1.13407e+58
          1312.38130	         1.06826e+58
          1313.18760	         1.34458e+58
          1313.99390	         1.58409e+58
          1314.80020	         1.61297e+58
          1315.60650	         1.34997e+58
          1316.41280	         1.17120e+58
          1317.21910	         9.40987e+57
          1318.02540	         9.48536e+57
          1318.83170	         1.18805e+58
          1319.63800	         1.32846e+58
          1320.44430	         1.20603e+58
          1321.25060	         1.29385e+58
          1322.05690	         1.26298e+58
          1322.86320	         1.17644e+58
          1323.66950	         1.17557e+58
          1324.47580	         1.07351e+58
          1325.28210	         1.01019e+58
          1326.08840	         1.09520e+58
          1326.89470	         1.20856e+58
          1327.70100	         1.08129e+58
          1328.50730	         9.64430e+57
          1329.31360	         1.02040e+58
          1330.11990	         1.14704e+58
          1330.92620	         9.76207e+57
          1331.73250	         9.75376e+57
          1332.53880	         1.03169e+58
          1333.34510	         1.03097e+58
          1334.15140	         1.01869e+58
          1334.95770	         9.25328e+57
          1335.76400	         1.10010e+58
          1336.57030	         1.19631e+58
          1337.37660	         1.05883e+58
          1338.18290	         1.01054e+58
          1338.98920	         9.70122e+57
          1339.79550	         1.08757e+58
          1340.60180	         1.13521e+58
          1341.40810	         1.30298e+58
          1342.21440	         1.30523e+58
          1343.02070	         1.12512e+58
          1343.82700	         1.31724e+58
          1344.63330	         1.28540e+58
          1345.43960	         1.30754e+58
          1346.24590	         1.33805e+58
          1347.05220	         1.29719e+58
          1347.85850	         9.16917e+57
          1348.66480	         1.11039e+58
          1349.47110	         1.29520e+58
          1350.27740	         1.13245e+58
          1351.08370	         1.19385e+58
          1351.89000	         1.32269e+58
          1352.69630	         1.12064e+58
          1353.50260	         1.08447e+58
          1354.30890	         1.20678e+58
          1355.11520	         1.19216e+58
          1355.92150	         1.07417e+58
          1356.72780	         9.82068e+57
          1357.53410	         1.04292e+58
          1358.34040	         1.06167e+58
          1359.14670	         1.06712e+58
          1359.95300	         1.22697e+58
          1360.75930	         1.34315e+58
          1361.56560	         1.13878e+58
          1362.37190	         1.04214e+58
          1363.17820	         1.03023e+58
          1363.98450	         1.24771e+58
          1364.79080	         1.32344e+58
          1365.59710	         1.19841e+58
          1366.40340	         1.11083e+58
          1367.20970	         1.02456e+58
          1368.01600	         1.03335e+58
          1368.82230	         1.09631e+58
          1369.62860	         1.14047e+58
          1370.43490	         8.89731e+57
          1371.24120	         8.95534e+57
          1372.04750	         9.61941e+57
          1372.85380	         1.21832e+58
          1373.66010	         1.05443e+58
          1374.46640	         9.18559e+57
          1375.27270	         9.86069e+57
          1376.07900	         8.61173e+57
          1376.88530	         8.76807e+57
          1377.69160	         7.80925e+57
          1378.49790	         6.97921e+57
          1379.30420	         7.83750e+57
          1380.11050	         9.06096e+57
          1380.91680	         8.88422e+57
          1381.72310	         9.32165e+57
          1382.52940	         8.10135e+57
          1383.33570	         7.88014e+57
          1384.14200	         8.85155e+57
          1384.94830	         1.19592e+58
          1385.75460	         1.21637e+58
          1386.56090	         1.13168e+58
          1387.36720	         1.19627e+58
          1388.17350	         1.23208e+58
          1388.97980	         1.04971e+58
          1389.78610	         7.60605e+57
          1390.59240	         6.80631e+57
          1391.39870	         6.12860e+57
          1392.20500	         7.45375e+57
          1393.01130	         7.76159e+57
          1393.81760	         6.30661e+57
          1394.62390	         7.69364e+57
          1395.43020	         6.63869e+57
          1396.23650	         5.43890e+57
          1397.04280	         6.81573e+57
          1397.84910	         8.71935e+57
          1398.65540	         9.22163e+57
          1399.46170	         9.65882e+57
          1400.26800	         9.30431e+57
          1401.07430	         9.72226e+57
          1401.88060	         9.32532e+57
          1402.68690	         1.02317e+58
          1403.49320	         1.07372e+58
          1404.29950	         9.75317e+57
          1405.10580	         1.10760e+58
          1405.91210	         1.12993e+58
          1406.71840	         1.04438e+58
          1407.52470	         1.04254e+58
          1408.33100	         9.56886e+57
          1409.13730	         1.15003e+58
          1409.94360	         1.18829e+58
          1410.74990	         1.17829e+58
          1411.55620	         1.05194e+58
          1412.36250	         9.43927e+57
          1413.16880	         9.85402e+57
          1413.97510	         9.20213e+57
          1414.78140	         8.59002e+57
          1415.58770	         1.10083e+58
          1416.39400	         1.23375e+58
          1417.20030	         1.10772e+58
          1418.00660	         1.02135e+58
          1418.81290	         1.15621e+58
          1419.61920	         1.06843e+58
          1420.42550	         1.17038e+58
          1421.23180	         1.34396e+58
          1422.03810	         1.26185e+58
          1422.84440	         1.19432e+58
          1423.65070	         1.26077e+58
          1424.45700	         1.11754e+58
          1425.26330	         8.49936e+57
          1426.06960	         8.40932e+57
          1426.87590	         9.75087e+57
          1427.68220	         9.76552e+57
          1428.48850	         1.03630e+58
          1429.29480	         1.08353e+58
          1430.10110	         9.75781e+57
          1430.90740	         8.40115e+57
          1431.71370	         9.21978e+57
          1432.52000	         9.54294e+57
          1433.32630	         8.53650e+57
          1434.13260	         8.35885e+57
          1434.93890	         8.99975e+57
          1435.74520	         9.39981e+57
          1436.55150	         9.67914e+57
          1437.35780	         8.73822e+57
          1438.16410	         8.83974e+57
          1438.97040	         9.03420e+57
          1439.77670	         8.83198e+57
          1440.58300	         9.80695e+57
          1441.38930	         1.03389e+58
          1442.19560	         1.08943e+58
          1443.00190	         9.25533e+57
          1443.80820	         9.42728e+57
          1444.61450	         9.95516e+57
          1445.42080	         8.87984e+57
          1446.22710	         9.45856e+57
          1447.03340	         9.75297e+57
          1447.83970	         1.09696e+58
          1448.64600	         1.10692e+58
          1449.45230	         1.01613e+58
          1450.25860	         9.85069e+57
          1451.06490	         8.36277e+57
          1451.87120	         7.29492e+57
          1452.67750	         6.98463e+57
          1453.48380	         7.48414e+57
          1454.29010	         7.50289e+57
          1455.09640	         7.80920e+57
          1455.90270	         8.99874e+57
          1456.70900	         9.07796e+57
          1457.51530	         1.11701e+58
          1458.32160	         1.37678e+58
          1459.12790	         1.23849e+58
          1459.93420	         1.05217e+58
          1460.74050	         6.84440e+57
          1461.54680	         8.01963e+57
          1462.35310	         9.11363e+57
          1463.15940	         9.41489e+57
          1463.96570	         1.11522e+58
          1464.77200	         1.09331e+58
          1465.57830	         1.05436e+58
          1466.38460	         9.22599e+57
          1467.19090	         8.84692e+57
          1467.99720	         9.86025e+57
          1468.80350	         1.07434e+58
          1469.60980	         1.00743e+58
          1470.41610	         9.70729e+57
          1471.22240	         8.79032e+57
          1472.02870	         8.65241e+57
          1472.83500	         9.09110e+57
          1473.64130	         9.37004e+57
          1474.44760	         1.00711e+58
          1475.25390	         9.62787e+57
          1476.06020	         8.08621e+57
          1476.86650	         7.53403e+57
          1477.67280	         7.75414e+57
          1478.47910	         6.90554e+57
          1479.28540	         6.66511e+57
          1480.09170	         8.32117e+57
          1480.89800	         8.84461e+57
          1481.70430	         8.11181e+57
          1482.51060	         7.14237e+57
          1483.31690	         7.35688e+57
          1484.12320	         7.64047e+57
          1484.92950	         8.45241e+57
          1485.73580	         8.33311e+57
          1486.54210	         8.99646e+57
          1487.34840	         9.48560e+57
          1488.15470	         8.79606e+57
          1488.96100	         9.19009e+57
          1489.76730	         1.00324e+58
          1490.57360	         9.28437e+57
          1491.37990	         7.06721e+57
          1492.18620	         6.81714e+57
          1492.99250	         7.17539e+57
          1493.79880	         8.07052e+57
          1494.60510	         8.56896e+57
          1495.41140	         8.43283e+57
          1496.21770	         8.70194e+57
          1497.02400	         1.04503e+58
          1497.83030	         9.22404e+57
          1498.63660	         7.22011e+57
          1499.44290	         7.11904e+57
          1500.24920	         8.09741e+57
          1501.05550	         8.97092e+57
          1501.86180	         8.56512e+57
          1502.66810	         8.59468e+57
          1503.47440	         7.78079e+57
          1504.28070	         8.66928e+57
          1505.08700	         1.07259e+58
          1505.89330	         9.66305e+57
          1506.69960	         8.76467e+57
          1507.50590	         8.88114e+57
          1508.31220	         7.90524e+57
          1509.11850	         8.19512e+57
          1509.92480	         9.54043e+57
          1510.73110	         9.57894e+57
          1511.53740	         7.64774e+57
          1512.34370	         6.56266e+57
          1513.15000	         8.84094e+57
          1513.95630	         9.70374e+57
          1514.76260	         9.38974e+57
          1515.56890	         8.46183e+57
          1516.37520	         7.64979e+57
          1517.18150	         8.15148e+57
          1517.98780	         7.56997e+57
          1518.79410	         8.02217e+57
          1519.60040	         8.75138e+57
          1520.40670	         9.59549e+57
          1521.21300	         9.00748e+57
          1522.01930	         8.05053e+57
          1522.82560	         8.91558e+57
          1523.63190	         1.03900e+58
          1524.43820	         8.93387e+57
          1525.24450	         6.59381e+57
          1526.05080	         6.39681e+57
          1526.85710	         5.99845e+57
          1527.66340	         6.32489e+57
          1528.46970	         7.41261e+57
          1529.27600	         7.86066e+57
          1530.08230	         7.63092e+57
          1530.88860	         7.31239e+57
          1531.69490	         8.84611e+57
          1532.50120	         1.00038e+58
          1533.30750	         1.03105e+58
          1534.11380	         9.85438e+57
          1534.92010	         9.37625e+57
          1535.72640	         8.76897e+57
          1536.53270	         8.71594e+57
          1537.33900	         8.74259e+57
          1538.14530	         9.00810e+57
          1538.95160	         9.82754e+57
          1539.75790	         8.89267e+57
          1540.56420	         8.19375e+57
          1541.37050	         8.27617e+57
          1542.17680	         7.41654e+57
          1542.98310	         7.27273e+57
          1543.78940	         8.17044e+57
          1544.59570	         6.84963e+57
          1545.40200	         7.56888e+57
          1546.20830	         9.69764e+57
          1547.01460	         1.04629e+58
          1547.82090	         1.09648e+58
          1548.62720	         1.10629e+58
          1549.43350	         1.08099e+58
          1550.23980	         9.83242e+57
          1551.04610	         1.12563e+58
          1551.85240	         1.21506e+58
          1552.65870	         1.16377e+58
          1553.46500	         1.04841e+58
          1554.27130	         9.28524e+57
          1555.07760	         9.98539e+57
          1555.88390	         9.55196e+57
          1556.69020	         9.63718e+57
          1557.49650	         9.78596e+57
          1558.30280	         8.83992e+57
          1559.10910	         8.51301e+57
          1559.91540	         8.80987e+57
          1560.72170	         9.59081e+57
          1561.52800	         8.39929e+57
          1562.33430	         8.21833e+57
          1563.14060	         8.09786e+57
          1563.94690	         8.05936e+57
          1564.75320	         8.02652e+57
          1565.55950	         6.85820e+57
          1566.36580	         7.06841e+57
          1567.17210	         9.19315e+57
          1567.97840	         9.24167e+57
          1568.78470	         8.26410e+57
          1569.59100	         8.84085e+57
          1570.39730	         8.22689e+57
          1571.20360	         7.38213e+57
          1572.00990	         7.17970e+57
          1572.81620	         8.64283e+57
          1573.62250	         1.00053e+58
          1574.42880	         9.32167e+57
          1575.23510	         8.22376e+57
          1576.04140	         8.20411e+57
          1576.84770	         8.92515e+57
          1577.65400	         9.44464e+57
          1578.46030	         9.57925e+57
          1579.26660	         1.07238e+58
          1580.07290	         9.60630e+57
          1580.87920	         7.98673e+57
          1581.68550	         7.37383e+57
          1582.49180	         7.49122e+57
          1583.29810	         7.21540e+57
          1584.10440	         7.43972e+57
          1584.91070	         7.36738e+57
          1585.71700	         8.00711e+57
          1586.52330	         8.91389e+57
          1587.32960	         8.69476e+57
          1588.13590	         9.12981e+57
          1588.94220	         8.72890e+57
          1589.74850	         9.70552e+57
          1590.55480	         9.68386e+57
          1591.36110	         8.98443e+57
          1592.16740	         8.40820e+57
          1592.97370	         7.82403e+57
          1593.78000	         8.33198e+57
          1594.58630	         9.48569e+57
          1595.39260	         8.87070e+57
          1596.19890	         9.49163e+57
          1597.00520	         9.24344e+57
          1597.81150	         8.45247e+57
          1598.61780	         8.44861e+57
          1599.42410	         7.24523e+57
          1600.23040	         6.93389e+57
          1601.03670	         7.35307e+57
          1601.84300	         6.59553e+57
          1602.64930	         7.18286e+57
          1603.45560	         8.39839e+57
          1604.26190	         8.17234e+57
          1605.06820	         7.74143e+57
          1605.87450	         8.02568e+57
          1606.68080	         7.66314e+57
          1607.48710	         5.51622e+57
          1608.29340	         5.48110e+57
          1609.09970	         7.47484e+57
          1609.90600	         8.41406e+57
          1610.71230	         8.60207e+57
          1611.51860	         8.13737e+57
          1612.32490	         6.96299e+57
          1613.13120	         7.84240e+57
          1613.93750	         9.03224e+57
          1614.74380	         8.93676e+57
          1615.55010	         8.69972e+57
          1616.35640	         1.00006e+58
          1617.16270	         1.13214e+58
          1617.96900	         1.12880e+58
          1618.77530	         9.46792e+57
          1619.58160	         8.30207e+57
          1620.38790	         8.12464e+57
          1621.19420	         8.73375e+57
          1622.00050	         8.29255e+57
          1622.80680	         8.92891e+57
          1623.61310	         8.39087e+57
          1624.41940	         8.60301e+57
          1625.22570	         9.81257e+57
          1626.03200	         8.57094e+57
          1626.83830	         8.31257e+57
          1627.64460	         7.21813e+57
          1628.45090	         7.32922e+57
          1629.25720	         8.51714e+57
          1630.06350	         8.18985e+57
          1630.86980	         6.60766e+57
          1631.67610	         7.80976e+57
          1632.48240	         7.53550e+57
          1633.28870	         7.20864e+57
          1634.09500	         8.35778e+57
          1634.90130	         1.07311e+58
          1635.70760	         9.13239e+57
          1636.51390	         7.38371e+57
          1637.32020	         7.35691e+57
          1638.12650	         7.65657e+57
          1638.93280	         7.66645e+57
          1639.73910	         9.42481e+57
          1640.54540	         1.03437e+58
          1641.35170	         8.65534e+57
          1642.15800	         8.40791e+57
          1642.96430	         9.15378e+57
          1643.77060	         9.76140e+57
          1644.57690	         8.63586e+57
          1645.38320	         8.36443e+57
          1646.18950	         7.62487e+57
          1646.99580	         8.64564e+57
          1647.80210	         8.37037e+57
          1648.60840	         7.81952e+57
          1649.41470	         8.55434e+57
          1650.22100	         7.45454e+57
          1651.02730	         7.85983e+57
          1651.83360	         7.69742e+57
          1652.63990	         8.16131e+57
          1653.44620	         9.94882e+57
          1654.25250	         7.57126e+57
          1655.05880	         6.79911e+57
          1655.86510	         8.20592e+57
          1656.67140	         8.69237e+57
          1657.47770	         8.62587e+57
          1658.28400	         8.76653e+57
          1659.09030	         9.11102e+57
          1659.89660	         9.40188e+57
          1660.70290	         1.03626e+58
          1661.50920	         9.81943e+57
          1662.31550	         8.96361e+57
          1663.12180	         8.46789e+57
          1663.92810	         9.28841e+57
          1664.73440	         1.07075e+58
          1665.54070	         1.20745e+58
          1666.34700	         1.30245e+58
          1667.15330	         1.17744e+58
          1667.95960	         9.06232e+57
          1668.76590	         7.68339e+57
          1669.57220	         7.19547e+57
          1670.37850	         8.19228e+57
          1671.18480	         8.75121e+57
          1671.99110	         8.13041e+57
          1672.79740	         7.08896e+57
          1673.60370	         6.76889e+57
          1674.41000	         6.97901e+57
          1675.21630	         6.97196e+57
          1676.02260	         6.32672e+57
          1676.82890	         6.45921e+57
          1677.63520	         7.42817e+57
          1678.44150	         7.75776e+57
          1679.24780	         8.83832e+57
          1680.05410	         8.21545e+57
          1680.86040	         6.74007e+57
          1681.66670	         7.15875e+57
          1682.47300	         7.92475e+57
          1683.27930	         8.87158e+57
          1684.08560	         8.53177e+57
          1684.89190	         6.92955e+57
          1685.69820	         5.06652e+57
          1686.50450	         4.79698e+57
          1687.31080	         6.90074e+57
          1688.11710	         8.68812e+57
          1688.92340	         7.87347e+57
          1689.72970	         7.42849e+57
          1690.53600	         6.19655e+57
          1691.34230	         6.78874e+57
          1692.14860	         7.53823e+57
          1692.95490	         7.37904e+57
          1693.76120	         7.25103e+57
          1694.56750	         7.39515e+57
          1695.37380	         7.87863e+57
          1696.18010	         8.41366e+57
          1696.98640	         8.55644e+57
          1697.79270	         7.82169e+57
          1698.59900	         8.42300e+57
          1699.40530	         6.75312e+57
          1700.21160	         6.54933e+57
          1701.01790	         8.01006e+57
          1701.82420	         7.09822e+57
          1702.63050	         8.06884e+57
          1703.43680	         7.86107e+57
          1704.24310	         7.42842e+57
          1705.04940	         7.54836e+57
          1705.85570	         7.26392e+57
          1706.66200	         8.18717e+57
          1707.46830	         7.47546e+57
          1708.27460	         6.97618e+57
          1709.08090	         7.36677e+57
          1709.88720	         6.66307e+57
          1710.69350	         7.03164e+57
          1711.49980	         7.07796e+57
          1712.30610	         7.67280e+57
          1713.11240	         9.28483e+57
          1713.91870	         7.75551e+57
          1714.72500	         7.58228e+57
          1715.53130	         8.78561e+57
          1716.33760	         8.56071e+57
          1717.14390	         8.08667e+57
          1717.95020	         8.51906e+57
          1718.75650	         7.74931e+57
          1719.56280	         7.59002e+57
          1720.36910	         7.37570e+57
          1721.17540	         7.50879e+57
          1721.98170	         6.66807e+57
          1722.78800	         6.53896e+57
          1723.59430	         7.90754e+57
          1724.40060	         8.39209e+57
          1725.20690	         7.97410e+57
          1726.01320	         8.01083e+57
          1726.81950	         8.28388e+57
          1727.62580	         7.64495e+57
          1728.43210	         7.35503e+57
          1729.23840	         8.11410e+57
          1730.04470	         8.52597e+57
          1730.85100	         8.50536e+57
          1731.65730	         8.60947e+57
          1732.46360	         7.58370e+57
          1733.26990	         6.95964e+57
          1734.07620	         7.08513e+57
          1734.88250	         7.77603e+57
          1735.68880	         6.89190e+57
          1736.49510	         8.32006e+57
          1737.30140	         8.46592e+57
          1738.10770	         7.18897e+57
          1738.91400	         8.05673e+57
          1739.72030	         7.98269e+57
          1740.52660	         7.15843e+57
          1741.33290	         6.39930e+57
          1742.13920	         5.57238e+57
          1742.94550	         6.44581e+57
          1743.75180	         6.81725e+57
          1744.55810	         6.28579e+57
          1745.36440	         7.83164e+57
          1746.17070	         7.02388e+57
          1746.97700	         6.05492e+57
          1747.78330	         6.89706e+57
          1748.58960	         7.26124e+57
          1749.39590	         7.03385e+57
          1750.20220	         6.38360e+57
          1751.00850	         6.43711e+57
          1751.81480	         6.94594e+57
          1752.62110	         6.61011e+57
          1753.42740	         7.60615e+57
          1754.23370	         6.76076e+57
          1755.04000	         6.62447e+57
          1755.84630	         7.16581e+57
          1756.65260	         7.95411e+57
          1757.45890	         8.90506e+57
          1758.26520	         8.35503e+57
          1759.07150	         8.72325e+57
          1759.87780	         9.11597e+57
          1760.68410	         8.98010e+57
          1761.49040	         8.84014e+57
          1762.29670	         7.75890e+57
          1763.10300	         8.03517e+57
          1763.90930	         8.33340e+57
          1764.71560	         7.86505e+57
          1765.52190	         7.67812e+57
          1766.32820	         8.72841e+57
          1767.13450	         6.99782e+57
          1767.94080	         6.68907e+57
          1768.74710	         7.54009e+57
          1769.55340	         7.58420e+57
          1770.35970	         6.72051e+57
          1771.16600	         7.78218e+57
          1771.97230	         8.31927e+57
          1772.77860	         7.74210e+57
          1773.58490	         7.22213e+57
          1774.39120	         6.11623e+57
          1775.19750	         6.02079e+57
          1776.00380	         7.11841e+57
          1776.81010	         7.18095e+57
          1777.61640	         7.49025e+57
          1778.42270	         6.92233e+57
          1779.22900	         6.55929e+57
          1780.03530	         6.47454e+57
          1780.84160	         7.52702e+57
          1781.64790	         8.12554e+57
          1782.45420	         7.21053e+57
          1783.26050	         6.68103e+57
          1784.06680	         6.67816e+57
          1784.87310	         7.45255e+57
          1785.67940	         8.02960e+57
          1786.48570	         7.76351e+57
          1787.29200	         6.69529e+57
          1788.09830	         6.33103e+57
          1788.90460	         6.62902e+57
          1789.71090	         6.38933e+57
          1790.51720	         4.86806e+57
          1791.32350	         6.64985e+57
          1792.12980	         8.21987e+57
          1792.93610	         8.01771e+57
          1793.74240	         7.61502e+57
          1794.54870	         8.58230e+57
          1795.35500	         8.46479e+57
          1796.16130	         7.72678e+57
          1796.96760	         6.40070e+57
          1797.77390	         7.06338e+57
          1798.58020	         7.08555e+57
          1799.38650	         6.52555e+57
          1800.19280	         8.06286e+57
          1800.99910	         8.91503e+57
          1801.80540	         8.79568e+57
          1802.61170	         7.95119e+57
          1803.41800	         8.65104e+57
          1804.22430	         7.90960e+57
          1805.03060	         7.28117e+57
          1805.83690	         7.91455e+57
          1806.64320	         7.01273e+57
          1807.44950	         7.14102e+57
          1808.25580	         7.08731e+57
          1809.06210	         7.67801e+57
          1809.86840	         6.29400e+57
          1810.67470	         6.99009e+57
          1811.48100	         8.76132e+57
          1812.28730	         8.10121e+57
          1813.09360	         7.84255e+57
          1813.89990	         8.97946e+57
          1814.70620	         8.43630e+57
          1815.51250	         8.92994e+57
          1816.31880	         8.72483e+57
          1817.12510	         7.90588e+57
          1817.93140	         7.60953e+57
          1818.73770	         7.21391e+57
          1819.54400	         8.22015e+57
          1820.35030	         8.35582e+57
          1821.15660	         6.09286e+57
          1821.96290	         6.83261e+57
          1822.76920	         7.64549e+57
          1823.57550	         7.12793e+57
          1824.38180	         7.31194e+57
          1825.18810	         7.20061e+57
          1825.99440	         8.14136e+57
          1826.80070	         8.42384e+57
          1827.60700	         6.36632e+57
          1828.41330	         6.03249e+57
          1829.21960	         6.30782e+57
          1830.02590	         7.38272e+57
          1830.83220	         7.73101e+57
          1831.63850	         7.27578e+57
          1832.44480	         6.97363e+57
          1833.25110	         8.10076e+57
          1834.05740	         8.15397e+57
          1834.86370	         7.60597e+57
          1835.67000	         6.09377e+57
          1836.47630	         7.87174e+57
          1837.28260	         8.97236e+57
          1838.08890	         9.01357e+57
          1838.89520	         8.57892e+57
          1839.70150	         8.27877e+57
          1840.50780	         8.01383e+57
          1841.31410	         6.66763e+57
          1842.12040	         7.10041e+57
          1842.92670	         6.45592e+57
          1843.73300	         6.23029e+57
          1844.53930	         6.80047e+57
          1845.34560	         6.88766e+57
          1846.15190	         6.71886e+57
          1846.95820	         7.64855e+57
          1847.76450	         7.50002e+57
          1848.57080	         5.76586e+57
          1849.37710	         6.26075e+57
          1850.18340	         6.73716e+57
          1850.98970	         7.95345e+57
          1851.79600	         8.63468e+57
          1852.60230	         7.79351e+57
          1853.40860	         8.00474e+57
          1854.21490	         7.69794e+57
          1855.02120	         5.77498e+57
          1855.82750	         3.82672e+57
          1856.63380	         5.06776e+57
          1857.44010	         5.93197e+57
          1858.24640	         7.19950e+57
          1859.05270	         7.76201e+57
          1859.85900	         5.62278e+57
          1860.66530	         6.58854e+57
          1861.47160	         7.08548e+57
          1862.27790	         7.06847e+57
          1863.08420	         9.11919e+57
          1863.89050	         9.04705e+57
          1864.69680	         7.39024e+57
          1865.50310	         6.88172e+57
          1866.30940	         5.86484e+57
          1867.11570	         5.41191e+57
          1867.92200	         6.44178e+57
          1868.72830	         7.44276e+57
          1869.53460	         7.24622e+57
          1870.34090	         7.32915e+57
          1871.14720	         8.28314e+57
          1871.95350	         7.18574e+57
          1872.75980	         7.12664e+57
          1873.56610	         7.14160e+57
          1874.37240	         6.12805e+57
          1875.17870	         5.22799e+57
          1875.98500	         7.18497e+57
          1876.79130	         8.75403e+57
          1877.59760	         7.29012e+57
          1878.40390	         6.11984e+57
          1879.21020	         5.58660e+57
          1880.01650	         7.15238e+57
          1880.82280	         9.03125e+57
          1881.62910	         8.70808e+57
          1882.43540	         1.02444e+58
          1883.24170	         8.03968e+57
          1884.04800	         7.05546e+57
          1884.85430	         6.76060e+57
          1885.66060	         6.96476e+57
          1886.46690	         7.54050e+57
          1887.27320	         7.95443e+57
          1888.07950	         6.12242e+57
          1888.88580	         6.47212e+57
          1889.69210	         8.66964e+57
          1890.49840	         8.43478e+57
          1891.30470	         7.18024e+57
          1892.11100	         8.56629e+57
          1892.91730	         7.84934e+57
          1893.72360	         7.88200e+57
          1894.52990	         6.91908e+57
          1895.33620	         6.31308e+57
          1896.14250	         6.62894e+57
          1896.94880	         6.35258e+57
          1897.75510	         5.69990e+57
          1898.56140	         6.51338e+57
          1899.36770	         7.24379e+57
          1900.17400	         6.26317e+57
          1900.98030	         6.60157e+57
          1901.78660	         7.70567e+57
          1902.59290	         7.46590e+57
          1903.39920	         8.60392e+57
          1904.20550	         9.11118e+57
          1905.01180	         8.61044e+57
          1905.81810	         9.88964e+57
          1906.62440	         1.19611e+58
          1907.43070	         1.49969e+58
          1908.23700	         1.59474e+58
          1909.04330	         1.32354e+58
          1909.84960	         1.19745e+58
          1910.65590	         1.08279e+58
          1911.46220	         9.59612e+57
          1912.26850	         7.73755e+57
          1913.07480	         6.25999e+57
          1913.88110	         5.41832e+57
          1914.68740	         5.66104e+57
          1915.49370	         5.78543e+57
          1916.30000	         6.15206e+57
          1917.10630	         6.20636e+57
          1917.91260	         6.71387e+57
          1918.71890	         7.14615e+57
          1919.52520	         6.59720e+57
          1920.33150	         5.21406e+57
          1921.13780	         6.56070e+57
          1921.94410	         8.08679e+57
          1922.75040	         7.83774e+57
          1923.55670	         7.35836e+57
          1924.36300	         6.88676e+57
          1925.16930	         5.30446e+57
          1925.97560	         4.66431e+57
          1926.78190	         4.07670e+57
          1927.58820	         5.88199e+57
          1928.39450	         6.89087e+57
          1929.20080	         5.82908e+57
          1930.00710	         6.97115e+57
          1930.81340	         8.57820e+57
          1931.61970	         6.47911e+57
          1932.42600	         5.67654e+57
          1933.23230	         7.82667e+57
          1934.03860	         7.00118e+57
          1934.84490	         6.04906e+57
          1935.65120	         8.52693e+57
          1936.45750	         9.34293e+57
          1937.26380	         7.41191e+57
          1938.07010	         8.24870e+57
          1938.87640	         7.79529e+57
          1939.68270	         7.12515e+57
          1940.48900	         6.46075e+57
          1941.29530	         7.06059e+57
          1942.10160	         7.98571e+57
          1942.90790	         7.53007e+57
          1943.71420	         5.85104e+57
          1944.52050	         5.69336e+57
          1945.32680	         5.80150e+57
          1946.13310	         7.02149e+57
          1946.93940	         7.46615e+57
          1947.74570	         7.16450e+57
          1948.55200	         6.48062e+57
          1949.35830	         6.38316e+57
          1950.16460	         5.85315e+57
          1950.97090	         5.87435e+57
          1951.77720	         7.41054e+57
          1952.58350	         7.99764e+57
          1953.38980	         6.81966e+57
          1954.19610	         5.18760e+57
          1955.00240	         4.57390e+57
          1955.80870	         5.99479e+57
          1956.61500	         6.45373e+57
          1957.42130	         6.29638e+57
          1958.22760	         7.00391e+57
          1959.03390	         6.88340e+57
          1959.84020	         7.05698e+57
          1960.64650	         6.98079e+57
          1961.45280	         6.72318e+57
          1962.25910	         5.88355e+57
          1963.06540	         6.10998e+57
          1963.87170	         6.09495e+57
          1964.67800	         6.56185e+57
          1965.48430	         6.07971e+57
          1966.29060	         5.18201e+57
          1967.09690	         7.89476e+57
          1967.90320	         6.77642e+57
          1968.70950	         6.99207e+57
          1969.51580	         6.69166e+57
          1970.32210	         6.66863e+57
          1971.12840	         7.14365e+57
          1971.93470	         5.03934e+57
          1972.74100	         4.51841e+57
          1973.54730	         5.88253e+57
          1974.35360	         7.26722e+57
          1975.15990	         7.94278e+57
          1975.96620	         7.34946e+57
          1976.77250	         7.89654e+57
          1977.57880	         8.29578e+57
          1978.38510	         6.87568e+57
          1979.19140	         6.35066e+57
          1979.99770	         7.48907e+57
          1980.80400	         7.70635e+57
          1981.61030	         6.41568e+57
          1982.41660	         6.78242e+57
          1983.22290	         6.77287e+57
          1984.02920	         6.01997e+57
          1984.83550	         5.91294e+57
          1985.64180	         5.60207e+57
          1986.44810	         6.30931e+57
          1987.25440	         5.69970e+57
          1988.06070	         5.27182e+57
          1988.86700	         6.25646e+57
          1989.67330	         7.94690e+57
          1990.47960	         7.19963e+57
          1991.28590	         6.78826e+57
          1992.09220	         6.88848e+57
          1992.89850	         6.26329e+57
          1993.70480	         6.21044e+57
          1994.51110	         5.56636e+57
          1995.31740	         4.78937e+57
          1996.12370	         5.58645e+57
          1996.93000	         5.35868e+57
          1997.73630	         6.03525e+57
          1998.54260	         7.30126e+57
          1999.34890	         7.31218e+57
          2000.15520	         6.73649e+57
          2000.96150	         6.32414e+57
          2001.76780	         6.14213e+57
          2002.57410	         4.37881e+57
          2003.38040	         5.49186e+57
          2004.18670	         7.06628e+57
          2004.99300	         7.42168e+57
          2005.79930	         7.19277e+57
          2006.60560	         5.84585e+57
          2007.41190	         5.25009e+57
          2008.21820	         6.18245e+57
          2009.02450	         6.06634e+57
          2009.83080	         5.80108e+57
          2010.63710	         6.04705e+57
          2011.44340	         6.95824e+57
          2012.24970	         8.06307e+57
          2013.05600	         7.18978e+57
          2013.86230	         6.47882e+57
          2014.66860	         6.92971e+57
          2015.47490	         6.17891e+57
          2016.28120	         5.89068e+57
          2017.08750	         6.22564e+57
          2017.89380	         6.23184e+57
          2018.70010	         5.75237e+57
          2019.50640	         6.00727e+57
          2020.31270	         7.09548e+57
          2021.11900	         6.11480e+57
          2021.92530	         6.43780e+57
          2022.73160	         7.35922e+57
          2023.53790	         6.17734e+57
          2024.34420	         5.91923e+57
          2025.15050	         5.83185e+57
          2025.95680	         5.66542e+57
          2026.76310	         5.77536e+57
          2027.56940	         5.65700e+57
          2028.37570	         6.81714e+57
          2029.18200	         6.19898e+57
          2029.98830	         5.26360e+57
          2030.79460	         5.42933e+57
          2031.60090	         4.92598e+57
          2032.40720	         4.65867e+57
          2033.21350	         3.89180e+57
          2034.01980	         5.26792e+57
          2034.82610	         4.18690e+57
          2035.63240	         4.77976e+57
          2036.43870	         5.04828e+57
          2037.24500	         5.65785e+57
          2038.05130	         6.31035e+57
          2038.85760	         4.82153e+57
          2039.66390	         6.10064e+57
          2040.47020	         6.07930e+57
          2041.27650	         6.85560e+57
          2042.08280	         5.65529e+57
          2042.88910	         5.86513e+57
          2043.69540	         6.69224e+57
          2044.50170	         6.51440e+57
          2045.30800	         5.06655e+57
          2046.11430	         4.59815e+57
          2046.92060	         5.29606e+57
          2047.72690	         6.57128e+57
          2048.53320	         6.03609e+57
          2049.33950	         4.51321e+57
          2050.14580	         3.43317e+57
          2050.95210	         5.80846e+57
          2051.75840	         6.86144e+57
          2052.56470	         6.21162e+57
          2053.37100	         5.15511e+57
          2054.17730	         4.85433e+57
          2054.98360	         5.69024e+57
          2055.78990	         4.49955e+57
          2056.59620	         3.44542e+57
          2057.40250	         5.16529e+57
          2058.20880	         6.32679e+57
          2059.01510	         5.05019e+57
          2059.82140	         6.59755e+57
          2060.62770	         1.09761e+58
          2061.43400	         1.59740e+58
          2062.24030	         1.05447e+58
          2063.04660	         4.90842e+57
          2063.85290	         2.59564e+57
          2064.65920	        -1.46758e+57
          2065.46550	        -9.40518e+57
          2066.27180	        -8.50975e+57
          2067.07810	         3.80581e+57
          2067.88440	         6.19842e+57
          2068.69070	         5.14785e+57
          2069.49700	         4.53119e+57
          2070.30330	         3.29980e+57
          2071.10960	         6.38585e+57
          2071.91590	         7.91236e+57
          2072.72220	         4.72446e+57
          2073.52850	         5.79757e+57
          2074.33480	         5.38687e+57
          2075.14110	         5.46666e+57
          2075.94740	         4.24224e+57
          2076.75370	         4.71485e+57
          2077.56000	         5.84924e+57
          2078.36630	         5.14979e+57
          2079.17260	         3.89653e+57
          2079.97890	         5.42573e+57
          2080.78520	         6.04595e+57
          2081.59150	         5.61051e+57
          2082.39780	         4.36257e+57
          2083.20410	         2.71970e+57
          2084.01040	         2.54715e+57
          2084.81670	         4.18938e+57
          2085.62300	         4.44755e+57
          2086.42930	         3.65889e+57
          2087.23560	         2.47472e+57
          2088.04190	         3.24187e+57
          2088.84820	         3.99222e+57
          2089.65450	         2.84784e+57
          2090.46080	         1.04491e+57
          2091.26710	         1.74543e+57
          2092.07340	         3.02718e+57
          2092.87970	         3.66723e+57
          2093.68600	         1.09366e+57
          2094.49230	         1.14860e+57
          2095.29860	         3.63162e+57
          2096.10490	         3.76127e+57
          2096.91120	         1.78299e+56
          2097.71750	        -4.36554e+56
          2098.52380	         2.89786e+56
          2099.33010	         6.39198e+56
          2100.13640	         8.30888e+56
          2100.94270	         2.07106e+57
          2101.74900	         3.76038e+57
          2102.55530	         2.10271e+57
          2103.36160	         2.02355e+57
          2104.16790	         4.13631e+57
          2104.97420	         2.77008e+57
          2105.78050	         8.25791e+56
          2106.58680	         1.48337e+57
          2107.39310	        -1.08728e+57
          2108.19940	         3.07016e+57
          2109.00570	        -6.03371e+55
          2109.81200	        -6.76409e+56
          2110.61830	         2.14705e+57
          2111.42460	         1.64190e+57
          2112.23090	         3.73875e+57
          2113.03720	         3.40421e+57
          2113.84350	         8.32597e+56
          2114.64980	         6.45432e+57
          2115.45610	        -2.36697e+57
          2116.26240	        -3.87801e+57
          2117.06870	        -1.39966e+57
          2117.87500	        -4.21146e+57
          2118.68130	         8.77816e+56
          2119.48760	         6.73452e+57
          2120.29390	         2.80732e+57
          2121.10020	        -3.88046e+57
          2121.90650	        -1.11925e+57
          2122.71280	         3.92348e+56
          2123.51910	         2.04562e+57
          2124.32540	         2.35259e+57
          2125.13170	         3.96023e+56
          2125.93800	         1.00123e+57
          2126.74430	        -3.48113e+57
          2127.55060	        -6.84551e+57
          2128.35690	        -2.65465e+57
          2129.16320	         3.00649e+56
          2129.96950	        -2.16119e+57
          2130.77580	        -3.53737e+56
          2131.58210	         3.59085e+57
          2132.38840	         3.90056e+56
          2133.19470	         1.94546e+57
          2134.00100	        -1.50118e+56
          2134.80730	         1.30302e+57
          2135.61360	         8.28714e+57
          2136.41990	         3.34922e+57
          2137.22620	         1.11703e+57
          2138.03250	        -4.92726e+57
          2138.83880	        -7.89000e+57
          2139.64510	        -9.10885e+57
          2140.45140	        -1.67221e+57
          2141.25770	        -8.64377e+57
          2142.06400	        -8.09598e+57
          2142.87030	         3.59139e+57
          2143.67660	         6.36033e+57
          2144.48290	         7.42406e+57
          2145.28920	         7.51582e+57
          2146.09550	        -1.23360e+58
          2146.90180	        -1.08705e+58
          2147.70810	        -6.37534e+57
          2148.51440	        -5.90234e+57
          2149.32070	        -5.98910e+57
          2150.12700	        -8.64489e+57
          2150.93330	        -5.81844e+57
          2151.73960	        -3.53851e+57
          2152.54590	        -4.92874e+57
          2153.35220	        -6.60397e+57
          2154.15850	        -1.79174e+57
          2154.96480	         1.49797e+56
          2155.77110	         3.89928e+57
          2156.57740	         1.44483e+57
          2157.38370	         1.53469e+58
          2158.19000	         4.60791e+57
          2158.99630	         2.50637e+57
          2159.80260	        -7.45971e+57
          2160.60890	        -8.43142e+57
          2161.41520	         4.24036e+57
          2162.22150	        -2.03879e+57
          2163.02780	        -3.47424e+57
          2163.83410	        -1.09425e+58
          2164.64040	        -7.53502e+57
          2165.44670	        -3.12154e+57
          2166.25300	        -7.89803e+57
          2167.05930	        -2.34556e+57
          2167.86560	        -7.91362e+57
          2168.67190	         5.67583e+56
          2169.47820	        -4.87933e+57
          2170.28450	        -9.21927e+57
          2171.09080	         6.44859e+57
          2171.89710	         3.13700e+57
          2172.70340	         6.27649e+57
          2173.50970	        -7.62659e+57
          2174.31600	        -4.14563e+57
          2175.12230	         1.67677e+57
          2175.92860	        -5.73028e+57
          2176.73490	        -1.33551e+58
          2177.54120	        -8.58567e+57
          2178.34750	        -2.08058e+57
          2179.15380	                 nan
          2179.96010	                 nan
          2180.76640	                 nan
          2181.57270	                 nan
          2182.37900	                 nan
          2183.18530	                 nan
          2183.99160	                 nan
          2184.79790	                 nan
          2185.60420	                 nan
          2186.41050	                 nan
          2187.21680	                 nan
          2188.02310	                 nan
          2188.82940	                 nan
          2189.63570	                 nan
          2190.44200	                 nan
          2191.24830	                 nan
          2192.05460	                 nan
          2192.86090	                 nan
          2193.66720	                 nan
          2194.47350	                 nan
          2195.27980	                 nan
          2196.08610	                 nan
          2196.89240	                 nan
          2197.69870	                 nan
          2198.50500	                 nan
          2199.31130	                 nan
          2200.11760	                 nan
          2200.92390	                 nan
          2201.73020	                 nan
          2202.53650	                 nan
          2203.34280	                 nan
          2204.14910	                 nan
          2204.95540	                 nan
          2205.76170	                 nan
          2206.56800	                 nan
          2207.37430	                 nan
          2208.18060	                 nan
          2208.98690	                 nan
          2209.79320	                 nan
          2210.59950	                 nan
          2211.40580	                 nan
          2212.21210	                 nan
          2213.01840	                 nan
          2213.82470	                 nan
          2214.63100	                 nan
          2215.43730	         0.00000e+00
