#sample_310_stacked_spectrum_rest_UV-bands_median_H-alpha_noDC.txt
#median Lum: 1.67868e+42
#Rest-frame wavelength (A) | Luminosity (erg/s/A)
#
          1110.00000	         0.00000e+00
          1110.80630	        -3.25504e+59
          1111.61260	         2.41213e+59
          1112.41890	         3.63038e+59
          1113.22520	         8.27727e+57
          1114.03150	        -7.84317e+58
          1114.83780	         2.13053e+59
          1115.64410	         9.79110e+58
          1116.45040	         9.68688e+58
          1117.25670	        -3.93493e+58
          1118.06300	         1.60123e+59
          1118.86930	        -3.60664e+57
          1119.67560	         7.31166e+58
          1120.48190	         9.45227e+57
          1121.28820	        -9.01771e+58
          1122.09450	        -1.29162e+58
          1122.90080	        -6.00257e+58
          1123.70710	         2.10695e+58
          1124.51340	         7.75746e+58
          1125.31970	        -2.97342e+58
          1126.12600	        -3.54621e+58
          1126.93230	        -7.26155e+58
          1127.73860	        -1.36613e+59
          1128.54490	        -4.35427e+58
          1129.35120	         2.15681e+58
          1130.15750	        -1.28347e+58
          1130.96380	         5.30972e+57
          1131.77010	         4.30920e+58
          1132.57640	         2.16501e+58
          1133.38270	         6.78552e+57
          1134.18900	         1.83326e+58
          1134.99530	         2.16802e+58
          1135.80160	         2.47778e+58
          1136.60790	         1.91682e+58
          1137.41420	        -9.64623e+57
          1138.22050	         2.75115e+58
          1139.02680	         2.88565e+58
          1139.83310	         2.01917e+58
          1140.63940	         1.76315e+58
          1141.44570	        -3.27795e+58
          1142.25200	        -6.50594e+57
          1143.05830	         1.33543e+58
          1143.86460	         2.17937e+58
          1144.67090	         2.09087e+58
          1145.47720	         1.16714e+58
          1146.28350	         1.20364e+58
          1147.08980	         2.32432e+58
          1147.89610	         8.41809e+57
          1148.70240	         1.37243e+58
          1149.50870	         3.01878e+58
          1150.31500	         2.15556e+58
          1151.12130	         1.44520e+58
          1151.92760	         9.20484e+57
          1152.73390	         1.06924e+57
          1153.54020	         1.84165e+57
          1154.34650	         2.42369e+58
          1155.15280	         2.70249e+58
          1155.95910	         1.93594e+58
          1156.76540	         1.20465e+58
          1157.57170	        -5.24355e+57
          1158.37800	        -5.44371e+57
          1159.18430	        -5.70774e+57
          1159.99060	         3.68827e+57
          1160.79690	         1.62841e+58
          1161.60320	         2.00934e+58
          1162.40950	         1.10765e+58
          1163.21580	         1.43941e+58
          1164.02210	         9.69612e+57
          1164.82840	         1.97749e+58
          1165.63470	         2.61505e+58
          1166.44100	         2.27247e+58
          1167.24730	         1.47428e+58
          1168.05360	         1.10965e+58
          1168.85990	         1.45088e+58
          1169.66620	         1.16523e+58
          1170.47250	         8.63664e+57
          1171.27880	         3.07928e+57
          1172.08510	         3.88263e+57
          1172.89140	         3.31677e+57
          1173.69770	         1.97317e+57
          1174.50400	         1.29303e+58
          1175.31030	         1.49963e+58
          1176.11660	         1.50088e+58
          1176.92290	         1.58060e+58
          1177.72920	         8.47065e+57
          1178.53550	         4.67564e+57
          1179.34180	         3.70065e+57
          1180.14810	         4.97223e+57
          1180.95440	         5.34868e+57
          1181.76070	         7.60547e+57
          1182.56700	         5.79890e+57
          1183.37330	         3.26824e+57
          1184.17960	         1.24295e+58
          1184.98590	         1.69729e+58
          1185.79220	         1.06367e+58
          1186.59850	         1.02718e+58
          1187.40480	         1.13261e+58
          1188.21110	         1.51120e+58
          1189.01740	         8.72558e+57
          1189.82370	         1.12276e+58
          1190.63000	         7.07276e+57
          1191.43630	         8.76245e+57
          1192.24260	         6.07457e+57
          1193.04890	         1.33115e+58
          1193.85520	         9.54574e+57
          1194.66150	         8.91604e+57
          1195.46780	         1.29068e+58
          1196.27410	         1.43860e+58
          1197.08040	         7.83467e+57
          1197.88670	         1.19309e+58
          1198.69300	         1.61138e+58
          1199.49930	         1.83492e+58
          1200.30560	         1.62292e+58
          1201.11190	         1.05803e+58
          1201.91820	         9.32099e+57
          1202.72450	         1.21090e+58
          1203.53080	         1.42506e+58
          1204.33710	         6.97341e+57
          1205.14340	         9.52025e+57
          1205.94970	         6.34895e+57
          1206.75600	         5.70956e+57
          1207.56230	         9.76041e+57
          1208.36860	         1.54977e+58
          1209.17490	         6.20241e+57
          1209.98120	         2.80658e+57
          1210.78750	         8.11829e+57
          1211.59380	         1.23437e+58
          1212.40010	         1.80660e+58
          1213.20640	         2.22508e+58
          1214.01270	         1.92308e+58
          1214.81900	         2.43825e+58
          1215.62530	         4.53390e+58
          1216.43160	         8.98083e+58
          1217.23790	         1.52929e+59
          1218.04420	         1.14079e+59
          1218.85050	         8.56920e+58
          1219.65680	         5.54070e+58
          1220.46310	         3.51014e+58
          1221.26940	         2.31193e+58
          1222.07570	         1.25012e+58
          1222.88200	         9.13355e+57
          1223.68830	         7.61615e+57
          1224.49460	         6.19062e+57
          1225.30090	         6.69228e+57
          1226.10720	         7.72570e+57
          1226.91350	         6.38430e+57
          1227.71980	         7.66505e+57
          1228.52610	         8.42607e+57
          1229.33240	         6.85774e+57
          1230.13870	         7.66974e+57
          1230.94500	         9.02272e+57
          1231.75130	         6.54006e+57
          1232.55760	         7.33023e+57
          1233.36390	         7.83361e+57
          1234.17020	         1.03199e+58
          1234.97650	         9.44406e+57
          1235.78280	         9.99114e+57
          1236.58910	         1.01180e+58
          1237.39540	         1.07767e+58
          1238.20170	         1.06386e+58
          1239.00800	         1.39379e+58
          1239.81430	         1.49875e+58
          1240.62060	         1.17266e+58
          1241.42690	         1.19108e+58
          1242.23320	         1.10655e+58
          1243.03950	         8.66974e+57
          1243.84580	         9.70600e+57
          1244.65210	         9.63040e+57
          1245.45840	         7.92673e+57
          1246.26470	         8.94059e+57
          1247.07100	         5.92474e+57
          1247.87730	         2.83294e+57
          1248.68360	         4.30298e+57
          1249.48990	         7.80107e+57
          1250.29620	         7.90813e+57
          1251.10250	         7.53306e+57
          1251.90880	         6.84012e+57
          1252.71510	         5.32280e+57
          1253.52140	         5.27875e+57
          1254.32770	         9.62238e+57
          1255.13400	         1.13544e+58
          1255.94030	         1.10935e+58
          1256.74660	         1.09233e+58
          1257.55290	         1.15329e+58
          1258.35920	         7.48887e+57
          1259.16550	         4.97707e+57
          1259.97180	         5.74443e+57
          1260.77810	         9.37240e+57
          1261.58440	         1.31873e+58
          1262.39070	         1.03343e+58
          1263.19700	         8.43201e+57
          1264.00330	         9.84706e+57
          1264.80960	         1.08636e+58
          1265.61590	         1.37409e+58
          1266.42220	         1.36435e+58
          1267.22850	         1.15773e+58
          1268.03480	         1.30724e+58
          1268.84110	         1.50815e+58
          1269.64740	         1.49074e+58
          1270.45370	         1.36350e+58
          1271.26000	         1.01092e+58
          1272.06630	         9.73308e+57
          1272.87260	         1.13654e+58
          1273.67890	         1.28224e+58
          1274.48520	         1.18332e+58
          1275.29150	         1.15283e+58
          1276.09780	         1.17214e+58
          1276.90410	         1.48959e+58
          1277.71040	         1.33404e+58
          1278.51670	         1.39140e+58
          1279.32300	         1.50101e+58
          1280.12930	         1.28045e+58
          1280.93560	         1.05193e+58
          1281.74190	         1.35323e+58
          1282.54820	         1.33996e+58
          1283.35450	         1.05102e+58
          1284.16080	         1.10894e+58
          1284.96710	         1.26265e+58
          1285.77340	         1.09192e+58
          1286.57970	         8.39105e+57
          1287.38600	         1.22253e+58
          1288.19230	         1.41088e+58
          1288.99860	         1.36738e+58
          1289.80490	         1.05786e+58
          1290.61120	         1.31532e+58
          1291.41750	         1.40139e+58
          1292.22380	         1.12761e+58
          1293.03010	         1.05388e+58
          1293.83640	         1.15848e+58
          1294.64270	         9.43952e+57
          1295.44900	         6.10984e+57
          1296.25530	         7.38378e+57
          1297.06160	         9.82272e+57
          1297.86790	         9.31321e+57
          1298.67420	         7.71492e+57
          1299.48050	         1.05597e+58
          1300.28680	         1.13468e+58
          1301.09310	         8.44108e+57
          1301.89940	         3.60029e+57
          1302.70570	         5.72885e+57
          1303.51200	         7.65740e+57
          1304.31830	         9.37324e+57
          1305.12460	         1.11228e+58
          1305.93090	         1.27222e+58
          1306.73720	         1.34932e+58
          1307.54350	         1.33073e+58
          1308.34980	         1.41205e+58
          1309.15610	         1.66173e+58
          1309.96240	         1.74659e+58
          1310.76870	         1.51142e+58
          1311.57500	         1.34066e+58
          1312.38130	         1.23393e+58
          1313.18760	         1.19801e+58
          1313.99390	         1.46247e+58
          1314.80020	         1.55813e+58
          1315.60650	         1.59837e+58
          1316.41280	         1.26575e+58
          1317.21910	         9.42579e+57
          1318.02540	         1.07069e+58
          1318.83170	         1.21721e+58
          1319.63800	         1.15595e+58
          1320.44430	         1.13710e+58
          1321.25060	         1.22591e+58
          1322.05690	         1.28024e+58
          1322.86320	         1.16063e+58
          1323.66950	         9.62256e+57
          1324.47580	         8.30708e+57
          1325.28210	         9.33249e+57
          1326.08840	         1.21717e+58
          1326.89470	         1.19246e+58
          1327.70100	         8.76436e+57
          1328.50730	         6.70958e+57
          1329.31360	         8.44800e+57
          1330.11990	         8.94017e+57
          1330.92620	         8.93919e+57
          1331.73250	         1.02623e+58
          1332.53880	         8.73081e+57
          1333.34510	         8.54720e+57
          1334.15140	         8.08669e+57
          1334.95770	         9.37703e+57
          1335.76400	         1.09943e+58
          1336.57030	         1.13010e+58
          1337.37660	         1.09384e+58
          1338.18290	         1.10986e+58
          1338.98920	         1.27812e+58
          1339.79550	         1.06380e+58
          1340.60180	         1.12342e+58
          1341.40810	         1.30465e+58
          1342.21440	         1.11762e+58
          1343.02070	         1.07508e+58
          1343.82700	         1.27398e+58
          1344.63330	         1.33671e+58
          1345.43960	         1.35480e+58
          1346.24590	         9.83681e+57
          1347.05220	         1.00006e+58
          1347.85850	         1.12308e+58
          1348.66480	         1.30396e+58
          1349.47110	         1.32310e+58
          1350.27740	         1.13352e+58
          1351.08370	         1.19860e+58
          1351.89000	         1.21971e+58
          1352.69630	         1.19027e+58
          1353.50260	         1.27114e+58
          1354.30890	         1.25998e+58
          1355.11520	         1.16723e+58
          1355.92150	         1.07979e+58
          1356.72780	         1.15653e+58
          1357.53410	         1.16961e+58
          1358.34040	         1.09079e+58
          1359.14670	         1.01154e+58
          1359.95300	         1.03787e+58
          1360.75930	         1.11402e+58
          1361.56560	         9.61751e+57
          1362.37190	         9.44462e+57
          1363.17820	         1.11116e+58
          1363.98450	         1.19837e+58
          1364.79080	         1.33449e+58
          1365.59710	         1.42393e+58
          1366.40340	         1.31077e+58
          1367.20970	         1.15418e+58
          1368.01600	         9.67172e+57
          1368.82230	         8.25158e+57
          1369.62860	         8.68160e+57
          1370.43490	         9.81492e+57
          1371.24120	         1.04780e+58
          1372.04750	         9.10363e+57
          1372.85380	         1.05543e+58
          1373.66010	         1.16085e+58
          1374.46640	         1.13086e+58
          1375.27270	         1.02288e+58
          1376.07900	         7.55071e+57
          1376.88530	         6.74490e+57
          1377.69160	         8.58479e+57
          1378.49790	         7.75249e+57
          1379.30420	         8.46236e+57
          1380.11050	         9.28330e+57
          1380.91680	         7.42988e+57
          1381.72310	         6.45519e+57
          1382.52940	         8.53145e+57
          1383.33570	         1.14375e+58
          1384.14200	         1.22990e+58
          1384.94830	         1.10256e+58
          1385.75460	         1.01687e+58
          1386.56090	         1.10860e+58
          1387.36720	         1.01492e+58
          1388.17350	         1.26095e+58
          1388.97980	         1.13367e+58
          1389.78610	         1.00943e+58
          1390.59240	         9.16429e+57
          1391.39870	         6.96920e+57
          1392.20500	         7.78982e+57
          1393.01130	         8.03362e+57
          1393.81760	         7.00371e+57
          1394.62390	         7.17887e+57
          1395.43020	         6.53327e+57
          1396.23650	         6.72840e+57
          1397.04280	         7.20580e+57
          1397.84910	         8.37854e+57
          1398.65540	         9.44834e+57
          1399.46170	         1.02365e+58
          1400.26800	         9.72480e+57
          1401.07430	         8.03187e+57
          1401.88060	         8.93775e+57
          1402.68690	         9.84638e+57
          1403.49320	         9.70454e+57
          1404.29950	         9.83844e+57
          1405.10580	         1.08340e+58
          1405.91210	         1.07859e+58
          1406.71840	         9.70016e+57
          1407.52470	         1.01716e+58
          1408.33100	         9.55778e+57
          1409.13730	         1.02806e+58
          1409.94360	         1.13170e+58
          1410.74990	         1.03092e+58
          1411.55620	         1.00687e+58
          1412.36250	         9.48351e+57
          1413.16880	         8.88185e+57
          1413.97510	         8.46930e+57
          1414.78140	         8.94612e+57
          1415.58770	         1.09600e+58
          1416.39400	         1.10544e+58
          1417.20030	         1.05474e+58
          1418.00660	         9.40131e+57
          1418.81290	         9.31292e+57
          1419.61920	         1.05300e+58
          1420.42550	         1.17258e+58
          1421.23180	         1.30979e+58
          1422.03810	         1.04598e+58
          1422.84440	         7.96885e+57
          1423.65070	         1.00874e+58
          1424.45700	         9.58964e+57
          1425.26330	         9.22459e+57
          1426.06960	         9.01047e+57
          1426.87590	         8.71584e+57
          1427.68220	         8.52769e+57
          1428.48850	         9.41642e+57
          1429.29480	         9.67244e+57
          1430.10110	         9.54018e+57
          1430.90740	         8.69287e+57
          1431.71370	         9.17661e+57
          1432.52000	         8.39414e+57
          1433.32630	         7.77808e+57
          1434.13260	         8.04129e+57
          1434.93890	         8.55626e+57
          1435.74520	         9.02496e+57
          1436.55150	         8.84282e+57
          1437.35780	         9.36274e+57
          1438.16410	         9.26373e+57
          1438.97040	         8.26891e+57
          1439.77670	         8.46805e+57
          1440.58300	         8.97696e+57
          1441.38930	         9.66852e+57
          1442.19560	         9.64683e+57
          1443.00190	         1.02850e+58
          1443.80820	         1.07941e+58
          1444.61450	         9.34281e+57
          1445.42080	         8.77583e+57
          1446.22710	         9.98714e+57
          1447.03340	         9.55794e+57
          1447.83970	         9.22261e+57
          1448.64600	         1.03777e+58
          1449.45230	         1.03176e+58
          1450.25860	         9.17057e+57
          1451.06490	         8.64886e+57
          1451.87120	         8.22487e+57
          1452.67750	         7.36253e+57
          1453.48380	         8.58392e+57
          1454.29010	         8.73676e+57
          1455.09640	         8.12494e+57
          1455.90270	         9.07672e+57
          1456.70900	         8.21287e+57
          1457.51530	         9.28311e+57
          1458.32160	         1.19559e+58
          1459.12790	         1.13887e+58
          1459.93420	         9.29982e+57
          1460.74050	         7.82004e+57
          1461.54680	         7.64300e+57
          1462.35310	         7.57333e+57
          1463.15940	         8.91283e+57
          1463.96570	         9.79325e+57
          1464.77200	         1.15722e+58
          1465.57830	         1.04753e+58
          1466.38460	         9.13996e+57
          1467.19090	         9.34628e+57
          1467.99720	         9.81578e+57
          1468.80350	         9.95420e+57
          1469.60980	         1.04154e+58
          1470.41610	         1.09746e+58
          1471.22240	         9.35012e+57
          1472.02870	         9.96646e+57
          1472.83500	         1.05727e+58
          1473.64130	         1.07506e+58
          1474.44760	         9.77483e+57
          1475.25390	         8.89292e+57
          1476.06020	         8.67885e+57
          1476.86650	         8.09164e+57
          1477.67280	         7.48946e+57
          1478.47910	         8.14083e+57
          1479.28540	         7.78254e+57
          1480.09170	         8.90235e+57
          1480.89800	         8.75287e+57
          1481.70430	         7.85872e+57
          1482.51060	         7.15763e+57
          1483.31690	         6.85365e+57
          1484.12320	         7.50612e+57
          1484.92950	         8.17238e+57
          1485.73580	         8.51807e+57
          1486.54210	         8.20220e+57
          1487.34840	         8.71855e+57
          1488.15470	         8.29688e+57
          1488.96100	         8.66929e+57
          1489.76730	         8.63238e+57
          1490.57360	         8.10895e+57
          1491.37990	         7.50365e+57
          1492.18620	         8.50451e+57
          1492.99250	         8.99324e+57
          1493.79880	         8.53539e+57
          1494.60510	         7.98563e+57
          1495.41140	         7.18589e+57
          1496.21770	         7.17770e+57
          1497.02400	         9.40089e+57
          1497.83030	         8.35608e+57
          1498.63660	         7.09735e+57
          1499.44290	         7.17426e+57
          1500.24920	         7.32916e+57
          1501.05550	         7.52586e+57
          1501.86180	         7.77459e+57
          1502.66810	         8.66435e+57
          1503.47440	         8.62853e+57
          1504.28070	         8.49453e+57
          1505.08700	         9.97261e+57
          1505.89330	         9.72491e+57
          1506.69960	         8.59465e+57
          1507.50590	         8.53505e+57
          1508.31220	         8.18974e+57
          1509.11850	         8.20644e+57
          1509.92480	         9.77613e+57
          1510.73110	         8.45369e+57
          1511.53740	         6.53883e+57
          1512.34370	         7.15380e+57
          1513.15000	         8.86759e+57
          1513.95630	         9.90922e+57
          1514.76260	         9.31584e+57
          1515.56890	         7.81430e+57
          1516.37520	         9.01617e+57
          1517.18150	         8.95208e+57
          1517.98780	         8.19771e+57
          1518.79410	         7.10994e+57
          1519.60040	         7.75205e+57
          1520.40670	         9.20403e+57
          1521.21300	         8.75457e+57
          1522.01930	         7.17360e+57
          1522.82560	         8.05585e+57
          1523.63190	         9.47283e+57
          1524.43820	         7.91077e+57
          1525.24450	         6.26558e+57
          1526.05080	         6.24902e+57
          1526.85710	         6.14305e+57
          1527.66340	         7.27070e+57
          1528.46970	         8.57964e+57
          1529.27600	         8.29069e+57
          1530.08230	         7.24466e+57
          1530.88860	         7.03007e+57
          1531.69490	         7.88543e+57
          1532.50120	         9.08601e+57
          1533.30750	         8.92450e+57
          1534.11380	         9.93741e+57
          1534.92010	         1.04532e+58
          1535.72640	         9.04765e+57
          1536.53270	         8.63893e+57
          1537.33900	         8.34841e+57
          1538.14530	         9.58834e+57
          1538.95160	         1.12062e+58
          1539.75790	         9.32770e+57
          1540.56420	         7.88873e+57
          1541.37050	         8.30477e+57
          1542.17680	         7.62947e+57
          1542.98310	         7.40256e+57
          1543.78940	         7.39966e+57
          1544.59570	         6.31129e+57
          1545.40200	         6.60432e+57
          1546.20830	         9.23501e+57
          1547.01460	         1.06862e+58
          1547.82090	         1.11074e+58
          1548.62720	         1.23831e+58
          1549.43350	         1.27213e+58
          1550.23980	         1.11779e+58
          1551.04610	         1.12183e+58
          1551.85240	         1.20659e+58
          1552.65870	         1.08386e+58
          1553.46500	         1.04179e+58
          1554.27130	         1.08783e+58
          1555.07760	         1.02853e+58
          1555.88390	         9.17742e+57
          1556.69020	         9.16842e+57
          1557.49650	         9.34460e+57
          1558.30280	         9.18623e+57
          1559.10910	         9.35813e+57
          1559.91540	         9.91231e+57
          1560.72170	         9.87621e+57
          1561.52800	         9.19743e+57
          1562.33430	         9.42203e+57
          1563.14060	         8.74163e+57
          1563.94690	         8.27254e+57
          1564.75320	         8.59325e+57
          1565.55950	         7.30180e+57
          1566.36580	         6.82676e+57
          1567.17210	         8.60239e+57
          1567.97840	         8.13129e+57
          1568.78470	         8.41914e+57
          1569.59100	         9.37454e+57
          1570.39730	         8.26900e+57
          1571.20360	         6.14092e+57
          1572.00990	         6.78199e+57
          1572.81620	         8.63097e+57
          1573.62250	         9.25501e+57
          1574.42880	         8.78540e+57
          1575.23510	         8.06263e+57
          1576.04140	         8.04922e+57
          1576.84770	         8.48681e+57
          1577.65400	         8.73248e+57
          1578.46030	         1.03076e+58
          1579.26660	         1.13552e+58
          1580.07290	         9.44627e+57
          1580.87920	         7.26292e+57
          1581.68550	         6.79089e+57
          1582.49180	         7.96568e+57
          1583.29810	         8.19608e+57
          1584.10440	         8.51952e+57
          1584.91070	         7.97184e+57
          1585.71700	         7.61736e+57
          1586.52330	         8.41773e+57
          1587.32960	         9.40324e+57
          1588.13590	         9.33342e+57
          1588.94220	         8.29704e+57
          1589.74850	         8.34738e+57
          1590.55480	         8.62735e+57
          1591.36110	         8.00895e+57
          1592.16740	         7.84549e+57
          1592.97370	         8.29176e+57
          1593.78000	         9.22643e+57
          1594.58630	         9.13894e+57
          1595.39260	         8.40102e+57
          1596.19890	         7.97540e+57
          1597.00520	         8.61286e+57
          1597.81150	         8.60827e+57
          1598.61780	         7.53190e+57
          1599.42410	         6.96867e+57
          1600.23040	         6.62163e+57
          1601.03670	         7.57780e+57
          1601.84300	         7.44047e+57
          1602.64930	         7.74016e+57
          1603.45560	         7.74796e+57
          1604.26190	         8.19551e+57
          1605.06820	         8.32269e+57
          1605.87450	         7.56513e+57
          1606.68080	         7.07277e+57
          1607.48710	         6.60958e+57
          1608.29340	         5.98018e+57
          1609.09970	         7.37226e+57
          1609.90600	         7.53719e+57
          1610.71230	         7.04684e+57
          1611.51860	         7.19970e+57
          1612.32490	         6.15411e+57
          1613.13120	         6.58148e+57
          1613.93750	         6.97864e+57
          1614.74380	         8.03512e+57
          1615.55010	         9.02861e+57
          1616.35640	         9.38135e+57
          1617.16270	         9.96363e+57
          1617.96900	         9.64802e+57
          1618.77530	         7.98306e+57
          1619.58160	         8.16773e+57
          1620.38790	         8.26076e+57
          1621.19420	         9.02419e+57
          1622.00050	         7.99161e+57
          1622.80680	         8.84194e+57
          1623.61310	         8.96366e+57
          1624.41940	         7.99142e+57
          1625.22570	         9.18913e+57
          1626.03200	         9.45830e+57
          1626.83830	         8.58046e+57
          1627.64460	         7.05283e+57
          1628.45090	         5.78328e+57
          1629.25720	         8.68481e+57
          1630.06350	         1.03860e+58
          1630.86980	         6.68545e+57
          1631.67610	         6.37608e+57
          1632.48240	         8.45500e+57
          1633.28870	         8.79556e+57
          1634.09500	         1.00384e+58
          1634.90130	         1.05081e+58
          1635.70760	         8.12803e+57
          1636.51390	         7.12203e+57
          1637.32020	         7.04372e+57
          1638.12650	         8.34810e+57
          1638.93280	         9.89683e+57
          1639.73910	         9.54952e+57
          1640.54540	         9.02125e+57
          1641.35170	         8.42689e+57
          1642.15800	         9.36639e+57
          1642.96430	         9.50684e+57
          1643.77060	         8.39674e+57
          1644.57690	         7.85167e+57
          1645.38320	         7.59586e+57
          1646.18950	         7.18771e+57
          1646.99580	         9.61486e+57
          1647.80210	         9.82569e+57
          1648.60840	         8.63993e+57
          1649.41470	         8.72581e+57
          1650.22100	         6.89320e+57
          1651.02730	         7.23447e+57
          1651.83360	         7.03918e+57
          1652.63990	         7.97489e+57
          1653.44620	         9.19737e+57
          1654.25250	         7.60970e+57
          1655.05880	         7.41460e+57
          1655.86510	         8.24643e+57
          1656.67140	         8.07096e+57
          1657.47770	         7.65899e+57
          1658.28400	         7.94234e+57
          1659.09030	         8.42521e+57
          1659.89660	         9.34002e+57
          1660.70290	         1.06954e+58
          1661.50920	         1.09241e+58
          1662.31550	         9.49477e+57
          1663.12180	         9.14268e+57
          1663.92810	         1.00263e+58
          1664.73440	         1.00365e+58
          1665.54070	         1.16578e+58
          1666.34700	         1.20173e+58
          1667.15330	         1.03263e+58
          1667.95960	         8.20595e+57
          1668.76590	         7.71114e+57
          1669.57220	         7.84477e+57
          1670.37850	         7.50619e+57
          1671.18480	         7.69881e+57
          1671.99110	         8.04678e+57
          1672.79740	         7.63651e+57
          1673.60370	         6.45920e+57
          1674.41000	         6.64376e+57
          1675.21630	         7.66723e+57
          1676.02260	         7.26596e+57
          1676.82890	         6.40607e+57
          1677.63520	         6.39565e+57
          1678.44150	         6.56044e+57
          1679.24780	         8.85342e+57
          1680.05410	         8.62944e+57
          1680.86040	         5.85626e+57
          1681.66670	         6.15976e+57
          1682.47300	         7.61484e+57
          1683.27930	         8.36060e+57
          1684.08560	         7.87497e+57
          1684.89190	         7.62680e+57
          1685.69820	         5.45225e+57
          1686.50450	         4.94748e+57
          1687.31080	         6.03006e+57
          1688.11710	         7.44673e+57
          1688.92340	         6.60307e+57
          1689.72970	         6.37640e+57
          1690.53600	         6.36773e+57
          1691.34230	         6.47704e+57
          1692.14860	         6.56963e+57
          1692.95490	         7.23861e+57
          1693.76120	         7.90042e+57
          1694.56750	         7.45095e+57
          1695.37380	         8.25913e+57
          1696.18010	         9.22017e+57
          1696.98640	         9.51489e+57
          1697.79270	         7.63191e+57
          1698.59900	         7.88764e+57
          1699.40530	         7.14816e+57
          1700.21160	         7.46290e+57
          1701.01790	         8.91705e+57
          1701.82420	         7.18056e+57
          1702.63050	         6.36731e+57
          1703.43680	         7.11631e+57
          1704.24310	         8.19736e+57
          1705.04940	         8.93608e+57
          1705.85570	         8.07352e+57
          1706.66200	         7.92968e+57
          1707.46830	         7.16643e+57
          1708.27460	         6.33648e+57
          1709.08090	         5.42514e+57
          1709.88720	         5.21217e+57
          1710.69350	         6.40573e+57
          1711.49980	         6.26237e+57
          1712.30610	         6.50790e+57
          1713.11240	         9.09740e+57
          1713.91870	         8.36266e+57
          1714.72500	         7.82747e+57
          1715.53130	         8.57144e+57
          1716.33760	         7.17667e+57
          1717.14390	         6.78698e+57
          1717.95020	         8.55768e+57
          1718.75650	         8.26131e+57
          1719.56280	         8.49064e+57
          1720.36910	         6.46696e+57
          1721.17540	         5.90503e+57
          1721.98170	         5.62180e+57
          1722.78800	         5.59527e+57
          1723.59430	         7.23519e+57
          1724.40060	         8.56241e+57
          1725.20690	         7.75038e+57
          1726.01320	         6.88669e+57
          1726.81950	         7.06529e+57
          1727.62580	         7.71789e+57
          1728.43210	         7.11035e+57
          1729.23840	         7.05690e+57
          1730.04470	         8.35644e+57
          1730.85100	         9.03282e+57
          1731.65730	         8.14693e+57
          1732.46360	         7.40271e+57
          1733.26990	         7.22789e+57
          1734.07620	         6.61222e+57
          1734.88250	         7.19090e+57
          1735.68880	         8.37719e+57
          1736.49510	         8.65496e+57
          1737.30140	         8.04540e+57
          1738.10770	         7.13335e+57
          1738.91400	         7.91368e+57
          1739.72030	         8.25347e+57
          1740.52660	         6.49877e+57
          1741.33290	         6.48648e+57
          1742.13920	         7.30383e+57
          1742.94550	         7.27433e+57
          1743.75180	         7.72183e+57
          1744.55810	         7.27678e+57
          1745.36440	         6.33961e+57
          1746.17070	         6.17642e+57
          1746.97700	         6.18386e+57
          1747.78330	         7.37648e+57
          1748.58960	         7.30474e+57
          1749.39590	         6.77483e+57
          1750.20220	         5.35506e+57
          1751.00850	         4.41369e+57
          1751.81480	         5.93929e+57
          1752.62110	         6.64969e+57
          1753.42740	         7.84223e+57
          1754.23370	         7.82867e+57
          1755.04000	         6.66360e+57
          1755.84630	         7.58835e+57
          1756.65260	         8.89965e+57
          1757.45890	         8.77113e+57
          1758.26520	         7.20423e+57
          1759.07150	         8.55953e+57
          1759.87780	         9.14781e+57
          1760.68410	         8.19407e+57
          1761.49040	         7.71330e+57
          1762.29670	         6.48669e+57
          1763.10300	         7.87815e+57
          1763.90930	         8.64584e+57
          1764.71560	         8.38816e+57
          1765.52190	         7.93514e+57
          1766.32820	         8.82290e+57
          1767.13450	         7.94813e+57
          1767.94080	         5.94942e+57
          1768.74710	         6.75022e+57
          1769.55340	         7.63692e+57
          1770.35970	         6.28675e+57
          1771.16600	         7.91368e+57
          1771.97230	         8.60319e+57
          1772.77860	         8.49261e+57
          1773.58490	         8.00455e+57
          1774.39120	         6.54022e+57
          1775.19750	         5.82090e+57
          1776.00380	         6.88057e+57
          1776.81010	         6.78139e+57
          1777.61640	         6.41681e+57
          1778.42270	         6.80728e+57
          1779.22900	         7.06815e+57
          1780.03530	         6.86737e+57
          1780.84160	         7.36553e+57
          1781.64790	         8.81408e+57
          1782.45420	         8.00971e+57
          1783.26050	         6.31130e+57
          1784.06680	         6.53712e+57
          1784.87310	         7.68382e+57
          1785.67940	         7.93567e+57
          1786.48570	         7.15078e+57
          1787.29200	         6.48052e+57
          1788.09830	         6.04012e+57
          1788.90460	         5.51301e+57
          1789.71090	         5.92450e+57
          1790.51720	         5.82558e+57
          1791.32350	         6.62787e+57
          1792.12980	         7.12509e+57
          1792.93610	         7.15466e+57
          1793.74240	         6.19604e+57
          1794.54870	         7.27782e+57
          1795.35500	         9.01753e+57
          1796.16130	         8.28789e+57
          1796.96760	         7.29718e+57
          1797.77390	         6.58911e+57
          1798.58020	         8.00113e+57
          1799.38650	         7.21186e+57
          1800.19280	         6.81670e+57
          1800.99910	         7.51299e+57
          1801.80540	         7.77661e+57
          1802.61170	         8.92572e+57
          1803.41800	         8.31067e+57
          1804.22430	         7.22443e+57
          1805.03060	         6.32545e+57
          1805.83690	         6.75432e+57
          1806.64320	         7.71373e+57
          1807.44950	         7.58544e+57
          1808.25580	         6.24160e+57
          1809.06210	         7.45664e+57
          1809.86840	         7.70671e+57
          1810.67470	         7.88868e+57
          1811.48100	         8.73501e+57
          1812.28730	         8.13733e+57
          1813.09360	         8.03774e+57
          1813.89990	         8.68938e+57
          1814.70620	         7.69404e+57
          1815.51250	         8.64186e+57
          1816.31880	         8.87516e+57
          1817.12510	         8.04242e+57
          1817.93140	         7.15062e+57
          1818.73770	         7.23696e+57
          1819.54400	         9.03866e+57
          1820.35030	         9.38013e+57
          1821.15660	         6.64427e+57
          1821.96290	         6.42742e+57
          1822.76920	         7.49941e+57
          1823.57550	         7.50779e+57
          1824.38180	         6.92804e+57
          1825.18810	         7.35536e+57
          1825.99440	         8.73396e+57
          1826.80070	         8.17583e+57
          1827.60700	         7.25598e+57
          1828.41330	         5.78612e+57
          1829.21960	         5.02196e+57
          1830.02590	         6.74903e+57
          1830.83220	         7.65829e+57
          1831.63850	         8.37637e+57
          1832.44480	         8.16530e+57
          1833.25110	         8.12506e+57
          1834.05740	         8.37835e+57
          1834.86370	         7.06356e+57
          1835.67000	         6.23759e+57
          1836.47630	         8.22081e+57
          1837.28260	         9.57259e+57
          1838.08890	         9.16901e+57
          1838.89520	         9.08840e+57
          1839.70150	         8.42281e+57
          1840.50780	         7.34207e+57
          1841.31410	         7.12653e+57
          1842.12040	         6.73919e+57
          1842.92670	         6.77544e+57
          1843.73300	         5.85219e+57
          1844.53930	         6.45541e+57
          1845.34560	         7.05670e+57
          1846.15190	         6.99979e+57
          1846.95820	         7.20384e+57
          1847.76450	         6.33311e+57
          1848.57080	         5.52093e+57
          1849.37710	         6.19992e+57
          1850.18340	         7.75403e+57
          1850.98970	         7.87307e+57
          1851.79600	         8.64355e+57
          1852.60230	         6.91071e+57
          1853.40860	         6.06057e+57
          1854.21490	         6.50799e+57
          1855.02120	         5.89214e+57
          1855.82750	         4.80195e+57
          1856.63380	         5.73162e+57
          1857.44010	         7.32383e+57
          1858.24640	         6.96213e+57
          1859.05270	         7.56510e+57
          1859.85900	         5.41626e+57
          1860.66530	         5.17379e+57
          1861.47160	         7.49935e+57
          1862.27790	         7.57823e+57
          1863.08420	         7.22183e+57
          1863.89050	         7.97814e+57
          1864.69680	         7.08673e+57
          1865.50310	         6.83572e+57
          1866.30940	         5.68241e+57
          1867.11570	         6.25962e+57
          1867.92200	         7.11529e+57
          1868.72830	         6.95627e+57
          1869.53460	         6.61588e+57
          1870.34090	         7.31910e+57
          1871.14720	         8.19223e+57
          1871.95350	         6.55671e+57
          1872.75980	         5.98404e+57
          1873.56610	         6.40202e+57
          1874.37240	         5.80498e+57
          1875.17870	         5.44809e+57
          1875.98500	         6.42406e+57
          1876.79130	         7.10150e+57
          1877.59760	         6.81081e+57
          1878.40390	         6.04486e+57
          1879.21020	         6.31701e+57
          1880.01650	         7.59329e+57
          1880.82280	         8.71443e+57
          1881.62910	         8.23512e+57
          1882.43540	         9.65121e+57
          1883.24170	         8.72930e+57
          1884.04800	         7.01018e+57
          1884.85430	         7.75966e+57
          1885.66060	         8.73185e+57
          1886.46690	         8.37799e+57
          1887.27320	         7.42954e+57
          1888.07950	         6.34917e+57
          1888.88580	         7.19495e+57
          1889.69210	         8.73541e+57
          1890.49840	         8.02922e+57
          1891.30470	         6.99821e+57
          1892.11100	         8.75332e+57
          1892.91730	         9.58765e+57
          1893.72360	         8.44333e+57
          1894.52990	         7.73126e+57
          1895.33620	         7.78381e+57
          1896.14250	         6.14850e+57
          1896.94880	         5.29916e+57
          1897.75510	         3.85554e+57
          1898.56140	         4.89955e+57
          1899.36770	         6.38891e+57
          1900.17400	         5.65715e+57
          1900.98030	         6.39754e+57
          1901.78660	         7.37630e+57
          1902.59290	         6.85884e+57
          1903.39920	         8.10101e+57
          1904.20550	         9.33423e+57
          1905.01180	         8.82767e+57
          1905.81810	         1.04756e+58
          1906.62440	         1.34067e+58
          1907.43070	         1.47955e+58
          1908.23700	         1.57368e+58
          1909.04330	         1.26112e+58
          1909.84960	         1.10101e+58
          1910.65590	         1.02758e+58
          1911.46220	         9.20986e+57
          1912.26850	         7.88917e+57
          1913.07480	         6.28760e+57
          1913.88110	         5.21601e+57
          1914.68740	         5.31177e+57
          1915.49370	         5.45590e+57
          1916.30000	         5.81016e+57
          1917.10630	         7.03009e+57
          1917.91260	         7.11098e+57
          1918.71890	         6.27213e+57
          1919.52520	         6.12968e+57
          1920.33150	         5.46696e+57
          1921.13780	         6.61570e+57
          1921.94410	         7.90727e+57
          1922.75040	         7.99555e+57
          1923.55670	         7.71465e+57
          1924.36300	         7.71762e+57
          1925.16930	         6.04268e+57
          1925.97560	         5.63939e+57
          1926.78190	         4.57040e+57
          1927.58820	         4.96372e+57
          1928.39450	         4.57143e+57
          1929.20080	         5.50763e+57
          1930.00710	         7.63273e+57
          1930.81340	         7.49658e+57
          1931.61970	         6.69706e+57
          1932.42600	         7.34598e+57
          1933.23230	         7.60451e+57
          1934.03860	         6.50113e+57
          1934.84490	         4.89573e+57
          1935.65120	         7.45221e+57
          1936.45750	         8.74617e+57
          1937.26380	         6.80950e+57
          1938.07010	         6.96148e+57
          1938.87640	         7.35636e+57
          1939.68270	         8.34962e+57
          1940.48900	         8.53286e+57
          1941.29530	         9.20123e+57
          1942.10160	         7.32622e+57
          1942.90790	         5.14578e+57
          1943.71420	         5.91827e+57
          1944.52050	         6.88244e+57
          1945.32680	         5.69898e+57
          1946.13310	         6.25330e+57
          1946.93940	         7.17938e+57
          1947.74570	         6.76019e+57
          1948.55200	         5.29670e+57
          1949.35830	         6.67931e+57
          1950.16460	         5.94061e+57
          1950.97090	         5.77048e+57
          1951.77720	         7.44702e+57
          1952.58350	         8.07781e+57
          1953.38980	         6.53106e+57
          1954.19610	         4.02734e+57
          1955.00240	         4.47099e+57
          1955.80870	         5.75907e+57
          1956.61500	         6.11405e+57
          1957.42130	         5.96475e+57
          1958.22760	         6.50134e+57
          1959.03390	         6.98988e+57
          1959.84020	         7.24849e+57
          1960.64650	         6.65486e+57
          1961.45280	         6.63212e+57
          1962.25910	         6.87818e+57
          1963.06540	         6.74914e+57
          1963.87170	         6.45835e+57
          1964.67800	         7.74216e+57
          1965.48430	         6.72606e+57
          1966.29060	         7.48805e+57
          1967.09690	         8.30143e+57
          1967.90320	         7.30108e+57
          1968.70950	         6.35095e+57
          1969.51580	         6.60382e+57
          1970.32210	         7.11511e+57
          1971.12840	         7.65897e+57
          1971.93470	         5.71702e+57
          1972.74100	         4.32988e+57
          1973.54730	         5.82493e+57
          1974.35360	         6.44541e+57
          1975.15990	         7.16108e+57
          1975.96620	         6.93786e+57
          1976.77250	         7.65874e+57
          1977.57880	         7.14505e+57
          1978.38510	         5.96219e+57
          1979.19140	         7.32713e+57
          1979.99770	         7.44163e+57
          1980.80400	         7.84850e+57
          1981.61030	         7.13354e+57
          1982.41660	         5.96174e+57
          1983.22290	         5.80427e+57
          1984.02920	         4.52079e+57
          1984.83550	         5.17961e+57
          1985.64180	         5.67272e+57
          1986.44810	         6.56724e+57
          1987.25440	         5.80894e+57
          1988.06070	         5.36124e+57
          1988.86700	         6.53748e+57
          1989.67330	         7.50078e+57
          1990.47960	         7.25692e+57
          1991.28590	         5.89736e+57
          1992.09220	         5.59255e+57
          1992.89850	         6.26905e+57
          1993.70480	         5.26991e+57
          1994.51110	         5.31921e+57
          1995.31740	         4.39322e+57
          1996.12370	         4.75421e+57
          1996.93000	         5.89736e+57
          1997.73630	         6.79676e+57
          1998.54260	         7.98515e+57
          1999.34890	         6.60704e+57
          2000.15520	         6.55625e+57
          2000.96150	         7.03318e+57
          2001.76780	         5.64628e+57
          2002.57410	         3.84317e+57
          2003.38040	         6.20184e+57
          2004.18670	         6.96425e+57
          2004.99300	         5.55324e+57
          2005.79930	         7.10990e+57
          2006.60560	         6.17663e+57
          2007.41190	         5.45455e+57
          2008.21820	         5.41659e+57
          2009.02450	         6.65475e+57
          2009.83080	         7.47751e+57
          2010.63710	         7.06933e+57
          2011.44340	         5.84454e+57
          2012.24970	         6.87278e+57
          2013.05600	         7.36494e+57
          2013.86230	         7.32553e+57
          2014.66860	         5.90918e+57
          2015.47490	         5.21643e+57
          2016.28120	         5.16398e+57
          2017.08750	         6.52095e+57
          2017.89380	         5.92136e+57
          2018.70010	         5.66463e+57
          2019.50640	         6.50573e+57
          2020.31270	         6.90416e+57
          2021.11900	         7.06415e+57
          2021.92530	         7.02548e+57
          2022.73160	         7.58289e+57
          2023.53790	         7.37477e+57
          2024.34420	         6.98515e+57
          2025.15050	         5.29457e+57
          2025.95680	         5.67048e+57
          2026.76310	         5.82909e+57
          2027.56940	         6.50029e+57
          2028.37570	         7.30543e+57
          2029.18200	         6.70077e+57
          2029.98830	         6.66232e+57
          2030.79460	         6.40021e+57
          2031.60090	         6.02998e+57
          2032.40720	         5.33623e+57
          2033.21350	         5.33476e+57
          2034.01980	         4.69498e+57
          2034.82610	         4.00547e+57
          2035.63240	         4.24358e+57
          2036.43870	         6.06926e+57
          2037.24500	         6.78813e+57
          2038.05130	         7.80251e+57
          2038.85760	         6.79060e+57
          2039.66390	         5.67505e+57
          2040.47020	         5.81480e+57
          2041.27650	         6.12243e+57
          2042.08280	         6.02761e+57
          2042.88910	         5.94920e+57
          2043.69540	         6.42168e+57
          2044.50170	         7.50230e+57
          2045.30800	         6.51719e+57
          2046.11430	         4.78806e+57
          2046.92060	         5.71207e+57
          2047.72690	         7.30458e+57
          2048.53320	         6.54212e+57
          2049.33950	         5.20193e+57
          2050.14580	         4.41982e+57
          2050.95210	         6.70982e+57
          2051.75840	         7.78483e+57
          2052.56470	         7.19674e+57
          2053.37100	         4.28182e+57
          2054.17730	         4.98705e+57
          2054.98360	         4.85838e+57
          2055.78990	         3.67826e+57
          2056.59620	         2.20158e+57
          2057.40250	         5.12274e+57
          2058.20880	         7.38692e+57
          2059.01510	         6.46743e+57
          2059.82140	         6.73436e+57
          2060.62770	         9.51058e+57
          2061.43400	         1.51410e+58
          2062.24030	         1.36858e+58
          2063.04660	         3.57659e+57
          2063.85290	         3.44536e+57
          2064.65920	        -1.48249e+57
          2065.46550	        -7.72292e+57
          2066.27180	        -5.72269e+57
          2067.07810	         2.54880e+57
          2067.88440	         4.14411e+57
          2068.69070	         5.55885e+57
          2069.49700	         5.01805e+57
          2070.30330	         5.04531e+57
          2071.10960	         3.90231e+57
          2071.91590	         4.91683e+57
          2072.72220	         3.79390e+57
          2073.52850	         4.87658e+57
          2074.33480	         5.19367e+57
          2075.14110	         5.25968e+57
          2075.94740	         4.54130e+57
          2076.75370	         4.93829e+57
          2077.56000	         4.93006e+57
          2078.36630	         4.49213e+57
          2079.17260	         5.25202e+57
          2079.97890	         6.23729e+57
          2080.78520	         4.82558e+57
          2081.59150	         5.02744e+57
          2082.39780	         4.53514e+57
          2083.20410	         2.36353e+57
          2084.01040	         3.32827e+57
          2084.81670	         4.46873e+57
          2085.62300	         3.81492e+57
          2086.42930	         4.63948e+57
          2087.23560	         3.85054e+57
          2088.04190	         3.56426e+57
          2088.84820	         2.62288e+57
          2089.65450	         1.94158e+57
          2090.46080	         1.20202e+57
          2091.26710	         2.43704e+57
          2092.07340	         3.12721e+57
          2092.87970	         1.31901e+57
          2093.68600	        -1.29660e+57
          2094.49230	         1.91882e+57
          2095.29860	         3.65526e+57
          2096.10490	         4.20062e+57
          2096.91120	         3.74983e+57
          2097.71750	         6.82298e+56
          2098.52380	         1.12967e+57
          2099.33010	         1.82694e+57
          2100.13640	         3.67720e+57
          2100.94270	         2.71346e+57
          2101.74900	         4.25096e+57
          2102.55530	         4.85990e+57
          2103.36160	         3.03647e+57
          2104.16790	         3.78903e+57
          2104.97420	         1.39246e+57
          2105.78050	        -1.68571e+56
          2106.58680	         1.09569e+57
          2107.39310	        -1.37259e+57
          2108.19940	         8.67297e+56
          2109.00570	         1.99708e+56
          2109.81200	        -2.54734e+57
          2110.61830	         1.46577e+57
          2111.42460	         2.27210e+57
          2112.23090	         6.14564e+56
          2113.03720	        -3.21005e+57
          2113.84350	        -1.33351e+57
          2114.64980	         3.09275e+57
          2115.45610	        -1.39806e+57
          2116.26240	        -8.23009e+55
          2117.06870	         1.09956e+57
          2117.87500	         1.48938e+57
          2118.68130	         3.04035e+57
          2119.48760	        -1.35159e+57
          2120.29390	         3.55242e+57
          2121.10020	        -2.35291e+57
          2121.90650	        -3.37574e+57
          2122.71280	        -3.59475e+57
          2123.51910	         1.71524e+57
          2124.32540	        -1.87520e+57
          2125.13170	        -3.93818e+57
          2125.93800	        -4.28026e+56
          2126.74430	         4.57868e+56
          2127.55060	        -8.53655e+57
          2128.35690	        -4.49648e+57
          2129.16320	        -2.35652e+57
          2129.96950	        -4.54540e+57
          2130.77580	        -5.64337e+57
          2131.58210	        -1.95704e+57
          2132.38840	        -5.72937e+56
          2133.19470	        -1.51099e+57
          2134.00100	         2.58068e+56
          2134.80730	        -5.74894e+57
          2135.61360	         8.19526e+57
          2136.41990	         1.52702e+57
          2137.22620	        -2.98701e+57
          2138.03250	        -1.84839e+57
          2138.83880	        -3.54958e+57
          2139.64510	        -6.51146e+57
          2140.45140	        -1.08729e+58
          2141.25770	        -9.00703e+57
          2142.06400	        -2.57533e+57
          2142.87030	         6.60222e+57
          2143.67660	         1.50453e+57
          2144.48290	         5.13824e+56
          2145.28920	         8.70842e+57
          2146.09550	        -3.37113e+57
          2146.90180	        -3.15197e+57
          2147.70810	        -5.48949e+57
          2148.51440	         3.25319e+56
          2149.32070	        -5.73181e+57
          2150.12700	        -7.94815e+57
          2150.93330	         2.65277e+57
          2151.73960	         3.35206e+57
          2152.54590	        -9.96712e+56
          2153.35220	        -2.96958e+57
          2154.15850	        -3.24151e+57
          2154.96480	        -2.65022e+57
          2155.77110	        -3.24784e+57
          2156.57740	        -1.24095e+58
          2157.38370	        -1.10039e+58
          2158.19000	        -6.40250e+57
          2158.99630	        -8.29640e+57
          2159.80260	        -1.88390e+58
          2160.60890	        -9.97159e+57
          2161.41520	         3.15854e+57
          2162.22150	         7.19758e+56
          2163.02780	        -5.83263e+57
          2163.83410	        -8.72819e+57
          2164.64040	        -7.94566e+57
          2165.44670	        -1.46138e+58
          2166.25300	        -1.37563e+58
          2167.05930	        -9.41504e+57
          2167.86560	        -9.40674e+57
          2168.67190	        -1.41725e+57
          2169.47820	        -5.93143e+57
          2170.28450	        -1.50349e+58
          2171.09080	        -6.83565e+57
          2171.89710	         2.68164e+56
          2172.70340	         1.44846e+57
          2173.50970	        -8.41618e+57
          2174.31600	        -4.81069e+57
          2175.12230	        -3.09247e+57
          2175.92860	        -4.13186e+57
          2176.73490	        -1.17679e+58
          2177.54120	        -7.87334e+57
          2178.34750	        -4.39450e+57
          2179.15380	                 nan
          2179.96010	                 nan
          2180.76640	                 nan
          2181.57270	                 nan
          2182.37900	                 nan
          2183.18530	                 nan
          2183.99160	                 nan
          2184.79790	                 nan
          2185.60420	                 nan
          2186.41050	                 nan
          2187.21680	                 nan
          2188.02310	                 nan
          2188.82940	                 nan
          2189.63570	                 nan
          2190.44200	                 nan
          2191.24830	                 nan
          2192.05460	                 nan
          2192.86090	                 nan
          2193.66720	                 nan
          2194.47350	                 nan
          2195.27980	                 nan
          2196.08610	                 nan
          2196.89240	                 nan
          2197.69870	                 nan
          2198.50500	                 nan
          2199.31130	                 nan
          2200.11760	                 nan
          2200.92390	                 nan
          2201.73020	                 nan
          2202.53650	                 nan
          2203.34280	                 nan
          2204.14910	                 nan
          2204.95540	                 nan
          2205.76170	                 nan
          2206.56800	                 nan
          2207.37430	                 nan
          2208.18060	                 nan
          2208.98690	                 nan
          2209.79320	                 nan
          2210.59950	                 nan
          2211.40580	                 nan
          2212.21210	                 nan
          2213.01840	                 nan
          2213.82470	                 nan
          2214.63100	                 nan
          2215.43730	         0.00000e+00
