#sample_352_stacked_spectrum_rest_UV-bands_median_H-alpha_noDC.txt
#median Lum: 1.71590e+42
#Rest-frame wavelength (A) | Luminosity (erg/s/A)
#
          1110.00000	         0.00000e+00
          1110.80630	        -5.22113e+59
          1111.61260	         1.78279e+58
          1112.41890	         2.60701e+59
          1113.22520	         3.47223e+58
          1114.03150	        -1.70240e+59
          1114.83780	         2.29763e+59
          1115.64410	         2.41134e+59
          1116.45040	         2.39481e+59
          1117.25670	         2.22973e+59
          1118.06300	         9.14335e+58
          1118.86930	         1.20156e+59
          1119.67560	         1.12739e+59
          1120.48190	        -1.28550e+58
          1121.28820	        -1.41610e+59
          1122.09450	        -7.14222e+58
          1122.90080	         6.09471e+57
          1123.70710	         6.47369e+58
          1124.51340	         8.02284e+58
          1125.31970	         1.10009e+58
          1126.12600	         1.60174e+58
          1126.93230	        -7.68555e+58
          1127.73860	        -8.15269e+58
          1128.54490	         2.96089e+58
          1129.35120	         1.26127e+58
          1130.15750	        -8.39745e+57
          1130.96380	        -2.73788e+58
          1131.77010	         5.33204e+58
          1132.57640	         3.21390e+58
          1133.38270	         6.25419e+58
          1134.18900	         2.53122e+58
          1134.99530	        -2.77347e+58
          1135.80160	         4.02141e+57
          1136.60790	         6.33680e+57
          1137.41420	         1.17490e+57
          1138.22050	         4.85648e+58
          1139.02680	         2.56994e+58
          1139.83310	        -2.88449e+57
          1140.63940	         1.73320e+58
          1141.44570	        -1.02542e+58
          1142.25200	         1.11296e+58
          1143.05830	         1.72337e+58
          1143.86460	         1.99474e+58
          1144.67090	         3.18392e+58
          1145.47720	         5.53940e+57
          1146.28350	        -3.34093e+57
          1147.08980	         1.38728e+58
          1147.89610	         1.99787e+58
          1148.70240	         2.08668e+58
          1149.50870	         1.40379e+58
          1150.31500	         5.04634e+57
          1151.12130	        -9.18275e+56
          1151.92760	         4.10969e+57
          1152.73390	         1.49464e+58
          1153.54020	         9.47988e+57
          1154.34650	         2.85871e+58
          1155.15280	         2.74466e+58
          1155.95910	         1.63050e+58
          1156.76540	         1.04841e+58
          1157.57170	         9.12067e+57
          1158.37800	        -6.91584e+56
          1159.18430	        -6.23369e+57
          1159.99060	         4.63165e+57
          1160.79690	         5.22851e+57
          1161.60320	         1.02090e+58
          1162.40950	         1.72845e+58
          1163.21580	         1.63229e+58
          1164.02210	         1.21775e+58
          1164.82840	         1.71921e+58
          1165.63470	         1.65821e+58
          1166.44100	         3.01162e+58
          1167.24730	         1.50815e+58
          1168.05360	         5.60453e+57
          1168.85990	         7.16096e+56
          1169.66620	         8.24081e+56
          1170.47250	         1.62590e+58
          1171.27880	         1.46919e+58
          1172.08510	         8.13522e+57
          1172.89140	         1.36506e+58
          1173.69770	         6.79320e+57
          1174.50400	         1.62541e+58
          1175.31030	         2.16757e+58
          1176.11660	         1.32708e+58
          1176.92290	         1.60983e+58
          1177.72920	         1.45353e+58
          1178.53550	         7.54985e+57
          1179.34180	         4.26775e+57
          1180.14810	         2.80827e+57
          1180.95440	         7.00535e+57
          1181.76070	         6.03163e+57
          1182.56700	         7.88767e+57
          1183.37330	         8.62504e+57
          1184.17960	         1.68853e+58
          1184.98590	         1.36182e+58
          1185.79220	         7.81700e+57
          1186.59850	         1.13090e+58
          1187.40480	         1.47256e+58
          1188.21110	         1.71240e+58
          1189.01740	         1.29932e+58
          1189.82370	         8.22083e+57
          1190.63000	         1.03800e+58
          1191.43630	         1.59767e+58
          1192.24260	         1.43072e+58
          1193.04890	         1.31247e+58
          1193.85520	         1.34680e+58
          1194.66150	         2.04067e+57
          1195.46780	         5.21925e+57
          1196.27410	         1.28064e+58
          1197.08040	         1.19683e+58
          1197.88670	         1.52606e+58
          1198.69300	         1.53433e+58
          1199.49930	         1.49712e+58
          1200.30560	         1.36511e+58
          1201.11190	         1.22938e+58
          1201.91820	         1.07497e+58
          1202.72450	         5.13445e+57
          1203.53080	         1.35092e+58
          1204.33710	         9.49982e+57
          1205.14340	         9.28052e+57
          1205.94970	         8.50318e+57
          1206.75600	         6.30222e+57
          1207.56230	         5.55759e+57
          1208.36860	         7.18769e+57
          1209.17490	         3.23173e+57
          1209.98120	         6.90204e+57
          1210.78750	         1.03424e+58
          1211.59380	         1.75648e+58
          1212.40010	         1.92464e+58
          1213.20640	         2.41789e+58
          1214.01270	         2.42941e+58
          1214.81900	         2.68169e+58
          1215.62530	         4.42619e+58
          1216.43160	         9.22364e+58
          1217.23790	         1.54213e+59
          1218.04420	         1.12268e+59
          1218.85050	         8.08581e+58
          1219.65680	         4.81436e+58
          1220.46310	         3.03156e+58
          1221.26940	         2.36061e+58
          1222.07570	         1.64752e+58
          1222.88200	         1.42172e+58
          1223.68830	         1.22508e+58
          1224.49460	         9.46453e+57
          1225.30090	         6.65980e+57
          1226.10720	         7.06557e+57
          1226.91350	         1.01082e+58
          1227.71980	         1.01507e+58
          1228.52610	         1.24886e+58
          1229.33240	         1.20856e+58
          1230.13870	         1.16259e+58
          1230.94500	         8.98792e+57
          1231.75130	         5.64999e+57
          1232.55760	         7.17824e+57
          1233.36390	         9.89849e+57
          1234.17020	         1.01813e+58
          1234.97650	         9.13830e+57
          1235.78280	         7.25572e+57
          1236.58910	         6.73397e+57
          1237.39540	         8.76154e+57
          1238.20170	         8.66298e+57
          1239.00800	         1.15129e+58
          1239.81430	         1.33980e+58
          1240.62060	         9.10195e+57
          1241.42690	         1.10554e+58
          1242.23320	         1.20634e+58
          1243.03950	         9.05611e+57
          1243.84580	         8.30811e+57
          1244.65210	         1.09305e+58
          1245.45840	         1.04325e+58
          1246.26470	         1.01583e+58
          1247.07100	         8.60684e+57
          1247.87730	         4.79357e+57
          1248.68360	         4.71663e+57
          1249.48990	         9.05771e+57
          1250.29620	         7.54937e+57
          1251.10250	         6.61861e+57
          1251.90880	         6.66365e+57
          1252.71510	         4.83641e+57
          1253.52140	         6.37379e+57
          1254.32770	         8.91417e+57
          1255.13400	         1.26682e+58
          1255.94030	         1.16903e+58
          1256.74660	         1.15392e+58
          1257.55290	         1.18052e+58
          1258.35920	         8.77510e+57
          1259.16550	         6.47262e+57
          1259.97180	         4.70361e+57
          1260.77810	         8.55986e+57
          1261.58440	         1.21632e+58
          1262.39070	         9.54554e+57
          1263.19700	         8.02891e+57
          1264.00330	         7.82434e+57
          1264.80960	         8.86259e+57
          1265.61590	         1.25983e+58
          1266.42220	         1.30454e+58
          1267.22850	         1.03000e+58
          1268.03480	         1.38686e+58
          1268.84110	         1.57796e+58
          1269.64740	         1.38481e+58
          1270.45370	         1.44305e+58
          1271.26000	         1.29577e+58
          1272.06630	         1.36241e+58
          1272.87260	         1.21348e+58
          1273.67890	         1.43560e+58
          1274.48520	         1.37607e+58
          1275.29150	         1.38575e+58
          1276.09780	         1.24518e+58
          1276.90410	         1.28049e+58
          1277.71040	         1.10766e+58
          1278.51670	         1.14447e+58
          1279.32300	         1.51247e+58
          1280.12930	         1.20640e+58
          1280.93560	         1.14707e+58
          1281.74190	         1.18053e+58
          1282.54820	         1.28395e+58
          1283.35450	         1.33699e+58
          1284.16080	         1.34049e+58
          1284.96710	         1.39138e+58
          1285.77340	         1.20290e+58
          1286.57970	         1.05425e+58
          1287.38600	         1.33991e+58
          1288.19230	         1.58289e+58
          1288.99860	         1.56403e+58
          1289.80490	         1.11945e+58
          1290.61120	         1.28589e+58
          1291.41750	         1.43098e+58
          1292.22380	         1.22753e+58
          1293.03010	         1.06933e+58
          1293.83640	         1.04011e+58
          1294.64270	         9.36357e+57
          1295.44900	         6.74520e+57
          1296.25530	         6.54191e+57
          1297.06160	         8.42187e+57
          1297.86790	         8.86279e+57
          1298.67420	         8.68458e+57
          1299.48050	         8.77262e+57
          1300.28680	         1.02093e+58
          1301.09310	         8.03051e+57
          1301.89940	         4.69372e+57
          1302.70570	         7.08081e+57
          1303.51200	         7.34116e+57
          1304.31830	         9.04125e+57
          1305.12460	         9.16846e+57
          1305.93090	         9.67371e+57
          1306.73720	         1.14291e+58
          1307.54350	         1.40722e+58
          1308.34980	         1.50105e+58
          1309.15610	         1.47893e+58
          1309.96240	         1.76499e+58
          1310.76870	         1.63328e+58
          1311.57500	         1.23582e+58
          1312.38130	         1.16343e+58
          1313.18760	         1.60839e+58
          1313.99390	         1.75719e+58
          1314.80020	         1.55976e+58
          1315.60650	         1.40966e+58
          1316.41280	         1.21151e+58
          1317.21910	         1.18431e+58
          1318.02540	         1.33249e+58
          1318.83170	         1.35496e+58
          1319.63800	         1.31411e+58
          1320.44430	         1.10929e+58
          1321.25060	         1.14348e+58
          1322.05690	         1.28478e+58
          1322.86320	         1.30969e+58
          1323.66950	         1.17984e+58
          1324.47580	         1.01355e+58
          1325.28210	         1.02394e+58
          1326.08840	         1.13749e+58
          1326.89470	         1.05720e+58
          1327.70100	         9.53171e+57
          1328.50730	         8.74501e+57
          1329.31360	         9.29483e+57
          1330.11990	         9.37260e+57
          1330.92620	         8.09095e+57
          1331.73250	         1.10930e+58
          1332.53880	         1.08446e+58
          1333.34510	         9.25309e+57
          1334.15140	         7.94267e+57
          1334.95770	         8.32903e+57
          1335.76400	         1.04244e+58
          1336.57030	         1.12147e+58
          1337.37660	         1.08689e+58
          1338.18290	         1.09551e+58
          1338.98920	         1.18902e+58
          1339.79550	         1.32660e+58
          1340.60180	         1.21021e+58
          1341.40810	         1.20213e+58
          1342.21440	         1.15667e+58
          1343.02070	         1.19630e+58
          1343.82700	         1.29697e+58
          1344.63330	         1.15113e+58
          1345.43960	         1.31213e+58
          1346.24590	         1.26930e+58
          1347.05220	         1.16915e+58
          1347.85850	         9.69189e+57
          1348.66480	         1.13229e+58
          1349.47110	         1.25557e+58
          1350.27740	         1.15805e+58
          1351.08370	         1.08140e+58
          1351.89000	         1.06796e+58
          1352.69630	         1.15990e+58
          1353.50260	         1.29641e+58
          1354.30890	         1.36194e+58
          1355.11520	         1.22837e+58
          1355.92150	         1.09310e+58
          1356.72780	         1.04962e+58
          1357.53410	         9.97051e+57
          1358.34040	         9.56920e+57
          1359.14670	         9.62783e+57
          1359.95300	         1.19964e+58
          1360.75930	         1.15016e+58
          1361.56560	         1.07169e+58
          1362.37190	         1.22699e+58
          1363.17820	         1.12148e+58
          1363.98450	         1.06738e+58
          1364.79080	         1.10153e+58
          1365.59710	         1.16571e+58
          1366.40340	         1.28461e+58
          1367.20970	         1.14304e+58
          1368.01600	         9.69181e+57
          1368.82230	         7.14744e+57
          1369.62860	         9.55654e+57
          1370.43490	         9.18454e+57
          1371.24120	         8.12002e+57
          1372.04750	         8.44158e+57
          1372.85380	         1.11096e+58
          1373.66010	         1.15487e+58
          1374.46640	         1.01708e+58
          1375.27270	         1.04863e+58
          1376.07900	         9.16100e+57
          1376.88530	         8.38565e+57
          1377.69160	         7.97922e+57
          1378.49790	         7.64208e+57
          1379.30420	         9.15341e+57
          1380.11050	         9.33748e+57
          1380.91680	         7.23783e+57
          1381.72310	         6.48221e+57
          1382.52940	         8.19582e+57
          1383.33570	         8.94887e+57
          1384.14200	         9.47461e+57
          1384.94830	         1.16290e+58
          1385.75460	         1.19115e+58
          1386.56090	         1.10751e+58
          1387.36720	         1.19569e+58
          1388.17350	         1.31501e+58
          1388.97980	         1.12377e+58
          1389.78610	         1.09086e+58
          1390.59240	         9.62875e+57
          1391.39870	         8.56077e+57
          1392.20500	         7.96150e+57
          1393.01130	         7.35414e+57
          1393.81760	         8.31165e+57
          1394.62390	         7.82658e+57
          1395.43020	         6.89738e+57
          1396.23650	         6.48713e+57
          1397.04280	         6.92434e+57
          1397.84910	         8.06901e+57
          1398.65540	         8.34101e+57
          1399.46170	         1.02506e+58
          1400.26800	         9.87401e+57
          1401.07430	         7.37590e+57
          1401.88060	         7.92664e+57
          1402.68690	         9.91831e+57
          1403.49320	         9.57168e+57
          1404.29950	         8.69849e+57
          1405.10580	         9.71548e+57
          1405.91210	         1.09032e+58
          1406.71840	         1.07746e+58
          1407.52470	         1.06163e+58
          1408.33100	         1.10474e+58
          1409.13730	         1.17628e+58
          1409.94360	         1.17700e+58
          1410.74990	         1.23439e+58
          1411.55620	         1.10533e+58
          1412.36250	         1.00136e+58
          1413.16880	         8.79968e+57
          1413.97510	         9.07977e+57
          1414.78140	         9.18595e+57
          1415.58770	         9.14018e+57
          1416.39400	         8.87771e+57
          1417.20030	         1.09455e+58
          1418.00660	         9.87769e+57
          1418.81290	         9.80645e+57
          1419.61920	         1.06939e+58
          1420.42550	         1.24544e+58
          1421.23180	         1.41422e+58
          1422.03810	         1.25684e+58
          1422.84440	         1.11075e+58
          1423.65070	         1.20340e+58
          1424.45700	         1.18549e+58
          1425.26330	         7.91087e+57
          1426.06960	         8.32642e+57
          1426.87590	         1.07959e+58
          1427.68220	         1.03252e+58
          1428.48850	         1.04637e+58
          1429.29480	         1.03602e+58
          1430.10110	         9.51644e+57
          1430.90740	         9.30661e+57
          1431.71370	         9.71219e+57
          1432.52000	         8.81429e+57
          1433.32630	         7.52397e+57
          1434.13260	         7.90498e+57
          1434.93890	         8.82782e+57
          1435.74520	         1.00976e+58
          1436.55150	         1.00159e+58
          1437.35780	         9.59446e+57
          1438.16410	         1.00806e+58
          1438.97040	         9.92780e+57
          1439.77670	         8.47664e+57
          1440.58300	         8.01589e+57
          1441.38930	         8.62461e+57
          1442.19560	         9.14272e+57
          1443.00190	         1.02117e+58
          1443.80820	         1.15508e+58
          1444.61450	         1.08996e+58
          1445.42080	         9.61699e+57
          1446.22710	         9.64605e+57
          1447.03340	         9.41862e+57
          1447.83970	         1.03336e+58
          1448.64600	         9.40506e+57
          1449.45230	         8.91679e+57
          1450.25860	         9.52056e+57
          1451.06490	         9.06910e+57
          1451.87120	         7.34737e+57
          1452.67750	         7.31731e+57
          1453.48380	         8.09118e+57
          1454.29010	         7.06622e+57
          1455.09640	         7.19834e+57
          1455.90270	         8.97727e+57
          1456.70900	         9.45892e+57
          1457.51530	         1.00392e+58
          1458.32160	         1.26296e+58
          1459.12790	         1.18495e+58
          1459.93420	         8.98904e+57
          1460.74050	         7.56440e+57
          1461.54680	         7.63874e+57
          1462.35310	         7.86509e+57
          1463.15940	         9.21136e+57
          1463.96570	         1.02602e+58
          1464.77200	         1.12714e+58
          1465.57830	         1.12169e+58
          1466.38460	         9.45277e+57
          1467.19090	         7.65841e+57
          1467.99720	         7.94229e+57
          1468.80350	         9.83423e+57
          1469.60980	         1.05376e+58
          1470.41610	         1.14386e+58
          1471.22240	         1.03505e+58
          1472.02870	         9.77760e+57
          1472.83500	         9.56402e+57
          1473.64130	         1.00474e+58
          1474.44760	         9.87454e+57
          1475.25390	         7.78374e+57
          1476.06020	         8.55119e+57
          1476.86650	         7.82840e+57
          1477.67280	         8.08428e+57
          1478.47910	         7.34276e+57
          1479.28540	         6.82534e+57
          1480.09170	         8.79520e+57
          1480.89800	         9.75352e+57
          1481.70430	         9.12209e+57
          1482.51060	         7.40130e+57
          1483.31690	         7.87536e+57
          1484.12320	         8.19188e+57
          1484.92950	         7.53971e+57
          1485.73580	         7.03756e+57
          1486.54210	         7.74242e+57
          1487.34840	         8.20489e+57
          1488.15470	         8.36218e+57
          1488.96100	         8.00531e+57
          1489.76730	         8.95334e+57
          1490.57360	         8.79650e+57
          1491.37990	         7.59010e+57
          1492.18620	         8.16815e+57
          1492.99250	         8.62438e+57
          1493.79880	         8.75817e+57
          1494.60510	         8.79340e+57
          1495.41140	         8.15585e+57
          1496.21770	         7.65526e+57
          1497.02400	         9.28957e+57
          1497.83030	         9.25497e+57
          1498.63660	         6.75732e+57
          1499.44290	         6.79744e+57
          1500.24920	         7.65580e+57
          1501.05550	         7.94035e+57
          1501.86180	         8.81190e+57
          1502.66810	         9.67690e+57
          1503.47440	         8.43078e+57
          1504.28070	         8.22153e+57
          1505.08700	         9.47704e+57
          1505.89330	         9.28893e+57
          1506.69960	         8.32954e+57
          1507.50590	         9.36586e+57
          1508.31220	         9.95455e+57
          1509.11850	         8.51924e+57
          1509.92480	         8.34938e+57
          1510.73110	         8.93701e+57
          1511.53740	         7.46106e+57
          1512.34370	         7.55757e+57
          1513.15000	         9.15729e+57
          1513.95630	         1.01104e+58
          1514.76260	         9.50268e+57
          1515.56890	         8.57594e+57
          1516.37520	         8.88249e+57
          1517.18150	         8.67684e+57
          1517.98780	         8.01881e+57
          1518.79410	         7.20341e+57
          1519.60040	         7.81246e+57
          1520.40670	         9.65084e+57
          1521.21300	         9.30211e+57
          1522.01930	         7.96626e+57
          1522.82560	         9.44722e+57
          1523.63190	         1.00816e+58
          1524.43820	         8.74085e+57
          1525.24450	         7.50875e+57
          1526.05080	         6.71294e+57
          1526.85710	         6.58876e+57
          1527.66340	         7.97862e+57
          1528.46970	         8.56368e+57
          1529.27600	         7.30106e+57
          1530.08230	         6.91342e+57
          1530.88860	         7.61868e+57
          1531.69490	         8.72991e+57
          1532.50120	         9.57942e+57
          1533.30750	         9.87151e+57
          1534.11380	         9.29144e+57
          1534.92010	         9.25545e+57
          1535.72640	         9.32002e+57
          1536.53270	         8.92776e+57
          1537.33900	         8.68832e+57
          1538.14530	         8.33971e+57
          1538.95160	         8.57148e+57
          1539.75790	         8.48944e+57
          1540.56420	         8.52298e+57
          1541.37050	         8.21030e+57
          1542.17680	         6.82409e+57
          1542.98310	         6.69685e+57
          1543.78940	         7.54042e+57
          1544.59570	         6.76546e+57
          1545.40200	         7.39191e+57
          1546.20830	         9.35278e+57
          1547.01460	         1.12253e+58
          1547.82090	         1.14673e+58
          1548.62720	         1.20184e+58
          1549.43350	         1.19500e+58
          1550.23980	         1.10617e+58
          1551.04610	         1.23992e+58
          1551.85240	         1.24779e+58
          1552.65870	         1.17131e+58
          1553.46500	         1.12114e+58
          1554.27130	         1.04482e+58
          1555.07760	         1.06759e+58
          1555.88390	         9.02167e+57
          1556.69020	         9.33357e+57
          1557.49650	         1.01873e+58
          1558.30280	         9.59869e+57
          1559.10910	         9.37422e+57
          1559.91540	         8.57999e+57
          1560.72170	         8.48583e+57
          1561.52800	         8.00023e+57
          1562.33430	         7.68271e+57
          1563.14060	         7.45860e+57
          1563.94690	         7.69177e+57
          1564.75320	         7.93384e+57
          1565.55950	         6.95996e+57
          1566.36580	         7.09839e+57
          1567.17210	         8.71300e+57
          1567.97840	         9.62703e+57
          1568.78470	         8.86272e+57
          1569.59100	         9.06295e+57
          1570.39730	         9.04742e+57
          1571.20360	         7.22872e+57
          1572.00990	         7.29973e+57
          1572.81620	         9.61087e+57
          1573.62250	         1.00677e+58
          1574.42880	         8.95565e+57
          1575.23510	         7.87549e+57
          1576.04140	         8.17038e+57
          1576.84770	         8.93804e+57
          1577.65400	         8.52365e+57
          1578.46030	         9.83084e+57
          1579.26660	         1.10367e+58
          1580.07290	         9.25883e+57
          1580.87920	         7.22720e+57
          1581.68550	         7.64314e+57
          1582.49180	         7.93242e+57
          1583.29810	         7.92058e+57
          1584.10440	         8.47468e+57
          1584.91070	         8.54903e+57
          1585.71700	         8.66480e+57
          1586.52330	         9.36570e+57
          1587.32960	         8.41101e+57
          1588.13590	         8.07145e+57
          1588.94220	         8.94519e+57
          1589.74850	         9.00209e+57
          1590.55480	         8.75363e+57
          1591.36110	         7.93860e+57
          1592.16740	         8.42631e+57
          1592.97370	         8.67274e+57
          1593.78000	         8.48496e+57
          1594.58630	         9.44812e+57
          1595.39260	         8.75964e+57
          1596.19890	         8.80335e+57
          1597.00520	         9.91129e+57
          1597.81150	         8.95359e+57
          1598.61780	         7.77951e+57
          1599.42410	         7.61435e+57
          1600.23040	         7.20602e+57
          1601.03670	         7.51397e+57
          1601.84300	         7.35559e+57
          1602.64930	         7.80974e+57
          1603.45560	         8.69214e+57
          1604.26190	         8.73693e+57
          1605.06820	         7.59310e+57
          1605.87450	         7.09386e+57
          1606.68080	         7.12435e+57
          1607.48710	         7.15572e+57
          1608.29340	         6.22950e+57
          1609.09970	         6.64761e+57
          1609.90600	         7.17626e+57
          1610.71230	         6.30633e+57
          1611.51860	         6.06806e+57
          1612.32490	         6.97517e+57
          1613.13120	         8.58225e+57
          1613.93750	         9.12087e+57
          1614.74380	         8.69354e+57
          1615.55010	         8.99605e+57
          1616.35640	         9.46623e+57
          1617.16270	         1.02105e+58
          1617.96900	         9.81720e+57
          1618.77530	         8.49166e+57
          1619.58160	         7.55945e+57
          1620.38790	         7.92564e+57
          1621.19420	         8.67899e+57
          1622.00050	         7.13925e+57
          1622.80680	         7.84162e+57
          1623.61310	         8.93193e+57
          1624.41940	         9.09743e+57
          1625.22570	         9.25307e+57
          1626.03200	         8.63999e+57
          1626.83830	         8.80539e+57
          1627.64460	         7.32263e+57
          1628.45090	         6.56990e+57
          1629.25720	         9.32136e+57
          1630.06350	         9.31535e+57
          1630.86980	         7.42554e+57
          1631.67610	         7.10262e+57
          1632.48240	         7.81621e+57
          1633.28870	         8.01338e+57
          1634.09500	         8.53794e+57
          1634.90130	         1.18837e+58
          1635.70760	         9.62570e+57
          1636.51390	         5.83978e+57
          1637.32020	         6.63459e+57
          1638.12650	         9.13041e+57
          1638.93280	         1.01891e+58
          1639.73910	         9.23425e+57
          1640.54540	         9.51821e+57
          1641.35170	         8.58547e+57
          1642.15800	         8.32182e+57
          1642.96430	         8.09000e+57
          1643.77060	         8.24959e+57
          1644.57690	         8.55737e+57
          1645.38320	         8.41116e+57
          1646.18950	         6.69112e+57
          1646.99580	         8.02378e+57
          1647.80210	         8.50303e+57
          1648.60840	         7.65573e+57
          1649.41470	         8.58284e+57
          1650.22100	         7.92695e+57
          1651.02730	         7.41730e+57
          1651.83360	         8.15791e+57
          1652.63990	         8.08235e+57
          1653.44620	         7.93322e+57
          1654.25250	         7.68919e+57
          1655.05880	         7.58666e+57
          1655.86510	         7.14904e+57
          1656.67140	         7.53634e+57
          1657.47770	         7.83247e+57
          1658.28400	         8.20830e+57
          1659.09030	         8.77528e+57
          1659.89660	         9.29992e+57
          1660.70290	         1.00882e+58
          1661.50920	         9.54358e+57
          1662.31550	         8.56941e+57
          1663.12180	         8.24423e+57
          1663.92810	         9.05132e+57
          1664.73440	         1.09813e+58
          1665.54070	         1.17878e+58
          1666.34700	         1.19158e+58
          1667.15330	         1.07340e+58
          1667.95960	         8.37189e+57
          1668.76590	         7.45298e+57
          1669.57220	         7.40598e+57
          1670.37850	         8.24578e+57
          1671.18480	         8.30505e+57
          1671.99110	         7.27669e+57
          1672.79740	         7.18593e+57
          1673.60370	         6.70104e+57
          1674.41000	         7.53316e+57
          1675.21630	         8.42384e+57
          1676.02260	         7.56875e+57
          1676.82890	         7.10651e+57
          1677.63520	         6.36429e+57
          1678.44150	         7.22256e+57
          1679.24780	         8.52724e+57
          1680.05410	         7.43255e+57
          1680.86040	         6.31098e+57
          1681.66670	         7.56643e+57
          1682.47300	         8.71936e+57
          1683.27930	         8.78259e+57
          1684.08560	         8.32935e+57
          1684.89190	         8.15344e+57
          1685.69820	         6.20005e+57
          1686.50450	         5.34362e+57
          1687.31080	         6.39684e+57
          1688.11710	         8.49306e+57
          1688.92340	         7.51381e+57
          1689.72970	         6.75245e+57
          1690.53600	         6.12714e+57
          1691.34230	         6.33916e+57
          1692.14860	         7.77082e+57
          1692.95490	         7.66595e+57
          1693.76120	         7.58488e+57
          1694.56750	         7.38061e+57
          1695.37380	         9.08815e+57
          1696.18010	         8.48157e+57
          1696.98640	         7.90689e+57
          1697.79270	         7.26149e+57
          1698.59900	         7.02861e+57
          1699.40530	         7.84417e+57
          1700.21160	         8.27084e+57
          1701.01790	         8.06273e+57
          1701.82420	         8.43324e+57
          1702.63050	         8.35206e+57
          1703.43680	         7.72685e+57
          1704.24310	         8.85227e+57
          1705.04940	         8.62420e+57
          1705.85570	         7.02664e+57
          1706.66200	         8.16791e+57
          1707.46830	         9.41641e+57
          1708.27460	         8.63397e+57
          1709.08090	         7.54730e+57
          1709.88720	         6.04281e+57
          1710.69350	         5.45811e+57
          1711.49980	         6.17572e+57
          1712.30610	         7.15938e+57
          1713.11240	         8.73847e+57
          1713.91870	         7.27920e+57
          1714.72500	         7.87314e+57
          1715.53130	         9.25422e+57
          1716.33760	         8.69828e+57
          1717.14390	         7.38052e+57
          1717.95020	         7.92581e+57
          1718.75650	         8.98852e+57
          1719.56280	         8.32877e+57
          1720.36910	         7.41562e+57
          1721.17540	         7.28902e+57
          1721.98170	         6.24524e+57
          1722.78800	         6.33012e+57
          1723.59430	         6.09294e+57
          1724.40060	         6.93909e+57
          1725.20690	         7.77475e+57
          1726.01320	         7.75289e+57
          1726.81950	         7.16802e+57
          1727.62580	         7.10841e+57
          1728.43210	         6.67102e+57
          1729.23840	         6.90489e+57
          1730.04470	         7.71827e+57
          1730.85100	         8.14695e+57
          1731.65730	         7.85544e+57
          1732.46360	         8.28851e+57
          1733.26990	         7.47770e+57
          1734.07620	         6.82162e+57
          1734.88250	         7.30332e+57
          1735.68880	         8.08525e+57
          1736.49510	         8.12211e+57
          1737.30140	         8.16992e+57
          1738.10770	         7.51899e+57
          1738.91400	         7.74815e+57
          1739.72030	         7.28189e+57
          1740.52660	         6.05599e+57
          1741.33290	         5.33224e+57
          1742.13920	         5.71440e+57
          1742.94550	         7.15392e+57
          1743.75180	         7.73776e+57
          1744.55810	         7.81078e+57
          1745.36440	         7.19034e+57
          1746.17070	         5.84532e+57
          1746.97700	         4.90615e+57
          1747.78330	         6.07577e+57
          1748.58960	         6.87560e+57
          1749.39590	         7.94764e+57
          1750.20220	         7.53561e+57
          1751.00850	         5.50019e+57
          1751.81480	         5.49921e+57
          1752.62110	         7.07862e+57
          1753.42740	         7.79725e+57
          1754.23370	         6.77981e+57
          1755.04000	         6.40718e+57
          1755.84630	         6.21881e+57
          1756.65260	         8.33147e+57
          1757.45890	         9.30969e+57
          1758.26520	         7.65514e+57
          1759.07150	         8.51828e+57
          1759.87780	         8.17712e+57
          1760.68410	         8.02734e+57
          1761.49040	         9.10700e+57
          1762.29670	         7.38629e+57
          1763.10300	         6.61759e+57
          1763.90930	         7.63706e+57
          1764.71560	         7.61545e+57
          1765.52190	         7.99320e+57
          1766.32820	         9.07886e+57
          1767.13450	         8.46505e+57
          1767.94080	         7.16128e+57
          1768.74710	         6.70393e+57
          1769.55340	         7.26500e+57
          1770.35970	         6.92960e+57
          1771.16600	         7.88983e+57
          1771.97230	         8.91173e+57
          1772.77860	         8.09197e+57
          1773.58490	         7.41304e+57
          1774.39120	         6.02425e+57
          1775.19750	         6.39490e+57
          1776.00380	         7.63375e+57
          1776.81010	         7.54908e+57
          1777.61640	         6.91728e+57
          1778.42270	         7.58295e+57
          1779.22900	         7.29165e+57
          1780.03530	         6.06177e+57
          1780.84160	         6.62911e+57
          1781.64790	         7.85475e+57
          1782.45420	         7.58750e+57
          1783.26050	         7.96154e+57
          1784.06680	         7.20850e+57
          1784.87310	         7.06369e+57
          1785.67940	         6.74505e+57
          1786.48570	         5.91388e+57
          1787.29200	         5.64163e+57
          1788.09830	         6.18163e+57
          1788.90460	         6.41712e+57
          1789.71090	         6.37338e+57
          1790.51720	         5.98777e+57
          1791.32350	         7.33955e+57
          1792.12980	         9.00666e+57
          1792.93610	         7.77068e+57
          1793.74240	         6.09752e+57
          1794.54870	         7.08444e+57
          1795.35500	         7.98292e+57
          1796.16130	         7.68006e+57
          1796.96760	         7.17951e+57
          1797.77390	         7.35005e+57
          1798.58020	         7.10255e+57
          1799.38650	         6.74018e+57
          1800.19280	         7.47680e+57
          1800.99910	         7.88553e+57
          1801.80540	         7.26031e+57
          1802.61170	         7.55732e+57
          1803.41800	         7.68274e+57
          1804.22430	         8.06954e+57
          1805.03060	         7.56044e+57
          1805.83690	         7.75041e+57
          1806.64320	         8.22096e+57
          1807.44950	         8.17375e+57
          1808.25580	         7.35299e+57
          1809.06210	         8.01954e+57
          1809.86840	         6.23437e+57
          1810.67470	         6.18293e+57
          1811.48100	         9.28137e+57
          1812.28730	         8.93438e+57
          1813.09360	         7.41511e+57
          1813.89990	         7.30835e+57
          1814.70620	         6.55541e+57
          1815.51250	         7.27860e+57
          1816.31880	         7.64289e+57
          1817.12510	         6.94920e+57
          1817.93140	         6.66675e+57
          1818.73770	         7.22554e+57
          1819.54400	         7.54881e+57
          1820.35030	         8.15402e+57
          1821.15660	         6.79812e+57
          1821.96290	         6.28171e+57
          1822.76920	         7.37888e+57
          1823.57550	         7.37537e+57
          1824.38180	         7.49339e+57
          1825.18810	         9.01957e+57
          1825.99440	         9.44076e+57
          1826.80070	         7.98312e+57
          1827.60700	         6.78072e+57
          1828.41330	         6.07784e+57
          1829.21960	         6.34521e+57
          1830.02590	         6.39633e+57
          1830.83220	         7.37384e+57
          1831.63850	         7.82547e+57
          1832.44480	         7.78864e+57
          1833.25110	         8.47374e+57
          1834.05740	         8.94680e+57
          1834.86370	         7.26449e+57
          1835.67000	         6.27025e+57
          1836.47630	         6.71381e+57
          1837.28260	         8.31975e+57
          1838.08890	         8.14783e+57
          1838.89520	         8.52962e+57
          1839.70150	         8.27034e+57
          1840.50780	         7.18509e+57
          1841.31410	         6.13451e+57
          1842.12040	         6.31465e+57
          1842.92670	         6.39634e+57
          1843.73300	         6.32179e+57
          1844.53930	         7.68469e+57
          1845.34560	         8.12475e+57
          1846.15190	         8.04476e+57
          1846.95820	         8.65266e+57
          1847.76450	         7.74487e+57
          1848.57080	         6.54661e+57
          1849.37710	         7.22105e+57
          1850.18340	         6.82650e+57
          1850.98970	         7.86731e+57
          1851.79600	         7.93248e+57
          1852.60230	         6.66040e+57
          1853.40860	         6.47583e+57
          1854.21490	         6.71110e+57
          1855.02120	         6.61710e+57
          1855.82750	         4.54952e+57
          1856.63380	         5.88322e+57
          1857.44010	         6.51788e+57
          1858.24640	         7.06998e+57
          1859.05270	         6.58497e+57
          1859.85900	         6.30658e+57
          1860.66530	         6.27175e+57
          1861.47160	         7.22024e+57
          1862.27790	         6.43916e+57
          1863.08420	         7.33229e+57
          1863.89050	         8.83906e+57
          1864.69680	         7.76594e+57
          1865.50310	         7.35183e+57
          1866.30940	         6.63612e+57
          1867.11570	         6.51146e+57
          1867.92200	         8.04043e+57
          1868.72830	         7.32537e+57
          1869.53460	         6.17024e+57
          1870.34090	         7.48983e+57
          1871.14720	         7.72350e+57
          1871.95350	         6.99951e+57
          1872.75980	         7.41970e+57
          1873.56610	         6.89510e+57
          1874.37240	         5.71316e+57
          1875.17870	         5.70530e+57
          1875.98500	         6.99980e+57
          1876.79130	         7.40933e+57
          1877.59760	         6.85203e+57
          1878.40390	         5.41526e+57
          1879.21020	         6.42248e+57
          1880.01650	         6.73814e+57
          1880.82280	         7.35200e+57
          1881.62910	         9.53026e+57
          1882.43540	         9.69436e+57
          1883.24170	         8.62430e+57
          1884.04800	         7.30375e+57
          1884.85430	         7.78751e+57
          1885.66060	         8.05189e+57
          1886.46690	         7.83167e+57
          1887.27320	         7.29401e+57
          1888.07950	         6.01284e+57
          1888.88580	         6.20705e+57
          1889.69210	         9.27702e+57
          1890.49840	         8.62751e+57
          1891.30470	         7.41769e+57
          1892.11100	         7.87381e+57
          1892.91730	         8.05694e+57
          1893.72360	         7.32908e+57
          1894.52990	         7.01478e+57
          1895.33620	         7.44282e+57
          1896.14250	         7.20585e+57
          1896.94880	         5.90798e+57
          1897.75510	         4.01731e+57
          1898.56140	         6.26177e+57
          1899.36770	         8.23581e+57
          1900.17400	         6.35684e+57
          1900.98030	         6.08880e+57
          1901.78660	         7.09682e+57
          1902.59290	         8.02884e+57
          1903.39920	         8.58960e+57
          1904.20550	         9.22882e+57
          1905.01180	         9.10851e+57
          1905.81810	         9.58102e+57
          1906.62440	         1.14155e+58
          1907.43070	         1.40159e+58
          1908.23700	         1.55946e+58
          1909.04330	         1.29140e+58
          1909.84960	         1.09961e+58
          1910.65590	         9.83076e+57
          1911.46220	         8.95062e+57
          1912.26850	         7.08140e+57
          1913.07480	         5.52846e+57
          1913.88110	         5.08303e+57
          1914.68740	         5.10675e+57
          1915.49370	         5.17300e+57
          1916.30000	         5.90321e+57
          1917.10630	         6.32346e+57
          1917.91260	         6.44083e+57
          1918.71890	         6.96626e+57
          1919.52520	         7.08109e+57
          1920.33150	         5.32464e+57
          1921.13780	         6.76096e+57
          1921.94410	         8.01636e+57
          1922.75040	         8.95094e+57
          1923.55670	         7.33698e+57
          1924.36300	         7.41019e+57
          1925.16930	         6.34754e+57
          1925.97560	         5.43800e+57
          1926.78190	         4.76916e+57
          1927.58820	         5.41393e+57
          1928.39450	         5.67128e+57
          1929.20080	         4.84316e+57
          1930.00710	         6.46638e+57
          1930.81340	         8.41612e+57
          1931.61970	         7.49794e+57
          1932.42600	         7.30064e+57
          1933.23230	         9.43211e+57
          1934.03860	         7.51255e+57
          1934.84490	         5.45149e+57
          1935.65120	         7.73625e+57
          1936.45750	         8.38345e+57
          1937.26380	         6.19917e+57
          1938.07010	         7.09663e+57
          1938.87640	         7.41102e+57
          1939.68270	         8.15584e+57
          1940.48900	         8.11029e+57
          1941.29530	         9.23223e+57
          1942.10160	         7.70175e+57
          1942.90790	         6.84195e+57
          1943.71420	         5.85392e+57
          1944.52050	         5.74938e+57
          1945.32680	         5.77354e+57
          1946.13310	         7.26090e+57
          1946.93940	         8.34182e+57
          1947.74570	         7.01623e+57
          1948.55200	         6.57289e+57
          1949.35830	         6.90909e+57
          1950.16460	         5.51715e+57
          1950.97090	         5.96231e+57
          1951.77720	         7.03612e+57
          1952.58350	         7.97898e+57
          1953.38980	         7.10616e+57
          1954.19610	         5.35841e+57
          1955.00240	         5.03949e+57
          1955.80870	         6.63141e+57
          1956.61500	         6.18651e+57
          1957.42130	         5.80825e+57
          1958.22760	         7.26719e+57
          1959.03390	         8.10124e+57
          1959.84020	         7.91973e+57
          1960.64650	         7.83650e+57
          1961.45280	         6.82008e+57
          1962.25910	         6.33383e+57
          1963.06540	         5.79350e+57
          1963.87170	         5.54428e+57
          1964.67800	         6.68758e+57
          1965.48430	         6.13900e+57
          1966.29060	         4.83297e+57
          1967.09690	         7.02070e+57
          1967.90320	         7.71837e+57
          1968.70950	         6.13029e+57
          1969.51580	         6.54531e+57
          1970.32210	         7.19949e+57
          1971.12840	         7.04783e+57
          1971.93470	         5.38714e+57
          1972.74100	         5.01204e+57
          1973.54730	         7.18971e+57
          1974.35360	         6.65763e+57
          1975.15990	         6.74816e+57
          1975.96620	         6.76733e+57
          1976.77250	         7.38556e+57
          1977.57880	         7.80562e+57
          1978.38510	         6.81517e+57
          1979.19140	         6.82774e+57
          1979.99770	         7.41378e+57
          1980.80400	         7.93931e+57
          1981.61030	         6.60257e+57
          1982.41660	         5.83631e+57
          1983.22290	         6.21451e+57
          1984.02920	         5.87881e+57
          1984.83550	         5.10287e+57
          1985.64180	         5.73704e+57
          1986.44810	         5.82340e+57
          1987.25440	         5.44493e+57
          1988.06070	         5.26479e+57
          1988.86700	         5.58858e+57
          1989.67330	         6.87357e+57
          1990.47960	         7.19480e+57
          1991.28590	         6.98052e+57
          1992.09220	         5.47747e+57
          1992.89850	         6.03069e+57
          1993.70480	         5.81680e+57
          1994.51110	         5.42514e+57
          1995.31740	         4.62072e+57
          1996.12370	         5.74486e+57
          1996.93000	         6.10694e+57
          1997.73630	         7.02211e+57
          1998.54260	         8.37148e+57
          1999.34890	         6.93126e+57
          2000.15520	         7.00289e+57
          2000.96150	         7.26179e+57
          2001.76780	         5.57970e+57
          2002.57410	         4.96018e+57
          2003.38040	         6.74418e+57
          2004.18670	         6.17453e+57
          2004.99300	         5.35816e+57
          2005.79930	         7.08448e+57
          2006.60560	         7.25198e+57
          2007.41190	         7.13930e+57
          2008.21820	         7.00948e+57
          2009.02450	         6.70755e+57
          2009.83080	         7.30448e+57
          2010.63710	         6.22363e+57
          2011.44340	         6.92427e+57
          2012.24970	         7.26931e+57
          2013.05600	         7.42343e+57
          2013.86230	         6.57010e+57
          2014.66860	         5.88213e+57
          2015.47490	         6.78101e+57
          2016.28120	         6.88671e+57
          2017.08750	         5.29547e+57
          2017.89380	         5.88141e+57
          2018.70010	         5.68658e+57
          2019.50640	         5.56385e+57
          2020.31270	         6.12162e+57
          2021.11900	         6.37906e+57
          2021.92530	         4.77778e+57
          2022.73160	         6.57444e+57
          2023.53790	         7.85763e+57
          2024.34420	         6.57039e+57
          2025.15050	         5.40482e+57
          2025.95680	         5.88199e+57
          2026.76310	         6.73565e+57
          2027.56940	         6.84207e+57
          2028.37570	         5.53940e+57
          2029.18200	         6.17513e+57
          2029.98830	         5.63140e+57
          2030.79460	         5.59866e+57
          2031.60090	         6.50570e+57
          2032.40720	         6.71922e+57
          2033.21350	         5.70861e+57
          2034.01980	         4.31974e+57
          2034.82610	         3.32775e+57
          2035.63240	         4.58859e+57
          2036.43870	         5.62026e+57
          2037.24500	         6.06047e+57
          2038.05130	         7.42311e+57
          2038.85760	         6.69352e+57
          2039.66390	         6.20222e+57
          2040.47020	         5.54184e+57
          2041.27650	         5.57620e+57
          2042.08280	         5.75560e+57
          2042.88910	         5.41165e+57
          2043.69540	         5.73856e+57
          2044.50170	         4.55567e+57
          2045.30800	         6.06547e+57
          2046.11430	         5.45539e+57
          2046.92060	         5.81723e+57
          2047.72690	         6.62307e+57
          2048.53320	         7.15913e+57
          2049.33950	         5.57059e+57
          2050.14580	         7.28484e+57
          2050.95210	         5.94491e+57
          2051.75840	         7.63669e+57
          2052.56470	         5.18534e+57
          2053.37100	         5.58770e+57
          2054.17730	         5.73773e+57
          2054.98360	         4.80737e+57
          2055.78990	         2.77492e+57
          2056.59620	         1.93373e+57
          2057.40250	         5.26569e+57
          2058.20880	         8.38103e+57
          2059.01510	         6.81127e+57
          2059.82140	         6.39344e+57
          2060.62770	         1.02786e+58
          2061.43400	         1.70367e+58
          2062.24030	         1.43041e+58
          2063.04660	         5.73869e+57
          2063.85290	         1.61234e+57
          2064.65920	        -2.10408e+57
          2065.46550	        -9.52079e+57
          2066.27180	        -9.05266e+57
          2067.07810	         2.20079e+57
          2067.88440	         5.36465e+57
          2068.69070	         5.26932e+57
          2069.49700	         5.26947e+57
          2070.30330	         4.15899e+57
          2071.10960	         6.15422e+57
          2071.91590	         7.40940e+57
          2072.72220	         4.05523e+57
          2073.52850	         4.94864e+57
          2074.33480	         4.39039e+57
          2075.14110	         4.64366e+57
          2075.94740	         6.10516e+57
          2076.75370	         5.32800e+57
          2077.56000	         4.69893e+57
          2078.36630	         4.85684e+57
          2079.17260	         5.48699e+57
          2079.97890	         6.15171e+57
          2080.78520	         5.13009e+57
          2081.59150	         4.81600e+57
          2082.39780	         4.97606e+57
          2083.20410	         3.41488e+57
          2084.01040	         1.97637e+57
          2084.81670	         3.24491e+57
          2085.62300	         3.38294e+57
          2086.42930	         4.45271e+57
          2087.23560	         3.39839e+57
          2088.04190	         4.81688e+57
          2088.84820	         3.80950e+57
          2089.65450	         1.99489e+57
          2090.46080	         6.64841e+56
          2091.26710	         2.63705e+57
          2092.07340	         4.62051e+57
          2092.87970	         2.70194e+57
          2093.68600	        -5.39185e+56
          2094.49230	        -6.51182e+56
          2095.29860	         5.61079e+57
          2096.10490	         3.04656e+57
          2096.91120	         1.33377e+57
          2097.71750	         4.90827e+57
          2098.52380	         4.46754e+57
          2099.33010	         9.59783e+56
          2100.13640	         1.51864e+57
          2100.94270	         6.22018e+56
          2101.74900	         2.23688e+57
          2102.55530	         3.96312e+57
          2103.36160	         3.53992e+57
          2104.16790	         3.52933e+57
          2104.97420	         2.33104e+57
          2105.78050	         9.25996e+56
          2106.58680	         9.87881e+56
          2107.39310	        -3.15104e+57
          2108.19940	        -8.45709e+56
          2109.00570	        -7.48448e+56
          2109.81200	        -2.41770e+57
          2110.61830	         1.18964e+57
          2111.42460	         2.64171e+57
          2112.23090	        -2.07955e+57
          2113.03720	        -1.09235e+57
          2113.84350	         1.88552e+57
          2114.64980	         2.64369e+57
          2115.45610	        -1.52998e+57
          2116.26240	        -2.10296e+57
          2117.06870	         3.46004e+57
          2117.87500	         4.02435e+57
          2118.68130	         2.43196e+57
          2119.48760	         1.25664e+57
          2120.29390	         2.24617e+56
          2121.10020	        -7.24921e+57
          2121.90650	        -2.28344e+57
          2122.71280	         1.77651e+57
          2123.51910	         6.02593e+57
          2124.32540	         6.63551e+57
          2125.13170	         3.10306e+57
          2125.93800	         5.05197e+57
          2126.74430	         1.52119e+57
          2127.55060	        -6.08367e+57
          2128.35690	        -3.86480e+57
          2129.16320	        -1.88199e+57
          2129.96950	        -2.05957e+57
          2130.77580	        -1.26471e+57
          2131.58210	        -5.01921e+57
          2132.38840	         4.37887e+56
          2133.19470	        -3.24921e+57
          2134.00100	         4.63070e+56
          2134.80730	        -4.10517e+57
          2135.61360	        -1.60219e+57
          2136.41990	         6.96346e+57
          2137.22620	         1.16983e+58
          2138.03250	         3.05509e+57
          2138.83880	        -2.84074e+56
          2139.64510	        -2.66831e+57
          2140.45140	        -5.06164e+57
          2141.25770	        -1.26727e+58
          2142.06400	        -6.23123e+57
          2142.87030	         2.72371e+57
          2143.67660	         6.26884e+57
          2144.48290	         9.20504e+57
          2145.28920	         3.14185e+57
          2146.09550	        -4.44319e+57
          2146.90180	        -4.91476e+57
          2147.70810	        -7.41968e+57
          2148.51440	        -5.03815e+57
          2149.32070	         1.75440e+57
          2150.12700	        -2.63990e+57
          2150.93330	        -3.72670e+57
          2151.73960	         9.61234e+56
          2152.54590	         2.59515e+56
          2153.35220	        -4.35080e+57
          2154.15850	        -4.68564e+57
          2154.96480	        -6.80496e+57
          2155.77110	        -2.73895e+57
          2156.57740	         1.34857e+57
          2157.38370	         1.57508e+56
          2158.19000	        -1.39245e+57
          2158.99630	        -6.69908e+57
          2159.80260	        -1.32741e+58
          2160.60890	        -1.14550e+58
          2161.41520	        -9.47685e+57
          2162.22150	        -7.26176e+56
          2163.02780	         3.51648e+57
          2163.83410	        -5.29641e+57
          2164.64040	        -6.06717e+57
          2165.44670	        -8.27874e+57
          2166.25300	        -2.13492e+58
          2167.05930	        -4.75698e+57
          2167.86560	        -1.28653e+57
          2168.67190	        -1.10959e+58
          2169.47820	        -2.58793e+57
          2170.28450	        -7.84508e+55
          2171.09080	         3.30769e+57
          2171.89710	         2.71202e+57
          2172.70340	        -3.00489e+57
          2173.50970	        -4.22404e+57
          2174.31600	        -6.95218e+56
          2175.12230	         1.90615e+57
          2175.92860	        -2.54971e+57
          2176.73490	        -3.63281e+57
          2177.54120	        -5.66316e+56
          2178.34750	        -4.39216e+57
          2179.15380	                 nan
          2179.96010	                 nan
          2180.76640	                 nan
          2181.57270	                 nan
          2182.37900	                 nan
          2183.18530	                 nan
          2183.99160	                 nan
          2184.79790	                 nan
          2185.60420	                 nan
          2186.41050	                 nan
          2187.21680	                 nan
          2188.02310	                 nan
          2188.82940	                 nan
          2189.63570	                 nan
          2190.44200	                 nan
          2191.24830	                 nan
          2192.05460	                 nan
          2192.86090	                 nan
          2193.66720	                 nan
          2194.47350	                 nan
          2195.27980	                 nan
          2196.08610	                 nan
          2196.89240	                 nan
          2197.69870	                 nan
          2198.50500	                 nan
          2199.31130	                 nan
          2200.11760	                 nan
          2200.92390	                 nan
          2201.73020	                 nan
          2202.53650	                 nan
          2203.34280	                 nan
          2204.14910	                 nan
          2204.95540	                 nan
          2205.76170	                 nan
          2206.56800	                 nan
          2207.37430	                 nan
          2208.18060	                 nan
          2208.98690	                 nan
          2209.79320	                 nan
          2210.59950	                 nan
          2211.40580	                 nan
          2212.21210	                 nan
          2213.01840	                 nan
          2213.82470	                 nan
          2214.63100	                 nan
          2215.43730	         0.00000e+00
