#sample_404_stacked_spectrum_rest_UV-bands_median_H-alpha_noDC.txt
#median Lum: 1.70979e+42
#Rest-frame wavelength (A) | Luminosity (erg/s/A)
#
          1110.00000	         0.00000e+00
          1110.80630	         8.67429e+58
          1111.61260	         3.19161e+59
          1112.41890	         3.18491e+59
          1113.22520	         2.69823e+58
          1114.03150	        -1.02914e+59
          1114.83780	         1.42085e+59
          1115.64410	         1.93810e+59
          1116.45040	         2.32047e+58
          1117.25670	        -1.91089e+58
          1118.06300	         6.50804e+58
          1118.86930	        -3.82132e+58
          1119.67560	         2.21089e+59
          1120.48190	         8.14960e+58
          1121.28820	        -7.25239e+58
          1122.09450	         3.96465e+58
          1122.90080	         1.05783e+59
          1123.70710	         9.64730e+58
          1124.51340	         8.91739e+58
          1125.31970	         2.87008e+58
          1126.12600	         1.03857e+58
          1126.93230	        -1.82787e+58
          1127.73860	        -6.85473e+58
          1128.54490	        -4.56754e+58
          1129.35120	         5.71000e+57
          1130.15750	        -3.26625e+58
          1130.96380	        -2.36928e+58
          1131.77010	         1.02940e+59
          1132.57640	         6.43118e+58
          1133.38270	         2.12662e+58
          1134.18900	         2.24382e+58
          1134.99530	        -7.27341e+57
          1135.80160	        -1.24997e+58
          1136.60790	         7.22527e+57
          1137.41420	         1.75848e+58
          1138.22050	         4.99403e+58
          1139.02680	         3.07440e+58
          1139.83310	         2.41799e+58
          1140.63940	         2.66760e+58
          1141.44570	        -1.14118e+58
          1142.25200	        -3.91548e+58
          1143.05830	        -1.08388e+57
          1143.86460	         3.07895e+58
          1144.67090	         2.90769e+58
          1145.47720	         3.01738e+58
          1146.28350	         1.64924e+58
          1147.08980	         1.39265e+58
          1147.89610	         1.40670e+58
          1148.70240	         6.53323e+57
          1149.50870	         1.94838e+58
          1150.31500	         2.38237e+58
          1151.12130	         5.14677e+57
          1151.92760	        -3.57644e+56
          1152.73390	         4.97181e+57
          1153.54020	         2.72550e+57
          1154.34650	         1.96761e+58
          1155.15280	         1.83279e+58
          1155.95910	         2.60141e+57
          1156.76540	        -2.96358e+57
          1157.57170	        -1.51702e+57
          1158.37800	         4.01851e+57
          1159.18430	        -4.45228e+56
          1159.99060	         6.25048e+57
          1160.79690	         8.09879e+57
          1161.60320	         1.20833e+58
          1162.40950	         1.81244e+58
          1163.21580	         2.06184e+58
          1164.02210	         1.62256e+58
          1164.82840	         8.94037e+57
          1165.63470	         1.83248e+58
          1166.44100	         2.68132e+58
          1167.24730	         1.96581e+58
          1168.05360	         5.66294e+57
          1168.85990	         1.14484e+58
          1169.66620	         1.47852e+58
          1170.47250	         1.30267e+58
          1171.27880	         1.07814e+58
          1172.08510	         1.42724e+58
          1172.89140	         1.33419e+58
          1173.69770	         5.58053e+57
          1174.50400	         1.10274e+58
          1175.31030	         1.63786e+58
          1176.11660	         2.05469e+58
          1176.92290	         1.68468e+58
          1177.72920	         1.47390e+58
          1178.53550	         7.20974e+57
          1179.34180	         3.11751e+57
          1180.14810	         4.87836e+57
          1180.95440	         7.34251e+57
          1181.76070	         9.05949e+57
          1182.56700	         6.69487e+57
          1183.37330	         4.00729e+57
          1184.17960	         1.23355e+58
          1184.98590	         9.59047e+57
          1185.79220	         8.08320e+57
          1186.59850	         1.08042e+58
          1187.40480	         1.01689e+58
          1188.21110	         1.32635e+58
          1189.01740	         1.06864e+58
          1189.82370	         7.10811e+57
          1190.63000	         1.47471e+58
          1191.43630	         1.60332e+58
          1192.24260	         9.46358e+57
          1193.04890	         1.24614e+58
          1193.85520	         1.05556e+58
          1194.66150	         6.11894e+57
          1195.46780	         1.42696e+58
          1196.27410	         1.18126e+58
          1197.08040	         7.20371e+57
          1197.88670	         1.52090e+58
          1198.69300	         1.44286e+58
          1199.49930	         1.32086e+58
          1200.30560	         1.06516e+58
          1201.11190	         1.43429e+58
          1201.91820	         1.28536e+58
          1202.72450	         7.25987e+57
          1203.53080	         1.56624e+58
          1204.33710	         1.01487e+58
          1205.14340	         8.03808e+57
          1205.94970	         9.29916e+57
          1206.75600	         8.76445e+57
          1207.56230	         5.20507e+57
          1208.36860	         9.12363e+57
          1209.17490	         3.15615e+57
          1209.98120	         5.13114e+57
          1210.78750	         9.04586e+57
          1211.59380	         1.10128e+58
          1212.40010	         2.05597e+58
          1213.20640	         1.80094e+58
          1214.01270	         1.85910e+58
          1214.81900	         2.53387e+58
          1215.62530	         4.57140e+58
          1216.43160	         9.16625e+58
          1217.23790	         1.50971e+59
          1218.04420	         1.15399e+59
          1218.85050	         8.74644e+58
          1219.65680	         6.06436e+58
          1220.46310	         3.78741e+58
          1221.26940	         2.66956e+58
          1222.07570	         1.59536e+58
          1222.88200	         1.41245e+58
          1223.68830	         1.26592e+58
          1224.49460	         9.77397e+57
          1225.30090	         8.35786e+57
          1226.10720	         7.46333e+57
          1226.91350	         7.18988e+57
          1227.71980	         8.38059e+57
          1228.52610	         1.17997e+58
          1229.33240	         1.32599e+58
          1230.13870	         1.21080e+58
          1230.94500	         9.62066e+57
          1231.75130	         5.25732e+57
          1232.55760	         7.44967e+57
          1233.36390	         1.03488e+58
          1234.17020	         1.07845e+58
          1234.97650	         8.91583e+57
          1235.78280	         7.90013e+57
          1236.58910	         8.38921e+57
          1237.39540	         1.12273e+58
          1238.20170	         1.20268e+58
          1239.00800	         1.19484e+58
          1239.81430	         1.49369e+58
          1240.62060	         1.03393e+58
          1241.42690	         9.81206e+57
          1242.23320	         1.40450e+58
          1243.03950	         9.21189e+57
          1243.84580	         8.00834e+57
          1244.65210	         1.14207e+58
          1245.45840	         1.00748e+58
          1246.26470	         9.08698e+57
          1247.07100	         8.13066e+57
          1247.87730	         4.73575e+57
          1248.68360	         3.89126e+57
          1249.48990	         8.57298e+57
          1250.29620	         1.08703e+58
          1251.10250	         5.92201e+57
          1251.90880	         5.84191e+57
          1252.71510	         6.65879e+57
          1253.52140	         5.80697e+57
          1254.32770	         8.87025e+57
          1255.13400	         1.29059e+58
          1255.94030	         1.23758e+58
          1256.74660	         1.13876e+58
          1257.55290	         1.28341e+58
          1258.35920	         9.51839e+57
          1259.16550	         4.42981e+57
          1259.97180	         4.51625e+57
          1260.77810	         9.93185e+57
          1261.58440	         1.08281e+58
          1262.39070	         8.67706e+57
          1263.19700	         7.54466e+57
          1264.00330	         7.44305e+57
          1264.80960	         8.62856e+57
          1265.61590	         1.14689e+58
          1266.42220	         1.35059e+58
          1267.22850	         1.18100e+58
          1268.03480	         1.30693e+58
          1268.84110	         1.46953e+58
          1269.64740	         1.40736e+58
          1270.45370	         1.58464e+58
          1271.26000	         1.15888e+58
          1272.06630	         1.00127e+58
          1272.87260	         1.34410e+58
          1273.67890	         1.43490e+58
          1274.48520	         1.47511e+58
          1275.29150	         1.33318e+58
          1276.09780	         1.21324e+58
          1276.90410	         1.57390e+58
          1277.71040	         1.32672e+58
          1278.51670	         1.31362e+58
          1279.32300	         1.36018e+58
          1280.12930	         1.23079e+58
          1280.93560	         1.21205e+58
          1281.74190	         1.20470e+58
          1282.54820	         1.43316e+58
          1283.35450	         1.14671e+58
          1284.16080	         1.16785e+58
          1284.96710	         1.40613e+58
          1285.77340	         1.06958e+58
          1286.57970	         1.05534e+58
          1287.38600	         1.53664e+58
          1288.19230	         1.67687e+58
          1288.99860	         1.59601e+58
          1289.80490	         1.27395e+58
          1290.61120	         1.32901e+58
          1291.41750	         1.48565e+58
          1292.22380	         1.29701e+58
          1293.03010	         1.20050e+58
          1293.83640	         1.20810e+58
          1294.64270	         9.84307e+57
          1295.44900	         6.92566e+57
          1296.25530	         7.98227e+57
          1297.06160	         9.35735e+57
          1297.86790	         1.10694e+58
          1298.67420	         1.03278e+58
          1299.48050	         1.10996e+58
          1300.28680	         1.12083e+58
          1301.09310	         8.57279e+57
          1301.89940	         4.41821e+57
          1302.70570	         5.33068e+57
          1303.51200	         8.74076e+57
          1304.31830	         1.10806e+58
          1305.12460	         1.17252e+58
          1305.93090	         1.27718e+58
          1306.73720	         1.39734e+58
          1307.54350	         1.40614e+58
          1308.34980	         1.43708e+58
          1309.15610	         1.44551e+58
          1309.96240	         1.50377e+58
          1310.76870	         1.23796e+58
          1311.57500	         1.15492e+58
          1312.38130	         1.38011e+58
          1313.18760	         1.56979e+58
          1313.99390	         1.63691e+58
          1314.80020	         1.49611e+58
          1315.60650	         1.50779e+58
          1316.41280	         1.46993e+58
          1317.21910	         1.36987e+58
          1318.02540	         1.27667e+58
          1318.83170	         1.14128e+58
          1319.63800	         1.05200e+58
          1320.44430	         1.01124e+58
          1321.25060	         1.27620e+58
          1322.05690	         1.31656e+58
          1322.86320	         1.25455e+58
          1323.66950	         1.16277e+58
          1324.47580	         9.66916e+57
          1325.28210	         1.08107e+58
          1326.08840	         1.13245e+58
          1326.89470	         1.10506e+58
          1327.70100	         1.04006e+58
          1328.50730	         9.67217e+57
          1329.31360	         1.11874e+58
          1330.11990	         1.15293e+58
          1330.92620	         1.04544e+58
          1331.73250	         1.20233e+58
          1332.53880	         1.11976e+58
          1333.34510	         9.15876e+57
          1334.15140	         9.23441e+57
          1334.95770	         1.04470e+58
          1335.76400	         1.11180e+58
          1336.57030	         1.16546e+58
          1337.37660	         1.11680e+58
          1338.18290	         1.13383e+58
          1338.98920	         1.33984e+58
          1339.79550	         1.28374e+58
          1340.60180	         1.28624e+58
          1341.40810	         1.31939e+58
          1342.21440	         1.13280e+58
          1343.02070	         1.27176e+58
          1343.82700	         1.40106e+58
          1344.63330	         1.23095e+58
          1345.43960	         1.26479e+58
          1346.24590	         1.15540e+58
          1347.05220	         1.28034e+58
          1347.85850	         1.21792e+58
          1348.66480	         1.32365e+58
          1349.47110	         1.36000e+58
          1350.27740	         1.12879e+58
          1351.08370	         1.15610e+58
          1351.89000	         1.18930e+58
          1352.69630	         1.10850e+58
          1353.50260	         1.10248e+58
          1354.30890	         1.22854e+58
          1355.11520	         1.32506e+58
          1355.92150	         1.24788e+58
          1356.72780	         1.10321e+58
          1357.53410	         1.10608e+58
          1358.34040	         1.10215e+58
          1359.14670	         1.05807e+58
          1359.95300	         1.10852e+58
          1360.75930	         1.13231e+58
          1361.56560	         1.20793e+58
          1362.37190	         1.27669e+58
          1363.17820	         1.10564e+58
          1363.98450	         1.23962e+58
          1364.79080	         1.39054e+58
          1365.59710	         1.27040e+58
          1366.40340	         1.14753e+58
          1367.20970	         1.07414e+58
          1368.01600	         1.13636e+58
          1368.82230	         1.00574e+58
          1369.62860	         1.00110e+58
          1370.43490	         1.12708e+58
          1371.24120	         9.82507e+57
          1372.04750	         8.42354e+57
          1372.85380	         1.09876e+58
          1373.66010	         1.21892e+58
          1374.46640	         1.08925e+58
          1375.27270	         1.19336e+58
          1376.07900	         1.16785e+58
          1376.88530	         1.05469e+58
          1377.69160	         8.79036e+57
          1378.49790	         6.60887e+57
          1379.30420	         8.13100e+57
          1380.11050	         9.91913e+57
          1380.91680	         8.09604e+57
          1381.72310	         7.96558e+57
          1382.52940	         9.32760e+57
          1383.33570	         9.05620e+57
          1384.14200	         8.81391e+57
          1384.94830	         9.74907e+57
          1385.75460	         1.07090e+58
          1386.56090	         1.10071e+58
          1387.36720	         1.12735e+58
          1388.17350	         1.37393e+58
          1388.97980	         1.16316e+58
          1389.78610	         8.51041e+57
          1390.59240	         8.61516e+57
          1391.39870	         8.72015e+57
          1392.20500	         8.38286e+57
          1393.01130	         7.50507e+57
          1393.81760	         7.64761e+57
          1394.62390	         8.55018e+57
          1395.43020	         7.12370e+57
          1396.23650	         7.22868e+57
          1397.04280	         7.52554e+57
          1397.84910	         1.04221e+58
          1398.65540	         1.10171e+58
          1399.46170	         1.04920e+58
          1400.26800	         9.25960e+57
          1401.07430	         9.23994e+57
          1401.88060	         8.82133e+57
          1402.68690	         8.55166e+57
          1403.49320	         9.27083e+57
          1404.29950	         8.90186e+57
          1405.10580	         1.06356e+58
          1405.91210	         1.19148e+58
          1406.71840	         1.11043e+58
          1407.52470	         1.10994e+58
          1408.33100	         1.14174e+58
          1409.13730	         1.21120e+58
          1409.94360	         1.17512e+58
          1410.74990	         1.17566e+58
          1411.55620	         9.40813e+57
          1412.36250	         9.31541e+57
          1413.16880	         1.07172e+58
          1413.97510	         9.55603e+57
          1414.78140	         9.68145e+57
          1415.58770	         1.12882e+58
          1416.39400	         1.12571e+58
          1417.20030	         1.05494e+58
          1418.00660	         1.03230e+58
          1418.81290	         9.93292e+57
          1419.61920	         1.01082e+58
          1420.42550	         1.17867e+58
          1421.23180	         1.39010e+58
          1422.03810	         1.37122e+58
          1422.84440	         1.18406e+58
          1423.65070	         1.37373e+58
          1424.45700	         1.12985e+58
          1425.26330	         9.23796e+57
          1426.06960	         1.03870e+58
          1426.87590	         1.04775e+58
          1427.68220	         9.89376e+57
          1428.48850	         1.12221e+58
          1429.29480	         1.04755e+58
          1430.10110	         1.06508e+58
          1430.90740	         8.71225e+57
          1431.71370	         7.91208e+57
          1432.52000	         7.88088e+57
          1433.32630	         7.79548e+57
          1434.13260	         7.83707e+57
          1434.93890	         7.54798e+57
          1435.74520	         8.96342e+57
          1436.55150	         9.97903e+57
          1437.35780	         8.85420e+57
          1438.16410	         8.88435e+57
          1438.97040	         8.60216e+57
          1439.77670	         1.02932e+58
          1440.58300	         1.09669e+58
          1441.38930	         1.00454e+58
          1442.19560	         1.08489e+58
          1443.00190	         1.04792e+58
          1443.80820	         1.07272e+58
          1444.61450	         1.04125e+58
          1445.42080	         9.65002e+57
          1446.22710	         1.16662e+58
          1447.03340	         1.17393e+58
          1447.83970	         9.96419e+57
          1448.64600	         9.61298e+57
          1449.45230	         9.71051e+57
          1450.25860	         1.03873e+58
          1451.06490	         1.00565e+58
          1451.87120	         8.47126e+57
          1452.67750	         8.03014e+57
          1453.48380	         9.23360e+57
          1454.29010	         8.69755e+57
          1455.09640	         7.75395e+57
          1455.90270	         9.04920e+57
          1456.70900	         9.63162e+57
          1457.51530	         1.00548e+58
          1458.32160	         1.26225e+58
          1459.12790	         1.24125e+58
          1459.93420	         9.61714e+57
          1460.74050	         7.40215e+57
          1461.54680	         7.45735e+57
          1462.35310	         8.74363e+57
          1463.15940	         1.03411e+58
          1463.96570	         1.06863e+58
          1464.77200	         1.17235e+58
          1465.57830	         1.09771e+58
          1466.38460	         8.96818e+57
          1467.19090	         9.24916e+57
          1467.99720	         9.03813e+57
          1468.80350	         9.26833e+57
          1469.60980	         9.71559e+57
          1470.41610	         1.06735e+58
          1471.22240	         9.61053e+57
          1472.02870	         9.20565e+57
          1472.83500	         1.03146e+58
          1473.64130	         9.52951e+57
          1474.44760	         9.13466e+57
          1475.25390	         9.11413e+57
          1476.06020	         9.46488e+57
          1476.86650	         1.05981e+58
          1477.67280	         9.15196e+57
          1478.47910	         7.63498e+57
          1479.28540	         8.26803e+57
          1480.09170	         9.69885e+57
          1480.89800	         9.48930e+57
          1481.70430	         9.37031e+57
          1482.51060	         9.99218e+57
          1483.31690	         9.86329e+57
          1484.12320	         7.71979e+57
          1484.92950	         7.62498e+57
          1485.73580	         8.73799e+57
          1486.54210	         9.44618e+57
          1487.34840	         9.81059e+57
          1488.15470	         8.75343e+57
          1488.96100	         8.04543e+57
          1489.76730	         8.22641e+57
          1490.57360	         8.61150e+57
          1491.37990	         8.23458e+57
          1492.18620	         7.69279e+57
          1492.99250	         7.50990e+57
          1493.79880	         8.17889e+57
          1494.60510	         8.47539e+57
          1495.41140	         8.30534e+57
          1496.21770	         9.27934e+57
          1497.02400	         1.03758e+58
          1497.83030	         8.69543e+57
          1498.63660	         7.65989e+57
          1499.44290	         7.41741e+57
          1500.24920	         7.69505e+57
          1501.05550	         7.44385e+57
          1501.86180	         8.22771e+57
          1502.66810	         9.17043e+57
          1503.47440	         8.66157e+57
          1504.28070	         8.49945e+57
          1505.08700	         8.66881e+57
          1505.89330	         9.33736e+57
          1506.69960	         9.07164e+57
          1507.50590	         8.65468e+57
          1508.31220	         8.27279e+57
          1509.11850	         9.30465e+57
          1509.92480	         9.83141e+57
          1510.73110	         8.67698e+57
          1511.53740	         7.95183e+57
          1512.34370	         8.16653e+57
          1513.15000	         9.39237e+57
          1513.95630	         1.04097e+58
          1514.76260	         9.26075e+57
          1515.56890	         8.90620e+57
          1516.37520	         9.00767e+57
          1517.18150	         9.24113e+57
          1517.98780	         7.82165e+57
          1518.79410	         6.88874e+57
          1519.60040	         8.66130e+57
          1520.40670	         1.01590e+58
          1521.21300	         9.98471e+57
          1522.01930	         8.58869e+57
          1522.82560	         9.28933e+57
          1523.63190	         1.03562e+58
          1524.43820	         8.90589e+57
          1525.24450	         6.61635e+57
          1526.05080	         6.05176e+57
          1526.85710	         5.99816e+57
          1527.66340	         6.93590e+57
          1528.46970	         8.60262e+57
          1529.27600	         8.90330e+57
          1530.08230	         7.54313e+57
          1530.88860	         7.34587e+57
          1531.69490	         9.07541e+57
          1532.50120	         9.75110e+57
          1533.30750	         9.87900e+57
          1534.11380	         9.46372e+57
          1534.92010	         9.57379e+57
          1535.72640	         1.00695e+58
          1536.53270	         1.05960e+58
          1537.33900	         9.10188e+57
          1538.14530	         8.91313e+57
          1538.95160	         1.02590e+58
          1539.75790	         9.31508e+57
          1540.56420	         7.94264e+57
          1541.37050	         8.81702e+57
          1542.17680	         8.77695e+57
          1542.98310	         8.29588e+57
          1543.78940	         7.29919e+57
          1544.59570	         6.80550e+57
          1545.40200	         8.26936e+57
          1546.20830	         9.01413e+57
          1547.01460	         1.03565e+58
          1547.82090	         1.12268e+58
          1548.62720	         1.17163e+58
          1549.43350	         1.20175e+58
          1550.23980	         1.10439e+58
          1551.04610	         1.18668e+58
          1551.85240	         1.20579e+58
          1552.65870	         1.08239e+58
          1553.46500	         9.82230e+57
          1554.27130	         1.06198e+58
          1555.07760	         1.00752e+58
          1555.88390	         8.68678e+57
          1556.69020	         8.38469e+57
          1557.49650	         8.82986e+57
          1558.30280	         9.63404e+57
          1559.10910	         8.84976e+57
          1559.91540	         8.75046e+57
          1560.72170	         9.78213e+57
          1561.52800	         9.87840e+57
          1562.33430	         8.97960e+57
          1563.14060	         7.90436e+57
          1563.94690	         8.56297e+57
          1564.75320	         8.64032e+57
          1565.55950	         7.79068e+57
          1566.36580	         8.23211e+57
          1567.17210	         9.01477e+57
          1567.97840	         9.68761e+57
          1568.78470	         9.45378e+57
          1569.59100	         9.21295e+57
          1570.39730	         8.25804e+57
          1571.20360	         7.27698e+57
          1572.00990	         8.78867e+57
          1572.81620	         9.47074e+57
          1573.62250	         9.79613e+57
          1574.42880	         9.92904e+57
          1575.23510	         8.77901e+57
          1576.04140	         9.31570e+57
          1576.84770	         1.00444e+58
          1577.65400	         8.67427e+57
          1578.46030	         9.55766e+57
          1579.26660	         1.10025e+58
          1580.07290	         9.78199e+57
          1580.87920	         7.86780e+57
          1581.68550	         8.21914e+57
          1582.49180	         8.99324e+57
          1583.29810	         8.47967e+57
          1584.10440	         8.80098e+57
          1584.91070	         9.10225e+57
          1585.71700	         8.67360e+57
          1586.52330	         8.69324e+57
          1587.32960	         8.89830e+57
          1588.13590	         9.54028e+57
          1588.94220	         9.06907e+57
          1589.74850	         8.32579e+57
          1590.55480	         9.31152e+57
          1591.36110	         8.73545e+57
          1592.16740	         8.70847e+57
          1592.97370	         9.17281e+57
          1593.78000	         9.12888e+57
          1594.58630	         9.37323e+57
          1595.39260	         8.90218e+57
          1596.19890	         8.46197e+57
          1597.00520	         9.20029e+57
          1597.81150	         9.40523e+57
          1598.61780	         8.01146e+57
          1599.42410	         7.64132e+57
          1600.23040	         6.83096e+57
          1601.03670	         7.54911e+57
          1601.84300	         7.98731e+57
          1602.64930	         9.00689e+57
          1603.45560	         9.30692e+57
          1604.26190	         8.63189e+57
          1605.06820	         7.83852e+57
          1605.87450	         7.48142e+57
          1606.68080	         6.93275e+57
          1607.48710	         6.09596e+57
          1608.29340	         6.21817e+57
          1609.09970	         7.53754e+57
          1609.90600	         8.24035e+57
          1610.71230	         6.71644e+57
          1611.51860	         6.84166e+57
          1612.32490	         6.81855e+57
          1613.13120	         7.70306e+57
          1613.93750	         8.07472e+57
          1614.74380	         9.14722e+57
          1615.55010	         9.98653e+57
          1616.35640	         1.00550e+58
          1617.16270	         9.64432e+57
          1617.96900	         1.03265e+58
          1618.77530	         1.00989e+58
          1619.58160	         8.50706e+57
          1620.38790	         7.75745e+57
          1621.19420	         8.83188e+57
          1622.00050	         9.59382e+57
          1622.80680	         9.95477e+57
          1623.61310	         9.09336e+57
          1624.41940	         7.75813e+57
          1625.22570	         8.37100e+57
          1626.03200	         8.79127e+57
          1626.83830	         7.47538e+57
          1627.64460	         6.54105e+57
          1628.45090	         6.95943e+57
          1629.25720	         1.00393e+58
          1630.06350	         9.09145e+57
          1630.86980	         4.98361e+57
          1631.67610	         6.67245e+57
          1632.48240	         8.41201e+57
          1633.28870	         8.82491e+57
          1634.09500	         1.13238e+58
          1634.90130	         1.15618e+58
          1635.70760	         8.68045e+57
          1636.51390	         7.86466e+57
          1637.32020	         9.12811e+57
          1638.12650	         9.22703e+57
          1638.93280	         9.23092e+57
          1639.73910	         1.09169e+58
          1640.54540	         1.08397e+58
          1641.35170	         9.83631e+57
          1642.15800	         9.83093e+57
          1642.96430	         8.63635e+57
          1643.77060	         9.43497e+57
          1644.57690	         9.40173e+57
          1645.38320	         8.34273e+57
          1646.18950	         7.66873e+57
          1646.99580	         7.92558e+57
          1647.80210	         8.36067e+57
          1648.60840	         7.91639e+57
          1649.41470	         7.90411e+57
          1650.22100	         6.10924e+57
          1651.02730	         7.47894e+57
          1651.83360	         9.03526e+57
          1652.63990	         8.67000e+57
          1653.44620	         8.96984e+57
          1654.25250	         8.74703e+57
          1655.05880	         8.23838e+57
          1655.86510	         8.69808e+57
          1656.67140	         8.89659e+57
          1657.47770	         8.70091e+57
          1658.28400	         8.50476e+57
          1659.09030	         9.21010e+57
          1659.89660	         1.03685e+58
          1660.70290	         1.02935e+58
          1661.50920	         1.00739e+58
          1662.31550	         9.05931e+57
          1663.12180	         8.37052e+57
          1663.92810	         9.52574e+57
          1664.73440	         1.14238e+58
          1665.54070	         1.25292e+58
          1666.34700	         1.23599e+58
          1667.15330	         1.07040e+58
          1667.95960	         9.69072e+57
          1668.76590	         8.67575e+57
          1669.57220	         7.73729e+57
          1670.37850	         8.30296e+57
          1671.18480	         8.12470e+57
          1671.99110	         7.43018e+57
          1672.79740	         7.41079e+57
          1673.60370	         7.24495e+57
          1674.41000	         7.11143e+57
          1675.21630	         8.03082e+57
          1676.02260	         7.48791e+57
          1676.82890	         7.34429e+57
          1677.63520	         7.96699e+57
          1678.44150	         7.19664e+57
          1679.24780	         9.55087e+57
          1680.05410	         8.60913e+57
          1680.86040	         6.23870e+57
          1681.66670	         7.35407e+57
          1682.47300	         7.38985e+57
          1683.27930	         7.41688e+57
          1684.08560	         8.05639e+57
          1684.89190	         7.45212e+57
          1685.69820	         4.87204e+57
          1686.50450	         4.87866e+57
          1687.31080	         6.44552e+57
          1688.11710	         7.36388e+57
          1688.92340	         7.24917e+57
          1689.72970	         6.68782e+57
          1690.53600	         7.50855e+57
          1691.34230	         7.63427e+57
          1692.14860	         7.68867e+57
          1692.95490	         8.20534e+57
          1693.76120	         7.48550e+57
          1694.56750	         6.97493e+57
          1695.37380	         8.65951e+57
          1696.18010	         9.81681e+57
          1696.98640	         9.15734e+57
          1697.79270	         7.33762e+57
          1698.59900	         7.97780e+57
          1699.40530	         8.64688e+57
          1700.21160	         8.07082e+57
          1701.01790	         8.05398e+57
          1701.82420	         7.92578e+57
          1702.63050	         8.47809e+57
          1703.43680	         8.69576e+57
          1704.24310	         7.83084e+57
          1705.04940	         7.16406e+57
          1705.85570	         7.31197e+57
          1706.66200	         8.88882e+57
          1707.46830	         9.42165e+57
          1708.27460	         8.88436e+57
          1709.08090	         7.96472e+57
          1709.88720	         6.35689e+57
          1710.69350	         5.95645e+57
          1711.49980	         6.68932e+57
          1712.30610	         6.73521e+57
          1713.11240	         8.32117e+57
          1713.91870	         7.92208e+57
          1714.72500	         8.75167e+57
          1715.53130	         9.04868e+57
          1716.33760	         7.99142e+57
          1717.14390	         7.99363e+57
          1717.95020	         9.69215e+57
          1718.75650	         9.92985e+57
          1719.56280	         9.05881e+57
          1720.36910	         7.36169e+57
          1721.17540	         6.90629e+57
          1721.98170	         6.59121e+57
          1722.78800	         6.49315e+57
          1723.59430	         8.16552e+57
          1724.40060	         8.43953e+57
          1725.20690	         7.93222e+57
          1726.01320	         8.30872e+57
          1726.81950	         8.57098e+57
          1727.62580	         8.58497e+57
          1728.43210	         7.00761e+57
          1729.23840	         7.13931e+57
          1730.04470	         8.29839e+57
          1730.85100	         9.14986e+57
          1731.65730	         8.09409e+57
          1732.46360	         7.16612e+57
          1733.26990	         6.59027e+57
          1734.07620	         6.85473e+57
          1734.88250	         8.03522e+57
          1735.68880	         8.51709e+57
          1736.49510	         8.87431e+57
          1737.30140	         8.60244e+57
          1738.10770	         7.79782e+57
          1738.91400	         7.21943e+57
          1739.72030	         7.20751e+57
          1740.52660	         6.65981e+57
          1741.33290	         5.89378e+57
          1742.13920	         5.74189e+57
          1742.94550	         7.13596e+57
          1743.75180	         8.10210e+57
          1744.55810	         7.99539e+57
          1745.36440	         7.59242e+57
          1746.17070	         5.52171e+57
          1746.97700	         4.96701e+57
          1747.78330	         7.24241e+57
          1748.58960	         7.07400e+57
          1749.39590	         6.36231e+57
          1750.20220	         5.89136e+57
          1751.00850	         6.32856e+57
          1751.81480	         5.96518e+57
          1752.62110	         6.72128e+57
          1753.42740	         7.80225e+57
          1754.23370	         6.53428e+57
          1755.04000	         6.81796e+57
          1755.84630	         8.11243e+57
          1756.65260	         9.22604e+57
          1757.45890	         9.22578e+57
          1758.26520	         7.15026e+57
          1759.07150	         7.76741e+57
          1759.87780	         8.81866e+57
          1760.68410	         8.83558e+57
          1761.49040	         8.46994e+57
          1762.29670	         6.41471e+57
          1763.10300	         7.36534e+57
          1763.90930	         8.06117e+57
          1764.71560	         9.37475e+57
          1765.52190	         9.18664e+57
          1766.32820	         8.64987e+57
          1767.13450	         8.27578e+57
          1767.94080	         6.77984e+57
          1768.74710	         6.88553e+57
          1769.55340	         6.16801e+57
          1770.35970	         5.86334e+57
          1771.16600	         7.55931e+57
          1771.97230	         8.57222e+57
          1772.77860	         8.01036e+57
          1773.58490	         7.83442e+57
          1774.39120	         6.28643e+57
          1775.19750	         6.91267e+57
          1776.00380	         7.78428e+57
          1776.81010	         7.27496e+57
          1777.61640	         7.58438e+57
          1778.42270	         7.98496e+57
          1779.22900	         7.35520e+57
          1780.03530	         6.83581e+57
          1780.84160	         7.19545e+57
          1781.64790	         7.79490e+57
          1782.45420	         7.63937e+57
          1783.26050	         7.12965e+57
          1784.06680	         7.39734e+57
          1784.87310	         7.19165e+57
          1785.67940	         7.46991e+57
          1786.48570	         7.68971e+57
          1787.29200	         7.39017e+57
          1788.09830	         6.53197e+57
          1788.90460	         4.98410e+57
          1789.71090	         5.25833e+57
          1790.51720	         5.78885e+57
          1791.32350	         6.84454e+57
          1792.12980	         8.80308e+57
          1792.93610	         8.81190e+57
          1793.74240	         7.94719e+57
          1794.54870	         7.76327e+57
          1795.35500	         8.02533e+57
          1796.16130	         7.47010e+57
          1796.96760	         6.90635e+57
          1797.77390	         7.80941e+57
          1798.58020	         7.93226e+57
          1799.38650	         6.79460e+57
          1800.19280	         7.58583e+57
          1800.99910	         8.40043e+57
          1801.80540	         6.93841e+57
          1802.61170	         7.01416e+57
          1803.41800	         8.13905e+57
          1804.22430	         6.69507e+57
          1805.03060	         6.86872e+57
          1805.83690	         7.75151e+57
          1806.64320	         7.88937e+57
          1807.44950	         8.61394e+57
          1808.25580	         8.45152e+57
          1809.06210	         8.06562e+57
          1809.86840	         6.46933e+57
          1810.67470	         6.93577e+57
          1811.48100	         8.72973e+57
          1812.28730	         8.25794e+57
          1813.09360	         8.50053e+57
          1813.89990	         8.89388e+57
          1814.70620	         7.71337e+57
          1815.51250	         7.46629e+57
          1816.31880	         7.73716e+57
          1817.12510	         8.04287e+57
          1817.93140	         7.48538e+57
          1818.73770	         6.92170e+57
          1819.54400	         8.50349e+57
          1820.35030	         8.66513e+57
          1821.15660	         5.74673e+57
          1821.96290	         4.87760e+57
          1822.76920	         7.08580e+57
          1823.57550	         8.21185e+57
          1824.38180	         7.50121e+57
          1825.18810	         7.81395e+57
          1825.99440	         7.99398e+57
          1826.80070	         7.23353e+57
          1827.60700	         7.28153e+57
          1828.41330	         6.83539e+57
          1829.21960	         6.96827e+57
          1830.02590	         6.68175e+57
          1830.83220	         7.29133e+57
          1831.63850	         7.70465e+57
          1832.44480	         7.80468e+57
          1833.25110	         8.72499e+57
          1834.05740	         8.76294e+57
          1834.86370	         7.26522e+57
          1835.67000	         6.25622e+57
          1836.47630	         7.38060e+57
          1837.28260	         8.37607e+57
          1838.08890	         9.11842e+57
          1838.89520	         8.32148e+57
          1839.70150	         7.92702e+57
          1840.50780	         8.05673e+57
          1841.31410	         7.34825e+57
          1842.12040	         7.03727e+57
          1842.92670	         6.68214e+57
          1843.73300	         7.25083e+57
          1844.53930	         7.28028e+57
          1845.34560	         6.47268e+57
          1846.15190	         6.87302e+57
          1846.95820	         7.67867e+57
          1847.76450	         7.10062e+57
          1848.57080	         4.31917e+57
          1849.37710	         5.56491e+57
          1850.18340	         8.44979e+57
          1850.98970	         8.98678e+57
          1851.79600	         8.65095e+57
          1852.60230	         6.84023e+57
          1853.40860	         6.73678e+57
          1854.21490	         6.76481e+57
          1855.02120	         6.27186e+57
          1855.82750	         5.18341e+57
          1856.63380	         6.70475e+57
          1857.44010	         7.23614e+57
          1858.24640	         7.54394e+57
          1859.05270	         8.02963e+57
          1859.85900	         6.18649e+57
          1860.66530	         5.96620e+57
          1861.47160	         6.88922e+57
          1862.27790	         6.68244e+57
          1863.08420	         7.04532e+57
          1863.89050	         7.25448e+57
          1864.69680	         7.19401e+57
          1865.50310	         7.53587e+57
          1866.30940	         6.26026e+57
          1867.11570	         6.54108e+57
          1867.92200	         7.86093e+57
          1868.72830	         8.20149e+57
          1869.53460	         7.51561e+57
          1870.34090	         8.48008e+57
          1871.14720	         9.04951e+57
          1871.95350	         8.48229e+57
          1872.75980	         8.47531e+57
          1873.56610	         6.73435e+57
          1874.37240	         4.75365e+57
          1875.17870	         4.46986e+57
          1875.98500	         6.81641e+57
          1876.79130	         8.21175e+57
          1877.59760	         7.80332e+57
          1878.40390	         6.75828e+57
          1879.21020	         6.73481e+57
          1880.01650	         7.51005e+57
          1880.82280	         7.55102e+57
          1881.62910	         8.52685e+57
          1882.43540	         9.79576e+57
          1883.24170	         9.29228e+57
          1884.04800	         7.18716e+57
          1884.85430	         7.69691e+57
          1885.66060	         8.96281e+57
          1886.46690	         8.94701e+57
          1887.27320	         8.63512e+57
          1888.07950	         6.61693e+57
          1888.88580	         6.59238e+57
          1889.69210	         8.97093e+57
          1890.49840	         9.32391e+57
          1891.30470	         7.96855e+57
          1892.11100	         8.88978e+57
          1892.91730	         9.14904e+57
          1893.72360	         8.11511e+57
          1894.52990	         7.12422e+57
          1895.33620	         8.10283e+57
          1896.14250	         8.52672e+57
          1896.94880	         6.29199e+57
          1897.75510	         4.33981e+57
          1898.56140	         5.93942e+57
          1899.36770	         8.19069e+57
          1900.17400	         5.79212e+57
          1900.98030	         6.57452e+57
          1901.78660	         6.77759e+57
          1902.59290	         7.35238e+57
          1903.39920	         9.34300e+57
          1904.20550	         9.53901e+57
          1905.01180	         8.72516e+57
          1905.81810	         9.44744e+57
          1906.62440	         1.20788e+58
          1907.43070	         1.46988e+58
          1908.23700	         1.55668e+58
          1909.04330	         1.31556e+58
          1909.84960	         1.14000e+58
          1910.65590	         1.08722e+58
          1911.46220	         9.36767e+57
          1912.26850	         7.48439e+57
          1913.07480	         5.76105e+57
          1913.88110	         5.81646e+57
          1914.68740	         6.02517e+57
          1915.49370	         5.59802e+57
          1916.30000	         6.65199e+57
          1917.10630	         7.31134e+57
          1917.91260	         7.96578e+57
          1918.71890	         7.02964e+57
          1919.52520	         6.26304e+57
          1920.33150	         5.91717e+57
          1921.13780	         7.05174e+57
          1921.94410	         8.04487e+57
          1922.75040	         6.85849e+57
          1923.55670	         7.25695e+57
          1924.36300	         8.16803e+57
          1925.16930	         6.62968e+57
          1925.97560	         6.41716e+57
          1926.78190	         4.75399e+57
          1927.58820	         5.33234e+57
          1928.39450	         6.33552e+57
          1929.20080	         6.23846e+57
          1930.00710	         7.42259e+57
          1930.81340	         8.17317e+57
          1931.61970	         6.78115e+57
          1932.42600	         6.34595e+57
          1933.23230	         8.35010e+57
          1934.03860	         7.24652e+57
          1934.84490	         5.34413e+57
          1935.65120	         7.28940e+57
          1936.45750	         8.18328e+57
          1937.26380	         5.93582e+57
          1938.07010	         6.51540e+57
          1938.87640	         6.85281e+57
          1939.68270	         7.67801e+57
          1940.48900	         8.25977e+57
          1941.29530	         8.47492e+57
          1942.10160	         7.69958e+57
          1942.90790	         6.98254e+57
          1943.71420	         6.86013e+57
          1944.52050	         7.09971e+57
          1945.32680	         6.08228e+57
          1946.13310	         7.17807e+57
          1946.93940	         8.11421e+57
          1947.74570	         7.48591e+57
          1948.55200	         6.80005e+57
          1949.35830	         6.00465e+57
          1950.16460	         6.62419e+57
          1950.97090	         7.43857e+57
          1951.77720	         7.57368e+57
          1952.58350	         7.83212e+57
          1953.38980	         6.52109e+57
          1954.19610	         4.92802e+57
          1955.00240	         5.82660e+57
          1955.80870	         6.05752e+57
          1956.61500	         6.51781e+57
          1957.42130	         6.45086e+57
          1958.22760	         6.53879e+57
          1959.03390	         7.89117e+57
          1959.84020	         8.27763e+57
          1960.64650	         7.06978e+57
          1961.45280	         6.87835e+57
          1962.25910	         6.89848e+57
          1963.06540	         5.71241e+57
          1963.87170	         5.66440e+57
          1964.67800	         7.83227e+57
          1965.48430	         7.19112e+57
          1966.29060	         5.77873e+57
          1967.09690	         7.51231e+57
          1967.90320	         7.02971e+57
          1968.70950	         6.28364e+57
          1969.51580	         5.64050e+57
          1970.32210	         5.93794e+57
          1971.12840	         6.83819e+57
          1971.93470	         5.43094e+57
          1972.74100	         5.20106e+57
          1973.54730	         7.02049e+57
          1974.35360	         7.89707e+57
          1975.15990	         8.13051e+57
          1975.96620	         7.60382e+57
          1976.77250	         7.72302e+57
          1977.57880	         7.39400e+57
          1978.38510	         6.29756e+57
          1979.19140	         6.84365e+57
          1979.99770	         7.45982e+57
          1980.80400	         7.70417e+57
          1981.61030	         6.81520e+57
          1982.41660	         5.51893e+57
          1983.22290	         7.11223e+57
          1984.02920	         6.13810e+57
          1984.83550	         5.64966e+57
          1985.64180	         6.67619e+57
          1986.44810	         6.59327e+57
          1987.25440	         6.00210e+57
          1988.06070	         5.49390e+57
          1988.86700	         5.77797e+57
          1989.67330	         5.96296e+57
          1990.47960	         6.02561e+57
          1991.28590	         6.42171e+57
          1992.09220	         6.23619e+57
          1992.89850	         5.31354e+57
          1993.70480	         4.51016e+57
          1994.51110	         3.21204e+57
          1995.31740	         4.20377e+57
          1996.12370	         5.39477e+57
          1996.93000	         6.10054e+57
          1997.73630	         7.63436e+57
          1998.54260	         7.62458e+57
          1999.34890	         7.06100e+57
          2000.15520	         6.90796e+57
          2000.96150	         7.36108e+57
          2001.76780	         5.70419e+57
          2002.57410	         5.17425e+57
          2003.38040	         7.37688e+57
          2004.18670	         7.09203e+57
          2004.99300	         5.68064e+57
          2005.79930	         7.29646e+57
          2006.60560	         7.42369e+57
          2007.41190	         6.18776e+57
          2008.21820	         7.25456e+57
          2009.02450	         7.54082e+57
          2009.83080	         6.58260e+57
          2010.63710	         5.93570e+57
          2011.44340	         6.12269e+57
          2012.24970	         7.82470e+57
          2013.05600	         7.43719e+57
          2013.86230	         6.22872e+57
          2014.66860	         5.03277e+57
          2015.47490	         7.03591e+57
          2016.28120	         6.55113e+57
          2017.08750	         5.36060e+57
          2017.89380	         5.96399e+57
          2018.70010	         5.97957e+57
          2019.50640	         5.63817e+57
          2020.31270	         6.92661e+57
          2021.11900	         6.74451e+57
          2021.92530	         6.36761e+57
          2022.73160	         6.85950e+57
          2023.53790	         6.95439e+57
          2024.34420	         6.13873e+57
          2025.15050	         5.46207e+57
          2025.95680	         5.01872e+57
          2026.76310	         6.26188e+57
          2027.56940	         8.27291e+57
          2028.37570	         5.95565e+57
          2029.18200	         6.13517e+57
          2029.98830	         7.10691e+57
          2030.79460	         6.74671e+57
          2031.60090	         5.51419e+57
          2032.40720	         4.85390e+57
          2033.21350	         6.38723e+57
          2034.01980	         5.70304e+57
          2034.82610	         4.70844e+57
          2035.63240	         5.67342e+57
          2036.43870	         5.76039e+57
          2037.24500	         6.46188e+57
          2038.05130	         7.30676e+57
          2038.85760	         6.51289e+57
          2039.66390	         6.05417e+57
          2040.47020	         5.63337e+57
          2041.27650	         7.14466e+57
          2042.08280	         5.76772e+57
          2042.88910	         4.84618e+57
          2043.69540	         5.16231e+57
          2044.50170	         5.98935e+57
          2045.30800	         5.25761e+57
          2046.11430	         4.60341e+57
          2046.92060	         4.73816e+57
          2047.72690	         6.25215e+57
          2048.53320	         5.89949e+57
          2049.33950	         4.62616e+57
          2050.14580	         6.53943e+57
          2050.95210	         6.64326e+57
          2051.75840	         8.25857e+57
          2052.56470	         5.80625e+57
          2053.37100	         4.71500e+57
          2054.17730	         4.80590e+57
          2054.98360	         4.36261e+57
          2055.78990	         4.25431e+57
          2056.59620	         2.94404e+57
          2057.40250	         4.89177e+57
          2058.20880	         6.28915e+57
          2059.01510	         7.68386e+57
          2059.82140	         6.94776e+57
          2060.62770	         1.06824e+58
          2061.43400	         1.47206e+58
          2062.24030	         1.15429e+58
          2063.04660	         6.36432e+57
          2063.85290	        -1.18492e+57
          2064.65920	        -3.40673e+57
          2065.46550	        -7.91590e+57
          2066.27180	        -9.62582e+57
          2067.07810	         3.16050e+57
          2067.88440	         5.35229e+57
          2068.69070	         6.36797e+57
          2069.49700	         4.26269e+57
          2070.30330	         3.50754e+57
          2071.10960	         6.59195e+57
          2071.91590	         6.66580e+57
          2072.72220	         4.14663e+57
          2073.52850	         4.17075e+57
          2074.33480	         4.47379e+57
          2075.14110	         5.55828e+57
          2075.94740	         5.42859e+57
          2076.75370	         5.01571e+57
          2077.56000	         5.57844e+57
          2078.36630	         5.79234e+57
          2079.17260	         4.64290e+57
          2079.97890	         5.92612e+57
          2080.78520	         4.92586e+57
          2081.59150	         4.92792e+57
          2082.39780	         4.62105e+57
          2083.20410	         2.97678e+57
          2084.01040	         2.22724e+57
          2084.81670	         3.20146e+57
          2085.62300	         3.43949e+57
          2086.42930	         4.97711e+57
          2087.23560	         4.20346e+57
          2088.04190	         4.26179e+57
          2088.84820	         2.52984e+57
          2089.65450	         1.82832e+57
          2090.46080	         1.77737e+57
          2091.26710	         3.23830e+57
          2092.07340	         3.11461e+57
          2092.87970	         4.03609e+57
          2093.68600	        -1.11792e+56
          2094.49230	        -2.24619e+56
          2095.29860	         4.78659e+57
          2096.10490	         3.22911e+57
          2096.91120	         1.52043e+57
          2097.71750	        -6.27585e+56
          2098.52380	         8.84673e+55
          2099.33010	         1.59889e+56
          2100.13640	         8.01070e+56
          2100.94270	         1.92736e+57
          2101.74900	         3.88430e+57
          2102.55530	         2.83753e+57
          2103.36160	         3.35160e+57
          2104.16790	         4.26710e+57
          2104.97420	         2.05209e+57
          2105.78050	         1.54204e+57
          2106.58680	         2.73047e+57
          2107.39310	        -1.43629e+57
          2108.19940	        -8.07651e+56
          2109.00570	        -1.38570e+57
          2109.81200	         9.17559e+56
          2110.61830	         1.24674e+57
          2111.42460	         6.29360e+55
          2112.23090	         9.62065e+56
          2113.03720	        -2.68690e+56
          2113.84350	         6.51673e+56
          2114.64980	         4.72184e+57
          2115.45610	        -1.06500e+57
          2116.26240	        -8.05123e+57
          2117.06870	        -2.20557e+57
          2117.87500	        -9.02141e+56
          2118.68130	         1.76224e+57
          2119.48760	         1.43671e+57
          2120.29390	         1.55484e+57
          2121.10020	        -2.34525e+57
          2121.90650	        -3.45758e+57
          2122.71280	        -2.06366e+57
          2123.51910	         3.94916e+57
          2124.32540	         8.28231e+56
          2125.13170	         6.20128e+56
          2125.93800	         6.43302e+57
          2126.74430	        -1.10087e+57
          2127.55060	        -2.75238e+57
          2128.35690	        -2.88281e+56
          2129.16320	        -5.45687e+57
          2129.96950	        -3.71690e+57
          2130.77580	        -1.83038e+57
          2131.58210	         2.06609e+56
          2132.38840	        -2.03082e+57
          2133.19470	        -6.48309e+56
          2134.00100	        -2.80437e+56
          2134.80730	        -1.06755e+57
          2135.61360	         7.65223e+57
          2136.41990	         6.79687e+57
          2137.22620	         1.78894e+57
          2138.03250	        -4.07343e+57
          2138.83880	        -8.45321e+57
          2139.64510	        -4.00508e+56
          2140.45140	        -3.37370e+57
          2141.25770	        -8.81785e+57
          2142.06400	        -4.31463e+57
          2142.87030	        -3.76140e+57
          2143.67660	         5.11699e+57
          2144.48290	         5.90311e+57
          2145.28920	         6.06144e+57
          2146.09550	        -1.06425e+58
          2146.90180	        -5.12789e+57
          2147.70810	        -1.34397e+58
          2148.51440	         2.43472e+57
          2149.32070	        -7.27425e+57
          2150.12700	        -8.47133e+57
          2150.93330	        -8.97152e+57
          2151.73960	        -6.48384e+57
          2152.54590	         2.77130e+57
          2153.35220	         6.91954e+57
          2154.15850	        -1.18101e+57
          2154.96480	         4.16929e+57
          2155.77110	        -4.22639e+57
          2156.57740	        -3.56908e+57
          2157.38370	         1.13219e+58
          2158.19000	        -1.17974e+57
          2158.99630	        -8.77195e+57
          2159.80260	        -1.28420e+58
          2160.60890	        -1.51272e+58
          2161.41520	        -8.13333e+57
          2162.22150	        -6.60760e+56
          2163.02780	         9.22209e+57
          2163.83410	        -4.70000e+57
          2164.64040	        -9.48439e+57
          2165.44670	        -1.07415e+58
          2166.25300	        -2.77624e+57
          2167.05930	        -4.62448e+57
          2167.86560	        -1.81891e+58
          2168.67190	        -7.04904e+57
          2169.47820	         2.17617e+57
          2170.28450	        -3.28218e+57
          2171.09080	        -1.40046e+57
          2171.89710	         2.64395e+57
          2172.70340	        -5.35470e+57
          2173.50970	        -8.89086e+57
          2174.31600	        -4.02624e+57
          2175.12230	         9.88730e+56
          2175.92860	        -3.00516e+57
          2176.73490	        -3.85972e+57
          2177.54120	        -1.67718e+57
          2178.34750	         7.96935e+55
          2179.15380	                 nan
          2179.96010	                 nan
          2180.76640	                 nan
          2181.57270	                 nan
          2182.37900	                 nan
          2183.18530	                 nan
          2183.99160	                 nan
          2184.79790	                 nan
          2185.60420	                 nan
          2186.41050	                 nan
          2187.21680	                 nan
          2188.02310	                 nan
          2188.82940	                 nan
          2189.63570	                 nan
          2190.44200	                 nan
          2191.24830	                 nan
          2192.05460	                 nan
          2192.86090	                 nan
          2193.66720	                 nan
          2194.47350	                 nan
          2195.27980	                 nan
          2196.08610	                 nan
          2196.89240	                 nan
          2197.69870	                 nan
          2198.50500	                 nan
          2199.31130	                 nan
          2200.11760	                 nan
          2200.92390	                 nan
          2201.73020	                 nan
          2202.53650	                 nan
          2203.34280	                 nan
          2204.14910	                 nan
          2204.95540	                 nan
          2205.76170	                 nan
          2206.56800	                 nan
          2207.37430	                 nan
          2208.18060	                 nan
          2208.98690	                 nan
          2209.79320	                 nan
          2210.59950	                 nan
          2211.40580	                 nan
          2212.21210	                 nan
          2213.01840	                 nan
          2213.82470	                 nan
          2214.63100	                 nan
          2215.43730	         0.00000e+00
