#sample_54_stacked_spectrum_rest_UV-bands_median_H-alpha_noDC.txt
#median Lum: 1.71638e+42
#Rest-frame wavelength (A) | Luminosity (erg/s/A)
#
          1110.00000	         0.00000e+00
          1110.80630	        -1.24995e+59
          1111.61260	         9.43751e+58
          1112.41890	        -1.74974e+58
          1113.22520	        -4.06101e+58
          1114.03150	         3.83164e+58
          1114.83780	         2.39419e+59
          1115.64410	         1.19053e+59
          1116.45040	         1.92529e+58
          1117.25670	        -1.42969e+58
          1118.06300	        -7.81702e+57
          1118.86930	         8.62242e+56
          1119.67560	         8.86637e+58
          1120.48190	        -7.39942e+58
          1121.28820	        -1.42115e+59
          1122.09450	         3.68806e+58
          1122.90080	         1.20695e+58
          1123.70710	         6.66863e+58
          1124.51340	         2.97747e+58
          1125.31970	         4.36281e+58
          1126.12600	         2.00748e+58
          1126.93230	        -2.61835e+58
          1127.73860	        -5.50887e+58
          1128.54490	        -4.24179e+58
          1129.35120	        -1.87480e+58
          1130.15750	        -1.42546e+58
          1130.96380	        -1.30954e+58
          1131.77010	         3.87142e+58
          1132.57640	         4.32439e+58
          1133.38270	         3.73666e+58
          1134.18900	         1.12434e+58
          1134.99530	         2.21298e+58
          1135.80160	         3.43830e+57
          1136.60790	        -2.30543e+57
          1137.41420	        -5.63621e+57
          1138.22050	         3.64364e+58
          1139.02680	         2.87445e+58
          1139.83310	         1.50875e+58
          1140.63940	         1.84139e+58
          1141.44570	        -1.46207e+57
          1142.25200	        -3.35519e+57
          1143.05830	         1.32243e+58
          1143.86460	         1.17137e+58
          1144.67090	         1.08537e+58
          1145.47720	         1.58827e+58
          1146.28350	         2.21979e+58
          1147.08980	         2.16238e+58
          1147.89610	         8.15951e+57
          1148.70240	         2.05972e+58
          1149.50870	         2.22915e+58
          1150.31500	         1.24106e+58
          1151.12130	        -6.25802e+55
          1151.92760	        -1.78033e+57
          1152.73390	         8.51798e+56
          1153.54020	         1.59568e+58
          1154.34650	         2.34390e+58
          1155.15280	         2.41863e+58
          1155.95910	         1.04230e+58
          1156.76540	         4.06957e+57
          1157.57170	        -4.75417e+57
          1158.37800	        -5.35923e+57
          1159.18430	        -8.16312e+57
          1159.99060	         1.82475e+57
          1160.79690	        -4.53969e+57
          1161.60320	         8.27546e+57
          1162.40950	         1.30661e+58
          1163.21580	         1.75542e+58
          1164.02210	         1.22015e+58
          1164.82840	         6.76843e+57
          1165.63470	         2.06949e+58
          1166.44100	         2.89625e+58
          1167.24730	         1.32925e+58
          1168.05360	         9.86857e+57
          1168.85990	         9.45458e+57
          1169.66620	         2.50739e+56
          1170.47250	         8.24444e+57
          1171.27880	         2.00132e+58
          1172.08510	         2.13332e+58
          1172.89140	         1.24082e+58
          1173.69770	         1.84777e+56
          1174.50400	         7.39331e+57
          1175.31030	         1.12731e+58
          1176.11660	         9.32042e+57
          1176.92290	         1.75747e+58
          1177.72920	         1.41283e+58
          1178.53550	         5.20874e+57
          1179.34180	         7.03147e+57
          1180.14810	         1.69391e+58
          1180.95440	         1.00216e+58
          1181.76070	         3.83640e+57
          1182.56700	         5.89811e+57
          1183.37330	         4.15595e+57
          1184.17960	         9.13648e+57
          1184.98590	         1.00458e+58
          1185.79220	         4.31819e+57
          1186.59850	         7.75101e+57
          1187.40480	         1.15379e+58
          1188.21110	         8.36245e+57
          1189.01740	         6.46666e+57
          1189.82370	         9.10091e+57
          1190.63000	         1.03538e+58
          1191.43630	         1.40851e+58
          1192.24260	         7.91432e+57
          1193.04890	         9.24207e+57
          1193.85520	         1.24009e+58
          1194.66150	         9.16167e+57
          1195.46780	         1.05945e+58
          1196.27410	         1.14313e+58
          1197.08040	         9.08320e+57
          1197.88670	         1.11420e+58
          1198.69300	         1.37343e+58
          1199.49930	         1.58958e+58
          1200.30560	         1.19356e+58
          1201.11190	         8.66890e+57
          1201.91820	         9.77044e+57
          1202.72450	         9.21509e+57
          1203.53080	         7.99114e+57
          1204.33710	         6.44244e+57
          1205.14340	         5.18783e+57
          1205.94970	         8.63610e+57
          1206.75600	         8.01095e+57
          1207.56230	         6.91557e+57
          1208.36860	         1.12839e+58
          1209.17490	         6.83289e+57
          1209.98120	         4.76012e+57
          1210.78750	         7.18970e+57
          1211.59380	         1.05390e+58
          1212.40010	         1.85584e+58
          1213.20640	         2.02218e+58
          1214.01270	         2.04538e+58
          1214.81900	         2.38150e+58
          1215.62530	         4.24944e+58
          1216.43160	         8.89829e+58
          1217.23790	         1.50717e+59
          1218.04420	         1.14662e+59
          1218.85050	         8.60154e+58
          1219.65680	         5.72021e+58
          1220.46310	         3.32552e+58
          1221.26940	         2.34168e+58
          1222.07570	         1.18051e+58
          1222.88200	         1.04013e+58
          1223.68830	         1.01332e+58
          1224.49460	         7.37600e+57
          1225.30090	         5.78618e+57
          1226.10720	         5.72491e+57
          1226.91350	         6.63352e+57
          1227.71980	         6.67575e+57
          1228.52610	         7.80671e+57
          1229.33240	         5.85681e+57
          1230.13870	         8.40871e+57
          1230.94500	         9.09327e+57
          1231.75130	         7.79287e+57
          1232.55760	         9.21637e+57
          1233.36390	         9.30436e+57
          1234.17020	         9.67691e+57
          1234.97650	         7.33258e+57
          1235.78280	         8.57057e+57
          1236.58910	         1.24585e+58
          1237.39540	         1.21229e+58
          1238.20170	         1.36762e+58
          1239.00800	         1.60307e+58
          1239.81430	         1.56539e+58
          1240.62060	         1.17052e+58
          1241.42690	         1.21810e+58
          1242.23320	         1.35490e+58
          1243.03950	         9.34500e+57
          1243.84580	         8.72423e+57
          1244.65210	         8.64971e+57
          1245.45840	         8.24097e+57
          1246.26470	         7.43899e+57
          1247.07100	         6.23021e+57
          1247.87730	         3.66190e+57
          1248.68360	         3.35118e+57
          1249.48990	         8.47466e+57
          1250.29620	         1.01363e+58
          1251.10250	         8.06067e+57
          1251.90880	         5.98395e+57
          1252.71510	         4.20826e+57
          1253.52140	         5.44768e+57
          1254.32770	         1.07234e+58
          1255.13400	         1.23988e+58
          1255.94030	         1.12249e+58
          1256.74660	         1.03295e+58
          1257.55290	         1.11225e+58
          1258.35920	         1.01004e+58
          1259.16550	         7.05721e+57
          1259.97180	         6.63898e+57
          1260.77810	         1.08801e+58
          1261.58440	         1.16877e+58
          1262.39070	         8.57320e+57
          1263.19700	         1.11240e+58
          1264.00330	         1.02251e+58
          1264.80960	         1.00354e+58
          1265.61590	         1.28089e+58
          1266.42220	         1.35175e+58
          1267.22850	         1.16046e+58
          1268.03480	         1.55606e+58
          1268.84110	         1.54956e+58
          1269.64740	         1.22444e+58
          1270.45370	         1.24414e+58
          1271.26000	         1.13571e+58
          1272.06630	         1.16588e+58
          1272.87260	         1.38683e+58
          1273.67890	         1.51906e+58
          1274.48520	         1.34082e+58
          1275.29150	         1.06981e+58
          1276.09780	         1.04492e+58
          1276.90410	         1.42464e+58
          1277.71040	         1.29500e+58
          1278.51670	         1.15573e+58
          1279.32300	         1.23649e+58
          1280.12930	         1.25938e+58
          1280.93560	         1.05815e+58
          1281.74190	         1.15396e+58
          1282.54820	         1.44036e+58
          1283.35450	         1.22167e+58
          1284.16080	         1.12089e+58
          1284.96710	         1.52009e+58
          1285.77340	         1.43720e+58
          1286.57970	         1.16178e+58
          1287.38600	         1.47012e+58
          1288.19230	         1.65699e+58
          1288.99860	         1.37004e+58
          1289.80490	         1.04990e+58
          1290.61120	         1.35379e+58
          1291.41750	         1.52362e+58
          1292.22380	         1.24180e+58
          1293.03010	         1.12990e+58
          1293.83640	         1.24460e+58
          1294.64270	         9.59405e+57
          1295.44900	         4.91451e+57
          1296.25530	         5.74907e+57
          1297.06160	         1.00443e+58
          1297.86790	         9.84413e+57
          1298.67420	         7.46603e+57
          1299.48050	         1.05883e+58
          1300.28680	         1.39022e+58
          1301.09310	         1.02691e+58
          1301.89940	         4.31311e+57
          1302.70570	         6.45981e+57
          1303.51200	         9.28640e+57
          1304.31830	         1.07468e+58
          1305.12460	         1.00379e+58
          1305.93090	         1.02230e+58
          1306.73720	         1.27068e+58
          1307.54350	         1.45410e+58
          1308.34980	         1.50729e+58
          1309.15610	         1.64649e+58
          1309.96240	         1.68862e+58
          1310.76870	         1.26323e+58
          1311.57500	         1.25117e+58
          1312.38130	         1.38195e+58
          1313.18760	         1.43268e+58
          1313.99390	         1.66143e+58
          1314.80020	         1.83896e+58
          1315.60650	         1.68828e+58
          1316.41280	         1.41252e+58
          1317.21910	         1.02968e+58
          1318.02540	         1.06876e+58
          1318.83170	         1.07608e+58
          1319.63800	         1.14026e+58
          1320.44430	         1.16404e+58
          1321.25060	         1.16253e+58
          1322.05690	         1.16842e+58
          1322.86320	         1.06875e+58
          1323.66950	         9.95512e+57
          1324.47580	         8.67729e+57
          1325.28210	         8.57482e+57
          1326.08840	         1.08184e+58
          1326.89470	         1.35996e+58
          1327.70100	         1.21891e+58
          1328.50730	         9.06351e+57
          1329.31360	         1.09111e+58
          1330.11990	         1.01961e+58
          1330.92620	         8.99916e+57
          1331.73250	         1.19244e+58
          1332.53880	         1.16933e+58
          1333.34510	         9.61695e+57
          1334.15140	         9.06471e+57
          1334.95770	         9.14090e+57
          1335.76400	         1.05687e+58
          1336.57030	         9.72452e+57
          1337.37660	         1.08876e+58
          1338.18290	         1.30123e+58
          1338.98920	         1.26343e+58
          1339.79550	         1.28945e+58
          1340.60180	         1.18303e+58
          1341.40810	         1.16247e+58
          1342.21440	         1.25209e+58
          1343.02070	         1.12189e+58
          1343.82700	         1.21451e+58
          1344.63330	         1.29791e+58
          1345.43960	         1.34372e+58
          1346.24590	         1.26664e+58
          1347.05220	         1.20804e+58
          1347.85850	         9.63006e+57
          1348.66480	         1.11197e+58
          1349.47110	         1.38307e+58
          1350.27740	         1.35519e+58
          1351.08370	         1.14753e+58
          1351.89000	         1.06879e+58
          1352.69630	         1.16152e+58
          1353.50260	         1.28967e+58
          1354.30890	         1.26414e+58
          1355.11520	         1.27431e+58
          1355.92150	         1.18276e+58
          1356.72780	         1.17883e+58
          1357.53410	         1.20083e+58
          1358.34040	         1.19897e+58
          1359.14670	         1.17641e+58
          1359.95300	         1.21234e+58
          1360.75930	         1.26362e+58
          1361.56560	         1.19027e+58
          1362.37190	         1.23488e+58
          1363.17820	         1.18698e+58
          1363.98450	         1.19906e+58
          1364.79080	         1.28886e+58
          1365.59710	         1.35155e+58
          1366.40340	         1.22811e+58
          1367.20970	         9.82217e+57
          1368.01600	         9.55443e+57
          1368.82230	         9.00068e+57
          1369.62860	         1.27667e+58
          1370.43490	         1.13605e+58
          1371.24120	         9.18491e+57
          1372.04750	         9.20314e+57
          1372.85380	         1.22505e+58
          1373.66010	         1.24196e+58
          1374.46640	         1.12572e+58
          1375.27270	         1.20861e+58
          1376.07900	         1.00888e+58
          1376.88530	         7.33076e+57
          1377.69160	         7.08546e+57
          1378.49790	         7.49230e+57
          1379.30420	         7.24707e+57
          1380.11050	         7.18137e+57
          1380.91680	         8.13277e+57
          1381.72310	         8.67776e+57
          1382.52940	         9.07839e+57
          1383.33570	         9.72928e+57
          1384.14200	         1.02471e+58
          1384.94830	         9.87248e+57
          1385.75460	         9.85685e+57
          1386.56090	         1.07755e+58
          1387.36720	         1.07171e+58
          1388.17350	         1.38814e+58
          1388.97980	         1.09822e+58
          1389.78610	         8.91180e+57
          1390.59240	         8.69475e+57
          1391.39870	         7.81357e+57
          1392.20500	         8.32302e+57
          1393.01130	         7.63015e+57
          1393.81760	         7.23176e+57
          1394.62390	         8.09322e+57
          1395.43020	         5.84023e+57
          1396.23650	         4.59579e+57
          1397.04280	         8.11784e+57
          1397.84910	         9.53056e+57
          1398.65540	         8.20458e+57
          1399.46170	         9.67821e+57
          1400.26800	         8.43028e+57
          1401.07430	         7.95019e+57
          1401.88060	         8.76716e+57
          1402.68690	         9.49597e+57
          1403.49320	         8.95209e+57
          1404.29950	         8.76498e+57
          1405.10580	         9.71497e+57
          1405.91210	         1.16967e+58
          1406.71840	         1.15685e+58
          1407.52470	         1.08568e+58
          1408.33100	         1.02080e+58
          1409.13730	         1.15723e+58
          1409.94360	         1.12523e+58
          1410.74990	         9.89730e+57
          1411.55620	         9.60975e+57
          1412.36250	         1.00177e+58
          1413.16880	         9.11579e+57
          1413.97510	         8.01282e+57
          1414.78140	         8.25481e+57
          1415.58770	         1.07393e+58
          1416.39400	         1.26695e+58
          1417.20030	         1.13311e+58
          1418.00660	         1.05460e+58
          1418.81290	         1.13089e+58
          1419.61920	         1.09466e+58
          1420.42550	         1.27610e+58
          1421.23180	         1.26169e+58
          1422.03810	         1.18874e+58
          1422.84440	         1.10276e+58
          1423.65070	         1.25472e+58
          1424.45700	         1.13110e+58
          1425.26330	         8.63246e+57
          1426.06960	         9.30509e+57
          1426.87590	         1.00534e+58
          1427.68220	         1.02213e+58
          1428.48850	         1.07095e+58
          1429.29480	         9.33829e+57
          1430.10110	         8.66191e+57
          1430.90740	         8.25414e+57
          1431.71370	         8.74719e+57
          1432.52000	         8.82388e+57
          1433.32630	         8.04151e+57
          1434.13260	         8.04036e+57
          1434.93890	         7.69036e+57
          1435.74520	         9.00912e+57
          1436.55150	         1.05039e+58
          1437.35780	         9.89578e+57
          1438.16410	         9.38209e+57
          1438.97040	         8.71176e+57
          1439.77670	         8.94778e+57
          1440.58300	         9.78159e+57
          1441.38930	         9.95480e+57
          1442.19560	         9.47253e+57
          1443.00190	         9.00329e+57
          1443.80820	         1.06563e+58
          1444.61450	         9.96296e+57
          1445.42080	         9.04013e+57
          1446.22710	         1.14694e+58
          1447.03340	         1.14734e+58
          1447.83970	         1.08686e+58
          1448.64600	         1.11850e+58
          1449.45230	         1.06812e+58
          1450.25860	         1.08259e+58
          1451.06490	         9.13295e+57
          1451.87120	         8.06682e+57
          1452.67750	         7.54435e+57
          1453.48380	         8.72956e+57
          1454.29010	         8.34170e+57
          1455.09640	         7.60033e+57
          1455.90270	         8.81442e+57
          1456.70900	         9.59790e+57
          1457.51530	         1.02815e+58
          1458.32160	         1.19444e+58
          1459.12790	         1.15137e+58
          1459.93420	         1.03580e+58
          1460.74050	         7.68036e+57
          1461.54680	         7.30917e+57
          1462.35310	         8.11445e+57
          1463.15940	         7.94293e+57
          1463.96570	         1.02869e+58
          1464.77200	         1.11606e+58
          1465.57830	         9.79759e+57
          1466.38460	         9.19339e+57
          1467.19090	         9.29431e+57
          1467.99720	         9.66290e+57
          1468.80350	         9.92704e+57
          1469.60980	         9.25597e+57
          1470.41610	         9.69020e+57
          1471.22240	         9.45991e+57
          1472.02870	         8.61332e+57
          1472.83500	         9.43310e+57
          1473.64130	         1.11880e+58
          1474.44760	         1.06603e+58
          1475.25390	         9.13778e+57
          1476.06020	         8.88173e+57
          1476.86650	         8.41939e+57
          1477.67280	         7.77781e+57
          1478.47910	         6.83927e+57
          1479.28540	         7.90686e+57
          1480.09170	         9.18469e+57
          1480.89800	         9.16168e+57
          1481.70430	         9.47258e+57
          1482.51060	         1.00384e+58
          1483.31690	         9.39903e+57
          1484.12320	         9.03965e+57
          1484.92950	         9.09270e+57
          1485.73580	         7.50522e+57
          1486.54210	         8.22183e+57
          1487.34840	         8.78437e+57
          1488.15470	         8.17557e+57
          1488.96100	         8.30455e+57
          1489.76730	         9.17555e+57
          1490.57360	         8.40161e+57
          1491.37990	         7.08584e+57
          1492.18620	         7.35774e+57
          1492.99250	         7.90682e+57
          1493.79880	         7.46471e+57
          1494.60510	         8.72240e+57
          1495.41140	         9.18704e+57
          1496.21770	         9.58251e+57
          1497.02400	         1.08739e+58
          1497.83030	         8.94386e+57
          1498.63660	         6.96622e+57
          1499.44290	         7.82383e+57
          1500.24920	         8.40065e+57
          1501.05550	         8.75073e+57
          1501.86180	         8.49491e+57
          1502.66810	         9.71449e+57
          1503.47440	         1.01526e+58
          1504.28070	         9.42085e+57
          1505.08700	         9.46025e+57
          1505.89330	         8.88586e+57
          1506.69960	         8.75728e+57
          1507.50590	         9.64476e+57
          1508.31220	         9.65273e+57
          1509.11850	         8.77339e+57
          1509.92480	         8.88426e+57
          1510.73110	         8.74836e+57
          1511.53740	         7.19020e+57
          1512.34370	         7.19456e+57
          1513.15000	         9.08889e+57
          1513.95630	         1.07456e+58
          1514.76260	         9.79493e+57
          1515.56890	         7.91735e+57
          1516.37520	         7.98827e+57
          1517.18150	         8.39009e+57
          1517.98780	         7.79905e+57
          1518.79410	         7.49875e+57
          1519.60040	         8.69563e+57
          1520.40670	         1.02255e+58
          1521.21300	         9.41489e+57
          1522.01930	         8.86410e+57
          1522.82560	         9.43522e+57
          1523.63190	         1.03896e+58
          1524.43820	         9.25702e+57
          1525.24450	         7.04933e+57
          1526.05080	         6.80008e+57
          1526.85710	         6.33261e+57
          1527.66340	         6.80900e+57
          1528.46970	         7.72022e+57
          1529.27600	         8.28475e+57
          1530.08230	         8.68485e+57
          1530.88860	         8.14248e+57
          1531.69490	         8.38418e+57
          1532.50120	         9.20527e+57
          1533.30750	         9.64024e+57
          1534.11380	         1.02702e+58
          1534.92010	         1.02449e+58
          1535.72640	         1.01052e+58
          1536.53270	         1.00195e+58
          1537.33900	         8.75512e+57
          1538.14530	         9.22377e+57
          1538.95160	         1.00264e+58
          1539.75790	         8.17500e+57
          1540.56420	         7.08993e+57
          1541.37050	         7.13384e+57
          1542.17680	         6.84182e+57
          1542.98310	         6.93543e+57
          1543.78940	         7.68889e+57
          1544.59570	         7.95518e+57
          1545.40200	         7.82485e+57
          1546.20830	         8.69626e+57
          1547.01460	         1.08911e+58
          1547.82090	         1.17038e+58
          1548.62720	         1.18950e+58
          1549.43350	         1.17890e+58
          1550.23980	         1.03637e+58
          1551.04610	         1.15729e+58
          1551.85240	         1.19379e+58
          1552.65870	         1.19081e+58
          1553.46500	         1.04536e+58
          1554.27130	         9.85810e+57
          1555.07760	         9.55676e+57
          1555.88390	         8.32346e+57
          1556.69020	         8.82972e+57
          1557.49650	         9.53505e+57
          1558.30280	         9.49250e+57
          1559.10910	         9.16565e+57
          1559.91540	         9.25477e+57
          1560.72170	         8.73476e+57
          1561.52800	         8.50330e+57
          1562.33430	         8.34995e+57
          1563.14060	         8.09721e+57
          1563.94690	         8.31643e+57
          1564.75320	         7.78694e+57
          1565.55950	         7.38923e+57
          1566.36580	         7.61387e+57
          1567.17210	         9.16548e+57
          1567.97840	         9.84392e+57
          1568.78470	         8.75075e+57
          1569.59100	         9.25297e+57
          1570.39730	         9.53804e+57
          1571.20360	         7.73652e+57
          1572.00990	         7.56414e+57
          1572.81620	         9.35663e+57
          1573.62250	         1.02416e+58
          1574.42880	         9.37703e+57
          1575.23510	         7.97104e+57
          1576.04140	         8.25078e+57
          1576.84770	         9.14450e+57
          1577.65400	         9.10981e+57
          1578.46030	         1.00805e+58
          1579.26660	         1.08635e+58
          1580.07290	         9.45424e+57
          1580.87920	         8.00595e+57
          1581.68550	         7.83569e+57
          1582.49180	         8.04876e+57
          1583.29810	         7.31675e+57
          1584.10440	         8.53143e+57
          1584.91070	         8.16173e+57
          1585.71700	         7.81556e+57
          1586.52330	         8.84715e+57
          1587.32960	         9.16968e+57
          1588.13590	         8.87294e+57
          1588.94220	         7.98003e+57
          1589.74850	         8.50545e+57
          1590.55480	         9.29833e+57
          1591.36110	         9.06182e+57
          1592.16740	         8.45072e+57
          1592.97370	         8.62585e+57
          1593.78000	         9.47671e+57
          1594.58630	         9.12737e+57
          1595.39260	         8.22614e+57
          1596.19890	         8.27066e+57
          1597.00520	         8.78718e+57
          1597.81150	         8.44528e+57
          1598.61780	         8.37940e+57
          1599.42410	         8.22969e+57
          1600.23040	         7.27657e+57
          1601.03670	         7.29696e+57
          1601.84300	         7.24235e+57
          1602.64930	         8.42920e+57
          1603.45560	         8.73991e+57
          1604.26190	         8.08140e+57
          1605.06820	         7.72924e+57
          1605.87450	         7.84711e+57
          1606.68080	         7.17596e+57
          1607.48710	         6.03592e+57
          1608.29340	         5.18889e+57
          1609.09970	         6.25228e+57
          1609.90600	         7.78657e+57
          1610.71230	         7.38186e+57
          1611.51860	         7.70568e+57
          1612.32490	         7.61045e+57
          1613.13120	         8.02275e+57
          1613.93750	         6.71812e+57
          1614.74380	         7.18345e+57
          1615.55010	         8.53067e+57
          1616.35640	         8.89005e+57
          1617.16270	         8.95867e+57
          1617.96900	         9.34757e+57
          1618.77530	         8.35141e+57
          1619.58160	         7.92846e+57
          1620.38790	         7.97666e+57
          1621.19420	         9.04013e+57
          1622.00050	         8.84218e+57
          1622.80680	         9.57714e+57
          1623.61310	         9.51056e+57
          1624.41940	         8.18262e+57
          1625.22570	         8.46695e+57
          1626.03200	         8.66011e+57
          1626.83830	         7.83144e+57
          1627.64460	         7.05687e+57
          1628.45090	         6.45915e+57
          1629.25720	         8.29687e+57
          1630.06350	         9.27422e+57
          1630.86980	         7.11120e+57
          1631.67610	         8.10959e+57
          1632.48240	         9.10043e+57
          1633.28870	         7.95607e+57
          1634.09500	         9.17019e+57
          1634.90130	         1.00225e+58
          1635.70760	         8.87442e+57
          1636.51390	         8.37217e+57
          1637.32020	         7.36403e+57
          1638.12650	         8.38466e+57
          1638.93280	         9.56393e+57
          1639.73910	         9.86247e+57
          1640.54540	         9.73374e+57
          1641.35170	         9.18551e+57
          1642.15800	         9.33898e+57
          1642.96430	         8.68674e+57
          1643.77060	         8.26876e+57
          1644.57690	         7.37652e+57
          1645.38320	         8.51231e+57
          1646.18950	         7.22060e+57
          1646.99580	         8.61521e+57
          1647.80210	         8.01660e+57
          1648.60840	         8.82270e+57
          1649.41470	         9.18184e+57
          1650.22100	         6.84762e+57
          1651.02730	         7.38340e+57
          1651.83360	         7.34894e+57
          1652.63990	         6.77008e+57
          1653.44620	         7.69023e+57
          1654.25250	         7.63273e+57
          1655.05880	         7.38531e+57
          1655.86510	         7.63749e+57
          1656.67140	         7.99026e+57
          1657.47770	         8.43929e+57
          1658.28400	         8.61449e+57
          1659.09030	         9.17419e+57
          1659.89660	         9.56759e+57
          1660.70290	         9.21860e+57
          1661.50920	         9.68229e+57
          1662.31550	         8.71605e+57
          1663.12180	         8.44917e+57
          1663.92810	         9.77596e+57
          1664.73440	         1.08978e+58
          1665.54070	         1.08456e+58
          1666.34700	         1.21183e+58
          1667.15330	         1.19973e+58
          1667.95960	         9.59968e+57
          1668.76590	         7.48984e+57
          1669.57220	         7.03505e+57
          1670.37850	         7.67878e+57
          1671.18480	         7.99486e+57
          1671.99110	         7.83793e+57
          1672.79740	         6.49743e+57
          1673.60370	         7.24235e+57
          1674.41000	         8.38411e+57
          1675.21630	         7.95058e+57
          1676.02260	         7.56069e+57
          1676.82890	         6.49958e+57
          1677.63520	         7.04347e+57
          1678.44150	         7.76719e+57
          1679.24780	         8.79567e+57
          1680.05410	         7.78125e+57
          1680.86040	         6.03390e+57
          1681.66670	         6.67950e+57
          1682.47300	         8.59235e+57
          1683.27930	         8.66989e+57
          1684.08560	         9.15635e+57
          1684.89190	         8.21310e+57
          1685.69820	         6.14016e+57
          1686.50450	         5.63132e+57
          1687.31080	         7.01655e+57
          1688.11710	         7.48566e+57
          1688.92340	         6.41238e+57
          1689.72970	         7.29437e+57
          1690.53600	         6.35661e+57
          1691.34230	         6.70777e+57
          1692.14860	         7.23472e+57
          1692.95490	         7.51928e+57
          1693.76120	         7.76806e+57
          1694.56750	         7.96954e+57
          1695.37380	         9.00589e+57
          1696.18010	         8.90823e+57
          1696.98640	         8.73649e+57
          1697.79270	         9.04332e+57
          1698.59900	         8.96825e+57
          1699.40530	         8.26122e+57
          1700.21160	         7.82592e+57
          1701.01790	         8.49374e+57
          1701.82420	         7.70426e+57
          1702.63050	         9.16114e+57
          1703.43680	         9.56722e+57
          1704.24310	         8.30844e+57
          1705.04940	         7.53672e+57
          1705.85570	         8.19779e+57
          1706.66200	         8.66359e+57
          1707.46830	         8.47595e+57
          1708.27460	         7.62292e+57
          1709.08090	         7.14391e+57
          1709.88720	         6.67611e+57
          1710.69350	         5.92634e+57
          1711.49980	         5.69314e+57
          1712.30610	         7.52500e+57
          1713.11240	         9.83004e+57
          1713.91870	         8.81558e+57
          1714.72500	         8.23330e+57
          1715.53130	         8.08769e+57
          1716.33760	         7.33783e+57
          1717.14390	         7.16918e+57
          1717.95020	         8.72538e+57
          1718.75650	         8.96536e+57
          1719.56280	         9.17220e+57
          1720.36910	         7.81491e+57
          1721.17540	         7.32329e+57
          1721.98170	         6.39835e+57
          1722.78800	         6.14163e+57
          1723.59430	         7.14860e+57
          1724.40060	         7.84816e+57
          1725.20690	         8.33271e+57
          1726.01320	         8.29634e+57
          1726.81950	         7.75928e+57
          1727.62580	         7.11429e+57
          1728.43210	         6.82994e+57
          1729.23840	         7.15823e+57
          1730.04470	         7.45002e+57
          1730.85100	         8.49472e+57
          1731.65730	         8.55908e+57
          1732.46360	         8.36128e+57
          1733.26990	         6.76903e+57
          1734.07620	         6.41425e+57
          1734.88250	         7.62899e+57
          1735.68880	         7.58771e+57
          1736.49510	         7.57004e+57
          1737.30140	         7.57094e+57
          1738.10770	         7.07601e+57
          1738.91400	         7.88349e+57
          1739.72030	         8.15118e+57
          1740.52660	         6.07139e+57
          1741.33290	         5.88049e+57
          1742.13920	         6.61855e+57
          1742.94550	         7.07244e+57
          1743.75180	         8.04667e+57
          1744.55810	         8.17612e+57
          1745.36440	         8.10326e+57
          1746.17070	         6.32464e+57
          1746.97700	         5.59991e+57
          1747.78330	         7.69883e+57
          1748.58960	         8.36033e+57
          1749.39590	         7.85291e+57
          1750.20220	         7.38627e+57
          1751.00850	         5.78392e+57
          1751.81480	         5.73801e+57
          1752.62110	         6.95746e+57
          1753.42740	         6.99153e+57
          1754.23370	         6.44811e+57
          1755.04000	         6.54354e+57
          1755.84630	         8.19358e+57
          1756.65260	         8.72725e+57
          1757.45890	         8.31681e+57
          1758.26520	         7.80660e+57
          1759.07150	         9.54104e+57
          1759.87780	         7.79769e+57
          1760.68410	         7.58619e+57
          1761.49040	         9.56213e+57
          1762.29670	         7.06243e+57
          1763.10300	         7.99419e+57
          1763.90930	         8.28270e+57
          1764.71560	         8.01763e+57
          1765.52190	         7.07704e+57
          1766.32820	         6.80581e+57
          1767.13450	         7.79318e+57
          1767.94080	         6.91976e+57
          1768.74710	         7.40717e+57
          1769.55340	         7.47375e+57
          1770.35970	         7.26390e+57
          1771.16600	         8.01210e+57
          1771.97230	         9.21056e+57
          1772.77860	         9.80601e+57
          1773.58490	         8.33539e+57
          1774.39120	         7.02339e+57
          1775.19750	         5.97907e+57
          1776.00380	         6.39357e+57
          1776.81010	         7.10388e+57
          1777.61640	         6.62714e+57
          1778.42270	         7.72212e+57
          1779.22900	         6.99990e+57
          1780.03530	         7.10841e+57
          1780.84160	         8.18662e+57
          1781.64790	         8.58971e+57
          1782.45420	         7.69086e+57
          1783.26050	         7.56927e+57
          1784.06680	         7.51750e+57
          1784.87310	         7.18057e+57
          1785.67940	         7.41903e+57
          1786.48570	         6.75926e+57
          1787.29200	         5.72476e+57
          1788.09830	         5.44952e+57
          1788.90460	         5.28677e+57
          1789.71090	         5.13848e+57
          1790.51720	         5.31217e+57
          1791.32350	         7.47162e+57
          1792.12980	         8.93828e+57
          1792.93610	         8.59155e+57
          1793.74240	         7.48758e+57
          1794.54870	         8.47613e+57
          1795.35500	         8.43341e+57
          1796.16130	         7.63354e+57
          1796.96760	         7.37883e+57
          1797.77390	         7.48596e+57
          1798.58020	         7.69315e+57
          1799.38650	         6.68037e+57
          1800.19280	         6.26181e+57
          1800.99910	         7.34014e+57
          1801.80540	         7.90433e+57
          1802.61170	         8.81995e+57
          1803.41800	         8.09997e+57
          1804.22430	         7.70017e+57
          1805.03060	         7.63769e+57
          1805.83690	         6.98984e+57
          1806.64320	         8.00954e+57
          1807.44950	         7.95647e+57
          1808.25580	         7.89418e+57
          1809.06210	         8.68647e+57
          1809.86840	         6.64693e+57
          1810.67470	         6.05826e+57
          1811.48100	         7.87484e+57
          1812.28730	         8.86164e+57
          1813.09360	         8.43223e+57
          1813.89990	         8.22489e+57
          1814.70620	         7.20680e+57
          1815.51250	         7.77933e+57
          1816.31880	         8.02670e+57
          1817.12510	         6.78709e+57
          1817.93140	         6.10556e+57
          1818.73770	         7.30772e+57
          1819.54400	         8.45207e+57
          1820.35030	         8.67883e+57
          1821.15660	         6.87669e+57
          1821.96290	         6.07791e+57
          1822.76920	         6.27234e+57
          1823.57550	         7.10092e+57
          1824.38180	         7.34678e+57
          1825.18810	         8.09314e+57
          1825.99440	         8.38603e+57
          1826.80070	         7.50702e+57
          1827.60700	         7.20486e+57
          1828.41330	         6.49834e+57
          1829.21960	         6.00746e+57
          1830.02590	         6.20780e+57
          1830.83220	         7.50597e+57
          1831.63850	         7.99898e+57
          1832.44480	         7.48574e+57
          1833.25110	         7.88359e+57
          1834.05740	         8.28686e+57
          1834.86370	         6.96318e+57
          1835.67000	         5.97221e+57
          1836.47630	         6.58130e+57
          1837.28260	         8.44465e+57
          1838.08890	         9.53519e+57
          1838.89520	         8.31685e+57
          1839.70150	         7.38439e+57
          1840.50780	         7.62764e+57
          1841.31410	         8.08696e+57
          1842.12040	         7.90323e+57
          1842.92670	         7.16525e+57
          1843.73300	         6.22952e+57
          1844.53930	         6.94775e+57
          1845.34560	         7.59719e+57
          1846.15190	         7.36055e+57
          1846.95820	         8.91354e+57
          1847.76450	         8.65483e+57
          1848.57080	         5.73865e+57
          1849.37710	         6.46450e+57
          1850.18340	         7.84441e+57
          1850.98970	         8.05255e+57
          1851.79600	         7.27589e+57
          1852.60230	         7.15408e+57
          1853.40860	         7.07942e+57
          1854.21490	         7.34692e+57
          1855.02120	         6.70234e+57
          1855.82750	         5.35416e+57
          1856.63380	         6.90063e+57
          1857.44010	         7.95690e+57
          1858.24640	         7.14782e+57
          1859.05270	         7.15785e+57
          1859.85900	         6.59244e+57
          1860.66530	         5.75928e+57
          1861.47160	         6.82060e+57
          1862.27790	         7.17498e+57
          1863.08420	         8.14331e+57
          1863.89050	         8.99174e+57
          1864.69680	         8.06607e+57
          1865.50310	         7.57492e+57
          1866.30940	         6.61395e+57
          1867.11570	         6.81654e+57
          1867.92200	         8.60740e+57
          1868.72830	         8.45183e+57
          1869.53460	         6.73420e+57
          1870.34090	         7.09336e+57
          1871.14720	         7.95262e+57
          1871.95350	         6.98011e+57
          1872.75980	         7.10415e+57
          1873.56610	         7.00856e+57
          1874.37240	         6.56739e+57
          1875.17870	         6.61358e+57
          1875.98500	         8.01781e+57
          1876.79130	         8.00951e+57
          1877.59760	         7.24902e+57
          1878.40390	         6.55021e+57
          1879.21020	         6.37811e+57
          1880.01650	         7.07575e+57
          1880.82280	         7.68948e+57
          1881.62910	         8.18223e+57
          1882.43540	         1.00679e+58
          1883.24170	         9.02903e+57
          1884.04800	         7.55435e+57
          1884.85430	         7.07004e+57
          1885.66060	         7.57334e+57
          1886.46690	         8.32703e+57
          1887.27320	         7.13127e+57
          1888.07950	         5.78930e+57
          1888.88580	         6.60486e+57
          1889.69210	         9.44415e+57
          1890.49840	         8.26566e+57
          1891.30470	         7.71493e+57
          1892.11100	         7.82882e+57
          1892.91730	         7.79858e+57
          1893.72360	         8.01112e+57
          1894.52990	         7.13860e+57
          1895.33620	         7.26479e+57
          1896.14250	         6.91877e+57
          1896.94880	         5.65726e+57
          1897.75510	         4.58955e+57
          1898.56140	         7.01404e+57
          1899.36770	         9.59749e+57
          1900.17400	         7.56483e+57
          1900.98030	         5.86494e+57
          1901.78660	         7.47479e+57
          1902.59290	         7.49271e+57
          1903.39920	         9.00155e+57
          1904.20550	         1.01331e+58
          1905.01180	         9.55457e+57
          1905.81810	         1.01482e+58
          1906.62440	         1.30722e+58
          1907.43070	         1.55199e+58
          1908.23700	         1.54887e+58
          1909.04330	         1.27576e+58
          1909.84960	         1.09200e+58
          1910.65590	         1.03891e+58
          1911.46220	         9.43701e+57
          1912.26850	         8.04431e+57
          1913.07480	         6.61713e+57
          1913.88110	         5.68846e+57
          1914.68740	         5.92380e+57
          1915.49370	         6.43914e+57
          1916.30000	         6.42220e+57
          1917.10630	         6.16685e+57
          1917.91260	         6.74093e+57
          1918.71890	         5.85816e+57
          1919.52520	         5.62414e+57
          1920.33150	         6.37977e+57
          1921.13780	         7.16684e+57
          1921.94410	         8.01650e+57
          1922.75040	         7.67900e+57
          1923.55670	         7.50016e+57
          1924.36300	         7.27930e+57
          1925.16930	         6.70136e+57
          1925.97560	         5.65068e+57
          1926.78190	         5.55347e+57
          1927.58820	         5.95503e+57
          1928.39450	         5.28898e+57
          1929.20080	         4.34456e+57
          1930.00710	         6.61231e+57
          1930.81340	         6.65800e+57
          1931.61970	         6.35615e+57
          1932.42600	         7.10168e+57
          1933.23230	         7.73779e+57
          1934.03860	         7.25188e+57
          1934.84490	         5.71130e+57
          1935.65120	         7.44310e+57
          1936.45750	         8.87008e+57
          1937.26380	         8.18931e+57
          1938.07010	         8.27598e+57
          1938.87640	         8.78970e+57
          1939.68270	         8.44723e+57
          1940.48900	         8.24296e+57
          1941.29530	         9.76437e+57
          1942.10160	         8.98536e+57
          1942.90790	         7.06217e+57
          1943.71420	         7.60221e+57
          1944.52050	         6.36675e+57
          1945.32680	         5.46496e+57
          1946.13310	         6.63745e+57
          1946.93940	         8.04161e+57
          1947.74570	         8.23568e+57
          1948.55200	         5.79744e+57
          1949.35830	         6.46347e+57
          1950.16460	         5.83137e+57
          1950.97090	         6.95873e+57
          1951.77720	         7.38990e+57
          1952.58350	         6.12709e+57
          1953.38980	         4.92408e+57
          1954.19610	         4.05171e+57
          1955.00240	         5.33789e+57
          1955.80870	         6.08374e+57
          1956.61500	         6.55191e+57
          1957.42130	         6.39541e+57
          1958.22760	         6.69477e+57
          1959.03390	         6.54103e+57
          1959.84020	         7.33663e+57
          1960.64650	         8.22035e+57
          1961.45280	         6.93013e+57
          1962.25910	         6.41731e+57
          1963.06540	         6.26513e+57
          1963.87170	         5.37789e+57
          1964.67800	         7.00137e+57
          1965.48430	         7.45136e+57
          1966.29060	         6.98781e+57
          1967.09690	         7.83739e+57
          1967.90320	         7.20215e+57
          1968.70950	         7.39678e+57
          1969.51580	         6.76498e+57
          1970.32210	         8.46833e+57
          1971.12840	         7.79695e+57
          1971.93470	         4.95974e+57
          1972.74100	         5.63847e+57
          1973.54730	         6.25995e+57
          1974.35360	         6.14688e+57
          1975.15990	         7.89437e+57
          1975.96620	         6.99930e+57
          1976.77250	         6.33781e+57
          1977.57880	         6.74561e+57
          1978.38510	         6.40791e+57
          1979.19140	         7.24988e+57
          1979.99770	         8.04593e+57
          1980.80400	         7.48429e+57
          1981.61030	         7.25189e+57
          1982.41660	         6.34032e+57
          1983.22290	         5.90903e+57
          1984.02920	         5.70165e+57
          1984.83550	         5.49702e+57
          1985.64180	         5.25813e+57
          1986.44810	         7.16587e+57
          1987.25440	         5.97611e+57
          1988.06070	         5.78626e+57
          1988.86700	         6.85027e+57
          1989.67330	         6.99320e+57
          1990.47960	         5.88550e+57
          1991.28590	         6.19738e+57
          1992.09220	         6.84508e+57
          1992.89850	         6.06390e+57
          1993.70480	         6.16800e+57
          1994.51110	         5.26505e+57
          1995.31740	         4.31130e+57
          1996.12370	         4.82906e+57
          1996.93000	         6.03217e+57
          1997.73630	         8.35570e+57
          1998.54260	         8.37847e+57
          1999.34890	         7.57706e+57
          2000.15520	         6.73579e+57
          2000.96150	         6.85415e+57
          2001.76780	         6.60612e+57
          2002.57410	         4.53924e+57
          2003.38040	         5.16295e+57
          2004.18670	         6.25927e+57
          2004.99300	         5.24082e+57
          2005.79930	         7.38548e+57
          2006.60560	         7.30863e+57
          2007.41190	         6.33540e+57
          2008.21820	         6.62760e+57
          2009.02450	         6.27283e+57
          2009.83080	         7.02943e+57
          2010.63710	         7.13784e+57
          2011.44340	         6.80794e+57
          2012.24970	         7.36627e+57
          2013.05600	         7.51057e+57
          2013.86230	         6.33478e+57
          2014.66860	         4.79168e+57
          2015.47490	         6.23710e+57
          2016.28120	         6.36507e+57
          2017.08750	         6.30623e+57
          2017.89380	         5.85492e+57
          2018.70010	         5.45453e+57
          2019.50640	         6.24977e+57
          2020.31270	         8.19074e+57
          2021.11900	         7.52548e+57
          2021.92530	         7.14434e+57
          2022.73160	         7.66185e+57
          2023.53790	         8.01555e+57
          2024.34420	         6.90354e+57
          2025.15050	         5.89953e+57
          2025.95680	         5.52467e+57
          2026.76310	         6.72405e+57
          2027.56940	         7.59457e+57
          2028.37570	         5.93350e+57
          2029.18200	         6.00662e+57
          2029.98830	         7.33596e+57
          2030.79460	         6.64666e+57
          2031.60090	         6.04169e+57
          2032.40720	         6.39923e+57
          2033.21350	         6.34473e+57
          2034.01980	         5.87016e+57
          2034.82610	         6.05428e+57
          2035.63240	         6.00055e+57
          2036.43870	         6.15448e+57
          2037.24500	         6.40908e+57
          2038.05130	         7.14187e+57
          2038.85760	         5.94600e+57
          2039.66390	         6.32153e+57
          2040.47020	         6.75296e+57
          2041.27650	         7.36654e+57
          2042.08280	         6.76908e+57
          2042.88910	         6.23125e+57
          2043.69540	         4.78461e+57
          2044.50170	         4.51800e+57
          2045.30800	         4.83277e+57
          2046.11430	         3.23498e+57
          2046.92060	         4.80789e+57
          2047.72690	         5.54451e+57
          2048.53320	         6.25975e+57
          2049.33950	         6.16383e+57
          2050.14580	         6.90300e+57
          2050.95210	         7.40979e+57
          2051.75840	         7.90232e+57
          2052.56470	         6.19415e+57
          2053.37100	         3.91278e+57
          2054.17730	         5.28476e+57
          2054.98360	         4.39093e+57
          2055.78990	         4.72246e+57
          2056.59620	         3.75794e+57
          2057.40250	         4.52443e+57
          2058.20880	         6.78483e+57
          2059.01510	         4.70009e+57
          2059.82140	         3.86730e+57
          2060.62770	         1.10289e+58
          2061.43400	         1.47220e+58
          2062.24030	         1.19699e+58
          2063.04660	         7.05016e+57
          2063.85290	         3.96788e+57
          2064.65920	        -5.28974e+57
          2065.46550	        -7.34386e+57
          2066.27180	        -8.96771e+57
          2067.07810	         1.89213e+56
          2067.88440	         4.05491e+57
          2068.69070	         6.33997e+57
          2069.49700	         3.97709e+57
          2070.30330	         2.73795e+57
          2071.10960	         5.18115e+57
          2071.91590	         6.18431e+57
          2072.72220	         4.82158e+57
          2073.52850	         4.63435e+57
          2074.33480	         4.13791e+57
          2075.14110	         5.35615e+57
          2075.94740	         5.02398e+57
          2076.75370	         4.49087e+57
          2077.56000	         4.79829e+57
          2078.36630	         5.33442e+57
          2079.17260	         5.72538e+57
          2079.97890	         6.41428e+57
          2080.78520	         5.33030e+57
          2081.59150	         4.83620e+57
          2082.39780	         6.11776e+57
          2083.20410	         3.21251e+57
          2084.01040	         1.48029e+57
          2084.81670	         4.03585e+57
          2085.62300	         3.34910e+57
          2086.42930	         4.04270e+57
          2087.23560	         3.08753e+57
          2088.04190	         3.80602e+57
          2088.84820	         4.19876e+57
          2089.65450	         3.49538e+57
          2090.46080	         1.10058e+57
          2091.26710	         4.36812e+57
          2092.07340	         2.98504e+57
          2092.87970	         1.12128e+57
          2093.68600	        -4.44918e+56
          2094.49230	         2.10335e+57
          2095.29860	         4.07178e+57
          2096.10490	         3.67523e+57
          2096.91120	         1.62674e+57
          2097.71750	         3.19187e+56
          2098.52380	         1.21720e+57
          2099.33010	         2.75593e+57
          2100.13640	         1.66381e+57
          2100.94270	         1.42071e+57
          2101.74900	         1.41042e+57
          2102.55530	         1.37364e+57
          2103.36160	         2.32338e+57
          2104.16790	         4.10826e+57
          2104.97420	         1.69607e+57
          2105.78050	         1.39891e+57
          2106.58680	         3.25648e+57
          2107.39310	         9.67646e+56
          2108.19940	         2.64259e+57
          2109.00570	         4.76680e+56
          2109.81200	         5.36754e+56
          2110.61830	         1.14150e+57
          2111.42460	        -7.43407e+56
          2112.23090	         1.90704e+57
          2113.03720	         8.69823e+56
          2113.84350	        -6.64452e+55
          2114.64980	        -2.12393e+57
          2115.45610	        -6.46812e+56
          2116.26240	        -1.55721e+57
          2117.06870	         9.68019e+56
          2117.87500	        -3.84696e+57
          2118.68130	        -1.04076e+57
          2119.48760	         1.41637e+57
          2120.29390	        -1.07248e+57
          2121.10020	        -3.05942e+57
          2121.90650	        -1.85312e+57
          2122.71280	        -9.01588e+56
          2123.51910	         3.50702e+57
          2124.32540	         1.41559e+56
          2125.13170	        -2.27580e+57
          2125.93800	        -1.55674e+57
          2126.74430	        -3.34214e+57
          2127.55060	        -7.92140e+57
          2128.35690	        -3.77235e+57
          2129.16320	         5.25075e+55
          2129.96950	        -1.05979e+57
          2130.77580	         7.31307e+56
          2131.58210	         9.70774e+56
          2132.38840	         1.15068e+57
          2133.19470	        -6.47884e+56
          2134.00100	         5.13008e+56
          2134.80730	        -9.53047e+57
          2135.61360	        -6.29840e+56
          2136.41990	         1.13868e+58
          2137.22620	        -1.71830e+57
          2138.03250	        -6.69519e+56
          2138.83880	        -9.70666e+57
          2139.64510	        -7.15782e+57
          2140.45140	        -3.96270e+57
          2141.25770	        -1.34142e+58
          2142.06400	        -3.19104e+57
          2142.87030	        -2.35363e+56
          2143.67660	         4.29364e+57
          2144.48290	         9.19243e+57
          2145.28920	         1.02616e+58
          2146.09550	        -5.99173e+57
          2146.90180	        -1.06393e+58
          2147.70810	        -1.09730e+58
          2148.51440	        -1.02817e+58
          2149.32070	        -1.78130e+57
          2150.12700	        -8.09926e+57
          2150.93330	        -5.24456e+57
          2151.73960	         5.56699e+56
          2152.54590	        -9.98100e+56
          2153.35220	        -4.37828e+57
          2154.15850	        -2.33395e+57
          2154.96480	         4.77719e+57
          2155.77110	         9.21509e+57
          2156.57740	        -3.71075e+57
          2157.38370	         5.06114e+57
          2158.19000	        -2.26527e+57
          2158.99630	        -4.43489e+57
          2159.80260	        -1.42940e+58
          2160.60890	        -1.01217e+58
          2161.41520	         4.97826e+56
          2162.22150	        -7.30429e+57
          2163.02780	        -5.46929e+57
          2163.83410	        -1.08697e+58
          2164.64040	        -7.13314e+57
          2165.44670	        -1.27414e+58
          2166.25300	        -1.46760e+58
          2167.05930	         1.35653e+57
          2167.86560	        -6.21996e+57
          2168.67190	         1.37113e+57
          2169.47820	         8.15225e+57
          2170.28450	         1.04696e+57
          2171.09080	         9.81581e+56
          2171.89710	        -5.62045e+56
          2172.70340	         3.23120e+57
          2173.50970	        -4.16238e+57
          2174.31600	        -1.95398e+57
          2175.12230	         5.49611e+56
          2175.92860	        -5.72002e+57
          2176.73490	        -3.95127e+57
          2177.54120	        -7.49062e+57
          2178.34750	        -4.94451e+57
          2179.15380	                 nan
          2179.96010	                 nan
          2180.76640	                 nan
          2181.57270	                 nan
          2182.37900	                 nan
          2183.18530	                 nan
          2183.99160	                 nan
          2184.79790	                 nan
          2185.60420	                 nan
          2186.41050	                 nan
          2187.21680	                 nan
          2188.02310	                 nan
          2188.82940	                 nan
          2189.63570	                 nan
          2190.44200	                 nan
          2191.24830	                 nan
          2192.05460	                 nan
          2192.86090	                 nan
          2193.66720	                 nan
          2194.47350	                 nan
          2195.27980	                 nan
          2196.08610	                 nan
          2196.89240	                 nan
          2197.69870	                 nan
          2198.50500	                 nan
          2199.31130	                 nan
          2200.11760	                 nan
          2200.92390	                 nan
          2201.73020	                 nan
          2202.53650	                 nan
          2203.34280	                 nan
          2204.14910	                 nan
          2204.95540	                 nan
          2205.76170	                 nan
          2206.56800	                 nan
          2207.37430	                 nan
          2208.18060	                 nan
          2208.98690	                 nan
          2209.79320	                 nan
          2210.59950	                 nan
          2211.40580	                 nan
          2212.21210	                 nan
          2213.01840	                 nan
          2213.82470	                 nan
          2214.63100	                 nan
          2215.43730	         0.00000e+00
