#sample_451_stacked_spectrum_rest_UV-bands_median_H-alpha_noDC.txt
#median Lum: 1.69711e+42
#Rest-frame wavelength (A) | Luminosity (erg/s/A)
#
          1110.00000	         0.00000e+00
          1110.80630	         4.30263e+58
          1111.61260	        -4.09760e+58
          1112.41890	        -9.57722e+56
          1113.22520	        -1.44221e+59
          1114.03150	        -1.97223e+59
          1114.83780	         1.37272e+59
          1115.64410	         8.36231e+58
          1116.45040	         2.13582e+59
          1117.25670	         1.00126e+59
          1118.06300	         1.22720e+59
          1118.86930	         1.89878e+58
          1119.67560	         8.06782e+58
          1120.48190	        -6.68367e+58
          1121.28820	        -1.00749e+59
          1122.09450	         3.66268e+58
          1122.90080	         1.75130e+58
          1123.70710	         7.05604e+58
          1124.51340	         5.02914e+58
          1125.31970	        -9.73020e+57
          1126.12600	        -3.72022e+58
          1126.93230	        -2.53711e+58
          1127.73860	        -9.09119e+58
          1128.54490	        -2.97677e+58
          1129.35120	         2.07981e+58
          1130.15750	        -1.60535e+58
          1130.96380	         7.17723e+56
          1131.77010	         4.98020e+58
          1132.57640	         2.78947e+58
          1133.38270	         1.38845e+58
          1134.18900	         2.64705e+58
          1134.99530	         3.03535e+58
          1135.80160	         1.86275e+58
          1136.60790	        -1.01030e+58
          1137.41420	        -9.68990e+57
          1138.22050	         1.65165e+58
          1139.02680	         1.30604e+58
          1139.83310	         1.11719e+58
          1140.63940	         2.27809e+58
          1141.44570	        -1.98441e+58
          1142.25200	        -2.87521e+58
          1143.05830	         7.78622e+57
          1143.86460	         1.59750e+58
          1144.67090	         1.84391e+58
          1145.47720	         2.88494e+58
          1146.28350	         2.89082e+57
          1147.08980	         1.30841e+58
          1147.89610	         1.77130e+58
          1148.70240	         3.50575e+58
          1149.50870	         2.59737e+58
          1150.31500	         1.03366e+58
          1151.12130	         7.72464e+57
          1151.92760	         1.76152e+57
          1152.73390	        -7.21170e+57
          1153.54020	        -5.47121e+56
          1154.34650	         2.48615e+58
          1155.15280	         1.90690e+58
          1155.95910	         2.39894e+58
          1156.76540	         1.61507e+58
          1157.57170	         4.71827e+57
          1158.37800	        -1.00492e+58
          1159.18430	        -4.14892e+57
          1159.99060	         3.14491e+57
          1160.79690	         7.68029e+57
          1161.60320	         1.28030e+58
          1162.40950	         1.61319e+58
          1163.21580	         1.55480e+58
          1164.02210	         6.18287e+57
          1164.82840	         4.20726e+57
          1165.63470	         2.24231e+58
          1166.44100	         3.02376e+58
          1167.24730	         1.72996e+58
          1168.05360	         4.75391e+57
          1168.85990	         4.34312e+56
          1169.66620	         2.02367e+57
          1170.47250	         1.64362e+58
          1171.27880	         1.93050e+58
          1172.08510	         1.83471e+58
          1172.89140	         1.56827e+58
          1173.69770	         2.26658e+57
          1174.50400	         1.15953e+58
          1175.31030	         2.01126e+58
          1176.11660	         1.82080e+58
          1176.92290	         1.20694e+58
          1177.72920	         1.31067e+58
          1178.53550	         8.38052e+57
          1179.34180	        -1.81524e+56
          1180.14810	         2.84252e+57
          1180.95440	         1.07657e+58
          1181.76070	         1.16100e+58
          1182.56700	         8.84355e+57
          1183.37330	         8.51084e+57
          1184.17960	         1.33620e+58
          1184.98590	         6.88222e+57
          1185.79220	         7.72787e+57
          1186.59850	         8.52681e+57
          1187.40480	         1.09684e+58
          1188.21110	         1.41544e+58
          1189.01740	         5.79818e+57
          1189.82370	         7.95306e+57
          1190.63000	         1.05947e+58
          1191.43630	         1.35802e+58
          1192.24260	         8.12628e+57
          1193.04890	         1.16173e+58
          1193.85520	         9.72661e+57
          1194.66150	         9.38399e+57
          1195.46780	         1.10166e+58
          1196.27410	         1.77268e+58
          1197.08040	         1.08007e+58
          1197.88670	         1.59601e+58
          1198.69300	         1.91910e+58
          1199.49930	         1.53310e+58
          1200.30560	         8.46931e+57
          1201.11190	         7.85956e+57
          1201.91820	         1.12005e+58
          1202.72450	         1.08167e+58
          1203.53080	         1.89477e+58
          1204.33710	         1.25672e+58
          1205.14340	         6.13706e+57
          1205.94970	         9.27354e+57
          1206.75600	         1.28690e+58
          1207.56230	         5.53007e+57
          1208.36860	         7.85949e+57
          1209.17490	         6.76754e+56
          1209.98120	         1.32210e+57
          1210.78750	         5.85190e+57
          1211.59380	         1.34805e+58
          1212.40010	         1.83900e+58
          1213.20640	         1.76994e+58
          1214.01270	         1.87960e+58
          1214.81900	         2.55254e+58
          1215.62530	         4.64490e+58
          1216.43160	         9.22719e+58
          1217.23790	         1.50852e+59
          1218.04420	         1.11115e+59
          1218.85050	         8.26190e+58
          1219.65680	         5.81184e+58
          1220.46310	         3.55924e+58
          1221.26940	         2.17900e+58
          1222.07570	         1.15511e+58
          1222.88200	         1.11657e+58
          1223.68830	         1.28188e+58
          1224.49460	         9.18252e+57
          1225.30090	         5.99136e+57
          1226.10720	         4.69238e+57
          1226.91350	         3.06751e+57
          1227.71980	         7.75813e+57
          1228.52610	         1.25637e+58
          1229.33240	         1.18790e+58
          1230.13870	         1.04868e+58
          1230.94500	         9.51667e+57
          1231.75130	         6.71725e+57
          1232.55760	         1.07979e+58
          1233.36390	         1.10863e+58
          1234.17020	         8.43501e+57
          1234.97650	         9.90021e+57
          1235.78280	         1.02296e+58
          1236.58910	         8.12137e+57
          1237.39540	         9.93601e+57
          1238.20170	         1.10756e+58
          1239.00800	         1.33505e+58
          1239.81430	         1.66512e+58
          1240.62060	         1.20080e+58
          1241.42690	         1.00744e+58
          1242.23320	         1.08861e+58
          1243.03950	         7.89856e+57
          1243.84580	         7.75467e+57
          1244.65210	         1.01850e+58
          1245.45840	         9.96460e+57
          1246.26470	         8.72505e+57
          1247.07100	         6.32271e+57
          1247.87730	         4.67391e+57
          1248.68360	         4.20392e+57
          1249.48990	         7.99180e+57
          1250.29620	         1.15486e+58
          1251.10250	         9.00281e+57
          1251.90880	         6.43222e+57
          1252.71510	         5.54985e+57
          1253.52140	         6.94813e+57
          1254.32770	         9.13817e+57
          1255.13400	         1.27204e+58
          1255.94030	         1.28331e+58
          1256.74660	         1.12881e+58
          1257.55290	         1.10128e+58
          1258.35920	         7.20915e+57
          1259.16550	         4.95712e+57
          1259.97180	         6.84516e+57
          1260.77810	         1.16910e+58
          1261.58440	         1.33998e+58
          1262.39070	         8.48479e+57
          1263.19700	         8.55974e+57
          1264.00330	         9.47398e+57
          1264.80960	         1.21665e+58
          1265.61590	         1.50893e+58
          1266.42220	         1.29842e+58
          1267.22850	         1.02048e+58
          1268.03480	         1.30075e+58
          1268.84110	         1.35188e+58
          1269.64740	         1.25997e+58
          1270.45370	         1.46972e+58
          1271.26000	         1.46739e+58
          1272.06630	         1.22315e+58
          1272.87260	         1.28254e+58
          1273.67890	         1.46319e+58
          1274.48520	         1.33659e+58
          1275.29150	         1.28411e+58
          1276.09780	         1.10961e+58
          1276.90410	         1.32469e+58
          1277.71040	         1.19807e+58
          1278.51670	         1.04527e+58
          1279.32300	         1.22575e+58
          1280.12930	         1.19225e+58
          1280.93560	         1.10317e+58
          1281.74190	         1.23702e+58
          1282.54820	         1.22823e+58
          1283.35450	         1.10925e+58
          1284.16080	         1.01779e+58
          1284.96710	         1.15059e+58
          1285.77340	         1.31767e+58
          1286.57970	         1.29079e+58
          1287.38600	         1.55606e+58
          1288.19230	         1.81105e+58
          1288.99860	         1.46123e+58
          1289.80490	         9.26824e+57
          1290.61120	         1.10743e+58
          1291.41750	         1.28174e+58
          1292.22380	         1.09454e+58
          1293.03010	         9.82146e+57
          1293.83640	         1.03250e+58
          1294.64270	         8.52701e+57
          1295.44900	         4.94373e+57
          1296.25530	         5.01196e+57
          1297.06160	         8.42494e+57
          1297.86790	         8.82603e+57
          1298.67420	         1.01449e+58
          1299.48050	         9.75950e+57
          1300.28680	         9.82291e+57
          1301.09310	         8.13575e+57
          1301.89940	         4.94547e+57
          1302.70570	         6.00090e+57
          1303.51200	         7.66385e+57
          1304.31830	         8.77511e+57
          1305.12460	         1.12005e+58
          1305.93090	         1.30454e+58
          1306.73720	         1.38109e+58
          1307.54350	         1.35710e+58
          1308.34980	         1.41839e+58
          1309.15610	         1.60295e+58
          1309.96240	         1.70437e+58
          1310.76870	         1.40581e+58
          1311.57500	         1.01905e+58
          1312.38130	         9.52824e+57
          1313.18760	         1.12965e+58
          1313.99390	         1.36958e+58
          1314.80020	         1.65689e+58
          1315.60650	         1.59753e+58
          1316.41280	         1.12540e+58
          1317.21910	         9.50475e+57
          1318.02540	         1.05745e+58
          1318.83170	         1.07946e+58
          1319.63800	         1.06457e+58
          1320.44430	         1.01810e+58
          1321.25060	         1.17970e+58
          1322.05690	         1.16203e+58
          1322.86320	         1.10541e+58
          1323.66950	         9.17443e+57
          1324.47580	         9.00126e+57
          1325.28210	         1.01026e+58
          1326.08840	         1.10751e+58
          1326.89470	         1.21499e+58
          1327.70100	         1.05084e+58
          1328.50730	         7.26752e+57
          1329.31360	         8.83005e+57
          1330.11990	         1.00536e+58
          1330.92620	         1.02565e+58
          1331.73250	         1.12737e+58
          1332.53880	         1.10678e+58
          1333.34510	         1.03453e+58
          1334.15140	         8.49919e+57
          1334.95770	         8.79793e+57
          1335.76400	         1.05321e+58
          1336.57030	         1.10017e+58
          1337.37660	         1.02947e+58
          1338.18290	         1.00105e+58
          1338.98920	         1.07492e+58
          1339.79550	         1.11803e+58
          1340.60180	         1.23538e+58
          1341.40810	         1.23226e+58
          1342.21440	         1.04002e+58
          1343.02070	         1.11484e+58
          1343.82700	         1.38950e+58
          1344.63330	         1.47745e+58
          1345.43960	         1.36225e+58
          1346.24590	         1.17663e+58
          1347.05220	         1.24511e+58
          1347.85850	         1.13909e+58
          1348.66480	         1.14785e+58
          1349.47110	         1.07679e+58
          1350.27740	         1.07228e+58
          1351.08370	         1.27187e+58
          1351.89000	         1.18629e+58
          1352.69630	         1.10494e+58
          1353.50260	         1.23138e+58
          1354.30890	         1.19201e+58
          1355.11520	         1.10199e+58
          1355.92150	         9.87648e+57
          1356.72780	         1.03524e+58
          1357.53410	         1.07364e+58
          1358.34040	         1.11971e+58
          1359.14670	         1.13923e+58
          1359.95300	         1.13965e+58
          1360.75930	         1.12093e+58
          1361.56560	         1.11803e+58
          1362.37190	         1.21774e+58
          1363.17820	         1.16892e+58
          1363.98450	         1.13691e+58
          1364.79080	         1.28239e+58
          1365.59710	         1.37485e+58
          1366.40340	         1.17819e+58
          1367.20970	         9.00216e+57
          1368.01600	         7.93935e+57
          1368.82230	         7.54548e+57
          1369.62860	         7.95326e+57
          1370.43490	         8.51437e+57
          1371.24120	         9.65228e+57
          1372.04750	         8.71529e+57
          1372.85380	         1.14419e+58
          1373.66010	         1.05716e+58
          1374.46640	         9.08920e+57
          1375.27270	         1.07298e+58
          1376.07900	         9.84371e+57
          1376.88530	         8.32176e+57
          1377.69160	         8.37785e+57
          1378.49790	         6.71135e+57
          1379.30420	         6.48162e+57
          1380.11050	         8.61315e+57
          1380.91680	         9.09116e+57
          1381.72310	         8.01723e+57
          1382.52940	         8.44508e+57
          1383.33570	         9.32863e+57
          1384.14200	         9.35455e+57
          1384.94830	         1.03481e+58
          1385.75460	         1.03051e+58
          1386.56090	         1.03443e+58
          1387.36720	         1.13479e+58
          1388.17350	         1.31648e+58
          1388.97980	         1.14118e+58
          1389.78610	         1.03609e+58
          1390.59240	         8.14374e+57
          1391.39870	         6.28334e+57
          1392.20500	         8.15108e+57
          1393.01130	         7.73467e+57
          1393.81760	         7.47714e+57
          1394.62390	         8.46725e+57
          1395.43020	         6.26644e+57
          1396.23650	         5.74059e+57
          1397.04280	         6.58265e+57
          1397.84910	         8.64472e+57
          1398.65540	         8.68122e+57
          1399.46170	         9.78755e+57
          1400.26800	         9.11688e+57
          1401.07430	         6.91027e+57
          1401.88060	         6.09296e+57
          1402.68690	         8.33357e+57
          1403.49320	         9.63029e+57
          1404.29950	         9.19532e+57
          1405.10580	         9.95709e+57
          1405.91210	         1.07398e+58
          1406.71840	         1.14702e+58
          1407.52470	         1.03813e+58
          1408.33100	         9.88531e+57
          1409.13730	         1.19375e+58
          1409.94360	         1.20029e+58
          1410.74990	         1.07125e+58
          1411.55620	         1.00012e+58
          1412.36250	         9.07227e+57
          1413.16880	         8.80489e+57
          1413.97510	         8.78011e+57
          1414.78140	         8.85904e+57
          1415.58770	         9.80822e+57
          1416.39400	         9.80158e+57
          1417.20030	         9.93634e+57
          1418.00660	         1.00264e+58
          1418.81290	         1.04391e+58
          1419.61920	         1.10715e+58
          1420.42550	         1.30853e+58
          1421.23180	         1.30494e+58
          1422.03810	         1.21159e+58
          1422.84440	         1.13948e+58
          1423.65070	         1.25930e+58
          1424.45700	         1.08777e+58
          1425.26330	         8.89427e+57
          1426.06960	         9.67099e+57
          1426.87590	         1.00190e+58
          1427.68220	         9.42609e+57
          1428.48850	         1.05478e+58
          1429.29480	         1.02723e+58
          1430.10110	         1.00961e+58
          1430.90740	         1.03594e+58
          1431.71370	         9.62480e+57
          1432.52000	         8.40287e+57
          1433.32630	         7.98062e+57
          1434.13260	         6.86968e+57
          1434.93890	         7.20979e+57
          1435.74520	         8.62365e+57
          1436.55150	         8.77268e+57
          1437.35780	         8.70725e+57
          1438.16410	         9.48492e+57
          1438.97040	         8.97345e+57
          1439.77670	         8.68435e+57
          1440.58300	         8.99149e+57
          1441.38930	         9.09209e+57
          1442.19560	         9.97071e+57
          1443.00190	         9.94788e+57
          1443.80820	         1.05298e+58
          1444.61450	         9.68606e+57
          1445.42080	         9.52028e+57
          1446.22710	         1.13489e+58
          1447.03340	         1.08734e+58
          1447.83970	         1.03296e+58
          1448.64600	         9.62634e+57
          1449.45230	         9.65792e+57
          1450.25860	         1.10417e+58
          1451.06490	         1.01570e+58
          1451.87120	         8.70332e+57
          1452.67750	         8.28593e+57
          1453.48380	         9.16343e+57
          1454.29010	         7.98918e+57
          1455.09640	         7.84529e+57
          1455.90270	         8.81215e+57
          1456.70900	         8.99626e+57
          1457.51530	         9.82896e+57
          1458.32160	         1.19589e+58
          1459.12790	         1.05461e+58
          1459.93420	         9.65916e+57
          1460.74050	         8.36382e+57
          1461.54680	         8.20034e+57
          1462.35310	         8.35560e+57
          1463.15940	         1.03405e+58
          1463.96570	         1.13259e+58
          1464.77200	         1.16464e+58
          1465.57830	         1.13369e+58
          1466.38460	         9.60323e+57
          1467.19090	         8.65612e+57
          1467.99720	         8.16179e+57
          1468.80350	         9.18122e+57
          1469.60980	         9.72830e+57
          1470.41610	         1.13312e+58
          1471.22240	         1.00570e+58
          1472.02870	         8.91920e+57
          1472.83500	         8.63033e+57
          1473.64130	         9.53935e+57
          1474.44760	         9.25758e+57
          1475.25390	         8.70544e+57
          1476.06020	         8.30839e+57
          1476.86650	         8.13702e+57
          1477.67280	         7.84979e+57
          1478.47910	         6.26125e+57
          1479.28540	         6.19574e+57
          1480.09170	         8.17125e+57
          1480.89800	         8.33047e+57
          1481.70430	         7.94511e+57
          1482.51060	         7.29128e+57
          1483.31690	         7.17142e+57
          1484.12320	         6.97208e+57
          1484.92950	         7.32670e+57
          1485.73580	         8.04030e+57
          1486.54210	         7.97122e+57
          1487.34840	         8.14568e+57
          1488.15470	         7.78461e+57
          1488.96100	         8.13489e+57
          1489.76730	         9.28249e+57
          1490.57360	         8.01975e+57
          1491.37990	         6.20962e+57
          1492.18620	         8.20674e+57
          1492.99250	         9.65935e+57
          1493.79880	         9.61493e+57
          1494.60510	         9.02552e+57
          1495.41140	         7.85479e+57
          1496.21770	         9.10179e+57
          1497.02400	         1.03082e+58
          1497.83030	         8.86752e+57
          1498.63660	         7.31317e+57
          1499.44290	         6.53093e+57
          1500.24920	         7.51022e+57
          1501.05550	         7.98193e+57
          1501.86180	         8.33055e+57
          1502.66810	         9.80590e+57
          1503.47440	         9.80071e+57
          1504.28070	         9.18738e+57
          1505.08700	         9.24252e+57
          1505.89330	         9.28623e+57
          1506.69960	         9.19653e+57
          1507.50590	         9.97332e+57
          1508.31220	         9.95304e+57
          1509.11850	         9.51118e+57
          1509.92480	         9.32301e+57
          1510.73110	         9.61688e+57
          1511.53740	         7.77668e+57
          1512.34370	         7.74429e+57
          1513.15000	         8.87022e+57
          1513.95630	         9.86947e+57
          1514.76260	         9.15482e+57
          1515.56890	         8.28655e+57
          1516.37520	         8.48969e+57
          1517.18150	         8.69780e+57
          1517.98780	         7.63513e+57
          1518.79410	         6.50002e+57
          1519.60040	         7.19762e+57
          1520.40670	         9.33265e+57
          1521.21300	         8.98742e+57
          1522.01930	         8.30964e+57
          1522.82560	         9.20509e+57
          1523.63190	         1.03821e+58
          1524.43820	         8.92170e+57
          1525.24450	         6.78821e+57
          1526.05080	         5.94674e+57
          1526.85710	         5.73011e+57
          1527.66340	         7.42621e+57
          1528.46970	         8.78624e+57
          1529.27600	         8.11223e+57
          1530.08230	         7.13686e+57
          1530.88860	         7.11923e+57
          1531.69490	         8.41523e+57
          1532.50120	         9.72993e+57
          1533.30750	         9.60976e+57
          1534.11380	         9.31582e+57
          1534.92010	         9.58429e+57
          1535.72640	         9.14244e+57
          1536.53270	         9.09120e+57
          1537.33900	         8.49256e+57
          1538.14530	         9.56316e+57
          1538.95160	         9.87821e+57
          1539.75790	         9.01550e+57
          1540.56420	         8.74962e+57
          1541.37050	         8.51291e+57
          1542.17680	         7.94162e+57
          1542.98310	         6.13773e+57
          1543.78940	         6.35352e+57
          1544.59570	         7.10329e+57
          1545.40200	         7.52403e+57
          1546.20830	         9.65332e+57
          1547.01460	         1.07793e+58
          1547.82090	         1.15436e+58
          1548.62720	         1.22190e+58
          1549.43350	         1.15115e+58
          1550.23980	         1.09759e+58
          1551.04610	         1.16467e+58
          1551.85240	         1.17253e+58
          1552.65870	         1.22282e+58
          1553.46500	         1.16611e+58
          1554.27130	         9.69800e+57
          1555.07760	         9.97143e+57
          1555.88390	         9.71889e+57
          1556.69020	         8.53646e+57
          1557.49650	         8.67350e+57
          1558.30280	         8.80149e+57
          1559.10910	         8.67425e+57
          1559.91540	         9.27687e+57
          1560.72170	         8.54742e+57
          1561.52800	         8.22200e+57
          1562.33430	         8.73355e+57
          1563.14060	         7.52976e+57
          1563.94690	         7.31857e+57
          1564.75320	         8.23053e+57
          1565.55950	         7.65147e+57
          1566.36580	         8.01629e+57
          1567.17210	         8.97021e+57
          1567.97840	         8.70924e+57
          1568.78470	         8.58899e+57
          1569.59100	         9.33483e+57
          1570.39730	         8.77181e+57
          1571.20360	         7.40718e+57
          1572.00990	         7.13060e+57
          1572.81620	         8.10871e+57
          1573.62250	         9.74138e+57
          1574.42880	         9.08347e+57
          1575.23510	         7.44187e+57
          1576.04140	         8.18033e+57
          1576.84770	         9.56803e+57
          1577.65400	         9.48547e+57
          1578.46030	         1.07417e+58
          1579.26660	         1.17193e+58
          1580.07290	         1.03184e+58
          1580.87920	         7.46167e+57
          1581.68550	         7.14385e+57
          1582.49180	         8.16756e+57
          1583.29810	         7.90732e+57
          1584.10440	         8.26015e+57
          1584.91070	         8.47679e+57
          1585.71700	         8.31088e+57
          1586.52330	         8.70028e+57
          1587.32960	         8.69253e+57
          1588.13590	         8.82888e+57
          1588.94220	         8.13029e+57
          1589.74850	         8.16803e+57
          1590.55480	         9.04893e+57
          1591.36110	         8.55990e+57
          1592.16740	         8.87863e+57
          1592.97370	         8.28978e+57
          1593.78000	         8.76845e+57
          1594.58630	         9.88865e+57
          1595.39260	         8.98694e+57
          1596.19890	         8.58966e+57
          1597.00520	         9.52687e+57
          1597.81150	         8.81688e+57
          1598.61780	         6.87593e+57
          1599.42410	         6.59541e+57
          1600.23040	         6.68988e+57
          1601.03670	         7.83724e+57
          1601.84300	         7.62917e+57
          1602.64930	         7.74426e+57
          1603.45560	         8.64806e+57
          1604.26190	         8.56411e+57
          1605.06820	         8.19100e+57
          1605.87450	         7.35577e+57
          1606.68080	         7.64755e+57
          1607.48710	         6.91852e+57
          1608.29340	         6.00616e+57
          1609.09970	         7.16875e+57
          1609.90600	         8.31977e+57
          1610.71230	         5.87657e+57
          1611.51860	         6.02920e+57
          1612.32490	         6.87779e+57
          1613.13120	         7.50944e+57
          1613.93750	         7.62430e+57
          1614.74380	         7.37683e+57
          1615.55010	         8.26517e+57
          1616.35640	         9.08936e+57
          1617.16270	         1.02160e+58
          1617.96900	         9.68713e+57
          1618.77530	         8.48091e+57
          1619.58160	         8.58658e+57
          1620.38790	         8.37504e+57
          1621.19420	         9.57549e+57
          1622.00050	         8.91450e+57
          1622.80680	         9.23686e+57
          1623.61310	         8.84781e+57
          1624.41940	         8.05640e+57
          1625.22570	         9.29253e+57
          1626.03200	         9.13634e+57
          1626.83830	         6.93943e+57
          1627.64460	         6.08460e+57
          1628.45090	         6.51388e+57
          1629.25720	         8.21135e+57
          1630.06350	         9.12976e+57
          1630.86980	         4.69289e+57
          1631.67610	         4.77510e+57
          1632.48240	         7.26347e+57
          1633.28870	         7.53193e+57
          1634.09500	         8.70804e+57
          1634.90130	         1.01575e+58
          1635.70760	         9.39276e+57
          1636.51390	         7.90245e+57
          1637.32020	         8.43715e+57
          1638.12650	         9.60325e+57
          1638.93280	         9.22811e+57
          1639.73910	         1.03529e+58
          1640.54540	         1.02677e+58
          1641.35170	         8.08803e+57
          1642.15800	         9.01714e+57
          1642.96430	         9.11511e+57
          1643.77060	         8.46172e+57
          1644.57690	         7.38687e+57
          1645.38320	         7.71105e+57
          1646.18950	         6.96058e+57
          1646.99580	         8.01289e+57
          1647.80210	         8.26615e+57
          1648.60840	         8.39659e+57
          1649.41470	         7.71868e+57
          1650.22100	         6.93022e+57
          1651.02730	         7.37084e+57
          1651.83360	         7.11825e+57
          1652.63990	         7.59546e+57
          1653.44620	         8.70790e+57
          1654.25250	         7.65838e+57
          1655.05880	         7.30340e+57
          1655.86510	         7.15962e+57
          1656.67140	         8.25137e+57
          1657.47770	         8.82283e+57
          1658.28400	         8.76933e+57
          1659.09030	         8.72305e+57
          1659.89660	         8.62615e+57
          1660.70290	         9.42120e+57
          1661.50920	         9.47848e+57
          1662.31550	         9.26955e+57
          1663.12180	         9.08494e+57
          1663.92810	         9.33043e+57
          1664.73440	         1.05438e+58
          1665.54070	         1.10825e+58
          1666.34700	         1.15828e+58
          1667.15330	         1.14988e+58
          1667.95960	         8.90343e+57
          1668.76590	         6.66325e+57
          1669.57220	         6.21018e+57
          1670.37850	         6.59643e+57
          1671.18480	         8.04085e+57
          1671.99110	         8.46687e+57
          1672.79740	         7.56283e+57
          1673.60370	         7.24766e+57
          1674.41000	         7.75556e+57
          1675.21630	         7.65965e+57
          1676.02260	         7.16883e+57
          1676.82890	         6.95482e+57
          1677.63520	         7.40932e+57
          1678.44150	         7.89009e+57
          1679.24780	         8.73045e+57
          1680.05410	         7.68812e+57
          1680.86040	         5.54781e+57
          1681.66670	         6.07291e+57
          1682.47300	         7.70124e+57
          1683.27930	         8.27780e+57
          1684.08560	         8.00521e+57
          1684.89190	         7.68751e+57
          1685.69820	         5.87693e+57
          1686.50450	         5.86625e+57
          1687.31080	         6.69637e+57
          1688.11710	         6.91029e+57
          1688.92340	         6.74977e+57
          1689.72970	         6.31122e+57
          1690.53600	         7.60952e+57
          1691.34230	         8.21852e+57
          1692.14860	         8.02948e+57
          1692.95490	         7.48836e+57
          1693.76120	         6.85950e+57
          1694.56750	         6.64839e+57
          1695.37380	         8.42066e+57
          1696.18010	         8.25943e+57
          1696.98640	         8.59948e+57
          1697.79270	         8.97805e+57
          1698.59900	         8.48512e+57
          1699.40530	         7.31860e+57
          1700.21160	         7.96368e+57
          1701.01790	         9.07103e+57
          1701.82420	         8.54964e+57
          1702.63050	         6.92986e+57
          1703.43680	         6.95644e+57
          1704.24310	         7.83335e+57
          1705.04940	         8.28090e+57
          1705.85570	         8.21141e+57
          1706.66200	         8.48608e+57
          1707.46830	         8.32766e+57
          1708.27460	         8.51235e+57
          1709.08090	         7.71231e+57
          1709.88720	         6.57464e+57
          1710.69350	         5.89474e+57
          1711.49980	         6.70907e+57
          1712.30610	         6.46452e+57
          1713.11240	         8.03576e+57
          1713.91870	         7.76448e+57
          1714.72500	         8.06996e+57
          1715.53130	         9.14696e+57
          1716.33760	         7.75258e+57
          1717.14390	         7.46879e+57
          1717.95020	         8.29994e+57
          1718.75650	         8.34624e+57
          1719.56280	         8.21374e+57
          1720.36910	         7.21706e+57
          1721.17540	         7.12115e+57
          1721.98170	         6.80671e+57
          1722.78800	         6.06812e+57
          1723.59430	         7.22701e+57
          1724.40060	         8.47555e+57
          1725.20690	         8.02779e+57
          1726.01320	         7.84431e+57
          1726.81950	         7.79643e+57
          1727.62580	         7.44793e+57
          1728.43210	         6.80601e+57
          1729.23840	         6.57444e+57
          1730.04470	         8.02611e+57
          1730.85100	         8.14580e+57
          1731.65730	         6.95762e+57
          1732.46360	         6.81171e+57
          1733.26990	         6.19056e+57
          1734.07620	         6.03176e+57
          1734.88250	         7.03540e+57
          1735.68880	         7.88197e+57
          1736.49510	         8.37638e+57
          1737.30140	         8.09121e+57
          1738.10770	         6.85826e+57
          1738.91400	         7.88488e+57
          1739.72030	         7.25443e+57
          1740.52660	         6.02768e+57
          1741.33290	         5.99383e+57
          1742.13920	         6.15736e+57
          1742.94550	         6.84032e+57
          1743.75180	         7.25267e+57
          1744.55810	         8.00400e+57
          1745.36440	         7.28395e+57
          1746.17070	         5.95198e+57
          1746.97700	         5.97469e+57
          1747.78330	         6.95800e+57
          1748.58960	         7.46390e+57
          1749.39590	         6.56413e+57
          1750.20220	         5.64003e+57
          1751.00850	         6.41673e+57
          1751.81480	         6.14851e+57
          1752.62110	         6.60100e+57
          1753.42740	         7.76698e+57
          1754.23370	         6.81638e+57
          1755.04000	         6.21816e+57
          1755.84630	         7.71115e+57
          1756.65260	         7.55462e+57
          1757.45890	         8.27274e+57
          1758.26520	         8.76739e+57
          1759.07150	         8.83558e+57
          1759.87780	         9.04696e+57
          1760.68410	         8.76308e+57
          1761.49040	         8.31539e+57
          1762.29670	         6.56754e+57
          1763.10300	         7.04746e+57
          1763.90930	         6.76775e+57
          1764.71560	         8.08931e+57
          1765.52190	         8.26993e+57
          1766.32820	         8.87152e+57
          1767.13450	         8.31845e+57
          1767.94080	         6.97317e+57
          1768.74710	         6.88521e+57
          1769.55340	         6.86724e+57
          1770.35970	         6.30712e+57
          1771.16600	         6.81537e+57
          1771.97230	         7.94508e+57
          1772.77860	         8.08064e+57
          1773.58490	         6.80084e+57
          1774.39120	         5.27703e+57
          1775.19750	         5.17114e+57
          1776.00380	         5.89381e+57
          1776.81010	         6.17873e+57
          1777.61640	         6.48433e+57
          1778.42270	         7.27649e+57
          1779.22900	         7.00886e+57
          1780.03530	         6.11073e+57
          1780.84160	         6.86540e+57
          1781.64790	         7.86910e+57
          1782.45420	         6.74815e+57
          1783.26050	         6.76804e+57
          1784.06680	         6.70487e+57
          1784.87310	         7.34958e+57
          1785.67940	         7.45596e+57
          1786.48570	         7.47276e+57
          1787.29200	         7.01152e+57
          1788.09830	         6.46275e+57
          1788.90460	         5.65894e+57
          1789.71090	         5.43201e+57
          1790.51720	         5.88863e+57
          1791.32350	         7.27131e+57
          1792.12980	         8.39575e+57
          1792.93610	         7.81431e+57
          1793.74240	         7.80646e+57
          1794.54870	         9.22357e+57
          1795.35500	         8.87264e+57
          1796.16130	         8.35656e+57
          1796.96760	         8.11295e+57
          1797.77390	         7.66051e+57
          1798.58020	         7.40062e+57
          1799.38650	         7.27302e+57
          1800.19280	         7.64229e+57
          1800.99910	         7.59439e+57
          1801.80540	         7.51350e+57
          1802.61170	         8.22095e+57
          1803.41800	         7.87735e+57
          1804.22430	         7.29090e+57
          1805.03060	         7.77624e+57
          1805.83690	         8.19401e+57
          1806.64320	         8.63697e+57
          1807.44950	         8.60404e+57
          1808.25580	         6.79746e+57
          1809.06210	         6.69316e+57
          1809.86840	         7.76716e+57
          1810.67470	         8.30541e+57
          1811.48100	         8.86412e+57
          1812.28730	         7.87966e+57
          1813.09360	         7.17269e+57
          1813.89990	         7.73597e+57
          1814.70620	         7.19428e+57
          1815.51250	         8.59070e+57
          1816.31880	         7.98052e+57
          1817.12510	         7.05969e+57
          1817.93140	         6.54344e+57
          1818.73770	         6.97133e+57
          1819.54400	         7.73249e+57
          1820.35030	         9.14222e+57
          1821.15660	         7.41194e+57
          1821.96290	         7.07740e+57
          1822.76920	         7.11068e+57
          1823.57550	         6.76642e+57
          1824.38180	         7.15393e+57
          1825.18810	         7.11673e+57
          1825.99440	         8.63582e+57
          1826.80070	         7.87800e+57
          1827.60700	         5.91503e+57
          1828.41330	         5.88643e+57
          1829.21960	         6.84540e+57
          1830.02590	         6.62941e+57
          1830.83220	         7.23669e+57
          1831.63850	         7.61579e+57
          1832.44480	         6.84398e+57
          1833.25110	         7.53506e+57
          1834.05740	         8.41781e+57
          1834.86370	         7.80335e+57
          1835.67000	         6.47772e+57
          1836.47630	         7.65779e+57
          1837.28260	         8.51122e+57
          1838.08890	         9.09891e+57
          1838.89520	         9.11208e+57
          1839.70150	         8.13234e+57
          1840.50780	         7.68772e+57
          1841.31410	         6.57792e+57
          1842.12040	         6.14761e+57
          1842.92670	         6.96467e+57
          1843.73300	         7.07387e+57
          1844.53930	         6.26600e+57
          1845.34560	         6.82285e+57
          1846.15190	         7.53245e+57
          1846.95820	         6.84026e+57
          1847.76450	         6.49609e+57
          1848.57080	         4.90727e+57
          1849.37710	         5.96872e+57
          1850.18340	         7.19691e+57
          1850.98970	         6.97916e+57
          1851.79600	         7.49367e+57
          1852.60230	         6.94519e+57
          1853.40860	         7.11448e+57
          1854.21490	         8.22225e+57
          1855.02120	         6.65423e+57
          1855.82750	         4.16445e+57
          1856.63380	         6.28903e+57
          1857.44010	         7.45512e+57
          1858.24640	         6.46575e+57
          1859.05270	         6.26663e+57
          1859.85900	         4.52678e+57
          1860.66530	         5.03130e+57
          1861.47160	         6.89441e+57
          1862.27790	         7.13355e+57
          1863.08420	         7.98574e+57
          1863.89050	         7.80736e+57
          1864.69680	         7.22850e+57
          1865.50310	         7.08962e+57
          1866.30940	         6.11043e+57
          1867.11570	         6.35172e+57
          1867.92200	         6.56243e+57
          1868.72830	         6.51717e+57
          1869.53460	         7.26028e+57
          1870.34090	         7.59786e+57
          1871.14720	         7.77560e+57
          1871.95350	         7.08935e+57
          1872.75980	         7.30013e+57
          1873.56610	         6.84412e+57
          1874.37240	         5.91552e+57
          1875.17870	         5.97986e+57
          1875.98500	         7.10794e+57
          1876.79130	         7.40811e+57
          1877.59760	         7.05634e+57
          1878.40390	         6.90550e+57
          1879.21020	         5.95487e+57
          1880.01650	         7.30748e+57
          1880.82280	         8.81585e+57
          1881.62910	         8.25308e+57
          1882.43540	         1.02061e+58
          1883.24170	         8.83895e+57
          1884.04800	         7.46434e+57
          1884.85430	         7.99562e+57
          1885.66060	         8.11936e+57
          1886.46690	         7.91983e+57
          1887.27320	         7.66637e+57
          1888.07950	         6.26700e+57
          1888.88580	         7.42304e+57
          1889.69210	         9.02661e+57
          1890.49840	         7.76398e+57
          1891.30470	         7.66895e+57
          1892.11100	         6.38713e+57
          1892.91730	         6.31039e+57
          1893.72360	         6.80050e+57
          1894.52990	         6.69176e+57
          1895.33620	         7.16583e+57
          1896.14250	         6.22085e+57
          1896.94880	         5.14598e+57
          1897.75510	         3.92822e+57
          1898.56140	         6.00013e+57
          1899.36770	         8.48390e+57
          1900.17400	         6.20933e+57
          1900.98030	         5.17981e+57
          1901.78660	         7.03169e+57
          1902.59290	         7.52351e+57
          1903.39920	         8.08398e+57
          1904.20550	         9.20903e+57
          1905.01180	         8.52415e+57
          1905.81810	         9.51136e+57
          1906.62440	         1.26076e+58
          1907.43070	         1.50232e+58
          1908.23700	         1.44314e+58
          1909.04330	         1.22063e+58
          1909.84960	         1.11056e+58
          1910.65590	         1.02572e+58
          1911.46220	         9.57329e+57
          1912.26850	         7.04414e+57
          1913.07480	         5.71400e+57
          1913.88110	         6.18600e+57
          1914.68740	         6.04191e+57
          1915.49370	         5.25261e+57
          1916.30000	         6.33890e+57
          1917.10630	         6.10712e+57
          1917.91260	         5.43222e+57
          1918.71890	         5.99412e+57
          1919.52520	         5.60472e+57
          1920.33150	         5.63763e+57
          1921.13780	         6.90587e+57
          1921.94410	         8.07504e+57
          1922.75040	         7.52573e+57
          1923.55670	         7.16277e+57
          1924.36300	         7.27677e+57
          1925.16930	         6.40172e+57
          1925.97560	         5.81483e+57
          1926.78190	         5.21718e+57
          1927.58820	         6.26089e+57
          1928.39450	         6.43534e+57
          1929.20080	         4.59723e+57
          1930.00710	         5.77378e+57
          1930.81340	         7.39540e+57
          1931.61970	         7.01718e+57
          1932.42600	         7.66904e+57
          1933.23230	         8.35617e+57
          1934.03860	         6.98437e+57
          1934.84490	         6.10041e+57
          1935.65120	         7.85174e+57
          1936.45750	         8.28659e+57
          1937.26380	         6.63630e+57
          1938.07010	         6.93759e+57
          1938.87640	         7.32947e+57
          1939.68270	         8.06972e+57
          1940.48900	         8.71238e+57
          1941.29530	         8.90295e+57
          1942.10160	         7.44272e+57
          1942.90790	         5.26427e+57
          1943.71420	         5.64786e+57
          1944.52050	         5.40643e+57
          1945.32680	         4.94016e+57
          1946.13310	         7.19527e+57
          1946.93940	         8.99639e+57
          1947.74570	         7.56019e+57
          1948.55200	         6.24090e+57
          1949.35830	         6.72347e+57
          1950.16460	         6.22336e+57
          1950.97090	         6.21008e+57
          1951.77720	         7.00229e+57
          1952.58350	         7.94368e+57
          1953.38980	         6.11695e+57
          1954.19610	         4.46578e+57
          1955.00240	         5.44435e+57
          1955.80870	         5.65001e+57
          1956.61500	         5.01572e+57
          1957.42130	         4.90167e+57
          1958.22760	         6.17519e+57
          1959.03390	         7.17138e+57
          1959.84020	         6.92837e+57
          1960.64650	         6.44082e+57
          1961.45280	         6.69760e+57
          1962.25910	         6.22794e+57
          1963.06540	         5.96343e+57
          1963.87170	         5.81917e+57
          1964.67800	         7.68493e+57
          1965.48430	         7.00138e+57
          1966.29060	         7.05865e+57
          1967.09690	         6.88013e+57
          1967.90320	         5.71019e+57
          1968.70950	         6.78577e+57
          1969.51580	         6.44363e+57
          1970.32210	         7.16578e+57
          1971.12840	         7.47739e+57
          1971.93470	         5.72068e+57
          1972.74100	         5.45590e+57
          1973.54730	         6.41515e+57
          1974.35360	         6.09996e+57
          1975.15990	         7.46214e+57
          1975.96620	         6.93575e+57
          1976.77250	         7.22165e+57
          1977.57880	         7.33304e+57
          1978.38510	         6.82035e+57
          1979.19140	         7.73233e+57
          1979.99770	         7.82501e+57
          1980.80400	         7.32900e+57
          1981.61030	         6.57744e+57
          1982.41660	         5.06463e+57
          1983.22290	         5.50845e+57
          1984.02920	         5.10215e+57
          1984.83550	         5.03155e+57
          1985.64180	         5.65626e+57
          1986.44810	         6.44702e+57
          1987.25440	         5.50592e+57
          1988.06070	         5.37236e+57
          1988.86700	         6.44889e+57
          1989.67330	         6.94276e+57
          1990.47960	         5.95614e+57
          1991.28590	         5.95509e+57
          1992.09220	         5.68478e+57
          1992.89850	         5.62456e+57
          1993.70480	         6.07270e+57
          1994.51110	         4.84153e+57
          1995.31740	         4.45583e+57
          1996.12370	         5.16818e+57
          1996.93000	         6.22465e+57
          1997.73630	         7.76908e+57
          1998.54260	         7.45857e+57
          1999.34890	         6.39225e+57
          2000.15520	         5.93647e+57
          2000.96150	         6.76955e+57
          2001.76780	         6.54141e+57
          2002.57410	         5.89103e+57
          2003.38040	         5.46573e+57
          2004.18670	         6.68619e+57
          2004.99300	         6.40668e+57
          2005.79930	         7.42757e+57
          2006.60560	         7.38617e+57
          2007.41190	         6.78426e+57
          2008.21820	         6.47051e+57
          2009.02450	         6.70236e+57
          2009.83080	         6.25791e+57
          2010.63710	         6.66172e+57
          2011.44340	         6.97270e+57
          2012.24970	         7.37969e+57
          2013.05600	         7.48945e+57
          2013.86230	         6.89698e+57
          2014.66860	         5.44604e+57
          2015.47490	         5.85314e+57
          2016.28120	         6.21658e+57
          2017.08750	         5.78972e+57
          2017.89380	         5.70397e+57
          2018.70010	         6.19585e+57
          2019.50640	         6.64213e+57
          2020.31270	         6.34730e+57
          2021.11900	         6.61794e+57
          2021.92530	         6.69309e+57
          2022.73160	         6.47472e+57
          2023.53790	         7.32501e+57
          2024.34420	         6.71008e+57
          2025.15050	         6.08252e+57
          2025.95680	         5.51219e+57
          2026.76310	         6.59672e+57
          2027.56940	         7.17451e+57
          2028.37570	         6.99883e+57
          2029.18200	         5.67606e+57
          2029.98830	         5.91614e+57
          2030.79460	         6.23426e+57
          2031.60090	         6.86365e+57
          2032.40720	         4.71749e+57
          2033.21350	         4.80655e+57
          2034.01980	         4.60223e+57
          2034.82610	         3.68435e+57
          2035.63240	         4.97408e+57
          2036.43870	         5.89785e+57
          2037.24500	         6.70158e+57
          2038.05130	         7.34709e+57
          2038.85760	         4.95401e+57
          2039.66390	         5.53489e+57
          2040.47020	         6.17962e+57
          2041.27650	         5.66166e+57
          2042.08280	         5.44959e+57
          2042.88910	         5.23379e+57
          2043.69540	         6.10646e+57
          2044.50170	         6.33264e+57
          2045.30800	         5.31347e+57
          2046.11430	         4.22001e+57
          2046.92060	         5.07964e+57
          2047.72690	         6.64185e+57
          2048.53320	         5.53524e+57
          2049.33950	         3.27528e+57
          2050.14580	         3.95116e+57
          2050.95210	         5.35108e+57
          2051.75840	         7.18652e+57
          2052.56470	         4.97571e+57
          2053.37100	         4.82752e+57
          2054.17730	         4.69043e+57
          2054.98360	         5.17046e+57
          2055.78990	         3.05778e+57
          2056.59620	         2.86063e+57
          2057.40250	         4.95514e+57
          2058.20880	         7.80099e+57
          2059.01510	         6.62785e+57
          2059.82140	         6.44981e+57
          2060.62770	         9.52390e+57
          2061.43400	         1.65244e+58
          2062.24030	         1.21452e+58
          2063.04660	         4.50020e+57
          2063.85290	         2.46646e+57
          2064.65920	        -3.17960e+57
          2065.46550	        -8.79847e+57
          2066.27180	        -7.87662e+57
          2067.07810	         2.29055e+57
          2067.88440	         5.56964e+57
          2068.69070	         6.35479e+57
          2069.49700	         6.24886e+57
          2070.30330	         5.42595e+57
          2071.10960	         4.59186e+57
          2071.91590	         6.97925e+57
          2072.72220	         4.42866e+57
          2073.52850	         4.71066e+57
          2074.33480	         5.27747e+57
          2075.14110	         4.28707e+57
          2075.94740	         4.49859e+57
          2076.75370	         5.07556e+57
          2077.56000	         4.50229e+57
          2078.36630	         5.49222e+57
          2079.17260	         6.10315e+57
          2079.97890	         6.09544e+57
          2080.78520	         5.71050e+57
          2081.59150	         4.84785e+57
          2082.39780	         4.86644e+57
          2083.20410	         4.09129e+57
          2084.01040	         3.65238e+57
          2084.81670	         5.16118e+57
          2085.62300	         4.58518e+57
          2086.42930	         2.25458e+57
          2087.23560	         2.87327e+57
          2088.04190	         4.52049e+57
          2088.84820	         4.54760e+57
          2089.65450	         2.47121e+57
          2090.46080	         1.03191e+57
          2091.26710	         2.16782e+57
          2092.07340	         3.88696e+57
          2092.87970	         2.72922e+57
          2093.68600	        -1.34065e+57
          2094.49230	         2.92705e+57
          2095.29860	         7.37652e+57
          2096.10490	         4.02095e+57
          2096.91120	        -4.00082e+56
          2097.71750	        -5.79169e+56
          2098.52380	         4.13683e+55
          2099.33010	         1.81495e+57
          2100.13640	         2.21940e+57
          2100.94270	         2.25582e+57
          2101.74900	         3.04182e+57
          2102.55530	         4.42249e+57
          2103.36160	         1.63063e+57
          2104.16790	         1.65876e+57
          2104.97420	         2.97379e+57
          2105.78050	         3.53330e+57
          2106.58680	         1.55321e+57
          2107.39310	        -1.43940e+57
          2108.19940	         8.13498e+56
          2109.00570	         3.82922e+56
          2109.81200	         1.51380e+57
          2110.61830	         2.82654e+57
          2111.42460	         1.88192e+57
          2112.23090	         1.02860e+57
          2113.03720	         1.51884e+57
          2113.84350	         5.90209e+56
          2114.64980	         5.19338e+57
          2115.45610	         2.30115e+57
          2116.26240	        -3.11345e+56
          2117.06870	        -1.79346e+56
          2117.87500	        -2.11462e+57
          2118.68130	         9.24887e+56
          2119.48760	         1.88370e+57
          2120.29390	        -4.37779e+56
          2121.10020	        -4.95669e+57
          2121.90650	        -2.74893e+57
          2122.71280	         1.78687e+57
          2123.51910	         4.52702e+57
          2124.32540	         8.80463e+55
          2125.13170	        -1.45258e+57
          2125.93800	         2.00907e+57
          2126.74430	         2.93751e+56
          2127.55060	        -6.60056e+57
          2128.35690	        -3.54676e+57
          2129.16320	        -2.99643e+56
          2129.96950	         1.31319e+56
          2130.77580	         6.48225e+56
          2131.58210	         2.24423e+57
          2132.38840	        -1.36096e+57
          2133.19470	         9.09483e+56
          2134.00100	         8.31177e+56
          2134.80730	        -5.61680e+57
          2135.61360	        -1.51620e+57
          2136.41990	         5.73859e+56
          2137.22620	         1.55830e+57
          2138.03250	        -3.96463e+57
          2138.83880	        -1.00638e+58
          2139.64510	        -3.19680e+57
          2140.45140	        -2.75545e+57
          2141.25770	        -6.61191e+57
          2142.06400	         1.14960e+57
          2142.87030	         3.02196e+57
          2143.67660	         1.19281e+57
          2144.48290	        -2.27291e+57
          2145.28920	         1.11105e+58
          2146.09550	         5.18313e+56
          2146.90180	        -8.20819e+57
          2147.70810	        -2.29374e+57
          2148.51440	        -3.02836e+57
          2149.32070	        -8.43076e+57
          2150.12700	        -1.84700e+58
          2150.93330	        -1.27400e+58
          2151.73960	        -9.28298e+56
          2152.54590	        -7.29151e+57
          2153.35220	        -6.34574e+57
          2154.15850	        -1.00917e+58
          2154.96480	         9.85866e+56
          2155.77110	        -1.36429e+57
          2156.57740	        -9.20651e+57
          2157.38370	        -3.18229e+57
          2158.19000	        -6.07090e+57
          2158.99630	        -5.55819e+57
          2159.80260	        -1.27057e+58
          2160.60890	        -4.99826e+57
          2161.41520	        -4.36298e+57
          2162.22150	         3.65340e+57
          2163.02780	         1.15259e+55
          2163.83410	        -8.27107e+57
          2164.64040	        -1.13927e+58
          2165.44670	        -5.71985e+57
          2166.25300	        -6.62025e+57
          2167.05930	        -7.72831e+57
          2167.86560	        -1.44764e+58
          2168.67190	        -3.31820e+57
          2169.47820	        -6.06833e+57
          2170.28450	        -1.11010e+58
          2171.09080	        -3.29519e+57
          2171.89710	        -3.89848e+57
          2172.70340	        -4.79148e+57
          2173.50970	        -5.66234e+57
          2174.31600	        -9.09288e+57
          2175.12230	        -5.24539e+57
          2175.92860	        -3.45724e+57
          2176.73490	        -7.40125e+57
          2177.54120	        -3.78586e+57
          2178.34750	        -2.98954e+57
          2179.15380	                 nan
          2179.96010	                 nan
          2180.76640	                 nan
          2181.57270	                 nan
          2182.37900	                 nan
          2183.18530	                 nan
          2183.99160	                 nan
          2184.79790	                 nan
          2185.60420	                 nan
          2186.41050	                 nan
          2187.21680	                 nan
          2188.02310	                 nan
          2188.82940	                 nan
          2189.63570	                 nan
          2190.44200	                 nan
          2191.24830	                 nan
          2192.05460	                 nan
          2192.86090	                 nan
          2193.66720	                 nan
          2194.47350	                 nan
          2195.27980	                 nan
          2196.08610	                 nan
          2196.89240	                 nan
          2197.69870	                 nan
          2198.50500	                 nan
          2199.31130	                 nan
          2200.11760	                 nan
          2200.92390	                 nan
          2201.73020	                 nan
          2202.53650	                 nan
          2203.34280	                 nan
          2204.14910	                 nan
          2204.95540	                 nan
          2205.76170	                 nan
          2206.56800	                 nan
          2207.37430	                 nan
          2208.18060	                 nan
          2208.98690	                 nan
          2209.79320	                 nan
          2210.59950	                 nan
          2211.40580	                 nan
          2212.21210	                 nan
          2213.01840	                 nan
          2213.82470	                 nan
          2214.63100	                 nan
          2215.43730	         0.00000e+00
