#sample_190_stacked_spectrum_rest_UV-bands_median_H-alpha_noDC.txt
#median Lum: 1.67870e+42
#Rest-frame wavelength (A) | Luminosity (erg/s/A)
#
          1110.00000	         0.00000e+00
          1110.80630	         1.59064e+59
          1111.61260	         1.92832e+59
          1112.41890	         8.48976e+58
          1113.22520	        -3.32840e+58
          1114.03150	        -1.35085e+59
          1114.83780	        -4.85915e+58
          1115.64410	         2.94802e+58
          1116.45040	         4.20838e+58
          1117.25670	         7.69553e+58
          1118.06300	         1.43278e+59
          1118.86930	        -7.00099e+58
          1119.67560	         4.82086e+58
          1120.48190	        -7.50051e+58
          1121.28820	        -1.57500e+59
          1122.09450	        -4.59274e+58
          1122.90080	        -1.45357e+58
          1123.70710	         9.14739e+58
          1124.51340	         1.79354e+59
          1125.31970	         2.93540e+58
          1126.12600	         4.17377e+58
          1126.93230	        -2.76137e+58
          1127.73860	        -7.69637e+58
          1128.54490	         8.29687e+57
          1129.35120	         6.17181e+57
          1130.15750	        -3.55262e+58
          1130.96380	        -5.03831e+58
          1131.77010	         2.17996e+58
          1132.57640	         4.37775e+58
          1133.38270	        -1.16529e+58
          1134.18900	         8.52345e+57
          1134.99530	        -2.18793e+57
          1135.80160	         2.38207e+58
          1136.60790	         1.41600e+58
          1137.41420	        -1.07601e+58
          1138.22050	         3.13181e+58
          1139.02680	         3.76725e+58
          1139.83310	         1.99997e+58
          1140.63940	         2.63497e+58
          1141.44570	        -9.21324e+57
          1142.25200	        -9.22349e+57
          1143.05830	         2.20379e+58
          1143.86460	         3.68691e+58
          1144.67090	         1.62350e+58
          1145.47720	         8.19895e+57
          1146.28350	         1.32353e+58
          1147.08980	         2.21061e+58
          1147.89610	         6.46190e+57
          1148.70240	         2.63289e+58
          1149.50870	         2.00569e+58
          1150.31500	         9.59507e+57
          1151.12130	         7.41936e+57
          1151.92760	         5.31872e+57
          1152.73390	        -1.17062e+57
          1153.54020	         1.23226e+57
          1154.34650	         1.82917e+58
          1155.15280	         1.96639e+58
          1155.95910	         1.07594e+58
          1156.76540	         1.95339e+58
          1157.57170	         1.83610e+58
          1158.37800	        -5.15997e+57
          1159.18430	         2.19485e+57
          1159.99060	         6.66688e+57
          1160.79690	         4.93092e+57
          1161.60320	         7.56945e+57
          1162.40950	         1.10984e+58
          1163.21580	         2.09349e+58
          1164.02210	         1.77065e+58
          1164.82840	         3.58361e+57
          1165.63470	         2.06169e+58
          1166.44100	         2.99900e+58
          1167.24730	         1.93813e+58
          1168.05360	         4.04765e+57
          1168.85990	         5.63549e+57
          1169.66620	         2.62537e+57
          1170.47250	         1.10216e+58
          1171.27880	         6.26426e+57
          1172.08510	         8.29833e+57
          1172.89140	         1.20691e+58
          1173.69770	         7.21662e+57
          1174.50400	         1.28375e+58
          1175.31030	         1.43396e+58
          1176.11660	         1.18334e+58
          1176.92290	         1.62327e+58
          1177.72920	         1.21952e+58
          1178.53550	         4.74881e+57
          1179.34180	         6.59379e+57
          1180.14810	         1.12445e+58
          1180.95440	         9.84260e+57
          1181.76070	         7.60875e+57
          1182.56700	         1.09432e+58
          1183.37330	         7.54009e+57
          1184.17960	         1.12017e+58
          1184.98590	         1.41328e+58
          1185.79220	         9.44380e+57
          1186.59850	         1.12457e+58
          1187.40480	         1.05086e+58
          1188.21110	         1.27696e+58
          1189.01740	         1.30046e+58
          1189.82370	         1.15165e+58
          1190.63000	         6.40358e+57
          1191.43630	         8.94928e+57
          1192.24260	         9.29154e+57
          1193.04890	         1.39564e+58
          1193.85520	         1.31626e+58
          1194.66150	         4.01770e+57
          1195.46780	         1.18702e+58
          1196.27410	         1.72426e+58
          1197.08040	         1.20053e+58
          1197.88670	         1.22755e+58
          1198.69300	         1.17569e+58
          1199.49930	         1.49312e+58
          1200.30560	         1.40490e+58
          1201.11190	         1.22649e+58
          1201.91820	         1.19369e+58
          1202.72450	         7.05737e+57
          1203.53080	         1.12578e+58
          1204.33710	         8.41838e+57
          1205.14340	         3.15118e+57
          1205.94970	         6.83346e+57
          1206.75600	         5.76008e+57
          1207.56230	         6.13531e+57
          1208.36860	         7.73698e+57
          1209.17490	         4.23524e+57
          1209.98120	         2.79037e+57
          1210.78750	         6.42203e+57
          1211.59380	         9.06698e+57
          1212.40010	         1.57333e+58
          1213.20640	         2.00932e+58
          1214.01270	         2.22509e+58
          1214.81900	         2.81978e+58
          1215.62530	         4.59227e+58
          1216.43160	         9.40031e+58
          1217.23790	         1.53140e+59
          1218.04420	         1.15311e+59
          1218.85050	         8.93122e+58
          1219.65680	         5.82488e+58
          1220.46310	         3.01964e+58
          1221.26940	         1.99244e+58
          1222.07570	         1.68550e+58
          1222.88200	         1.33662e+58
          1223.68830	         9.45822e+57
          1224.49460	         8.68292e+57
          1225.30090	         7.26897e+57
          1226.10720	         6.99008e+57
          1226.91350	         8.77900e+57
          1227.71980	         8.64449e+57
          1228.52610	         1.24621e+58
          1229.33240	         9.98273e+57
          1230.13870	         1.19794e+58
          1230.94500	         1.01494e+58
          1231.75130	         6.45224e+57
          1232.55760	         1.02762e+58
          1233.36390	         7.53076e+57
          1234.17020	         1.02139e+58
          1234.97650	         1.00392e+58
          1235.78280	         1.16352e+58
          1236.58910	         8.89919e+57
          1237.39540	         6.52423e+57
          1238.20170	         8.41770e+57
          1239.00800	         1.42079e+58
          1239.81430	         1.67290e+58
          1240.62060	         1.28831e+58
          1241.42690	         1.13315e+58
          1242.23320	         1.28586e+58
          1243.03950	         8.37604e+57
          1243.84580	         5.60078e+57
          1244.65210	         9.21811e+57
          1245.45840	         1.06717e+58
          1246.26470	         7.28631e+57
          1247.07100	         4.69829e+57
          1247.87730	         4.95995e+57
          1248.68360	         2.95475e+57
          1249.48990	         4.74807e+57
          1250.29620	         7.47715e+57
          1251.10250	         5.47674e+57
          1251.90880	         5.87081e+57
          1252.71510	         5.41155e+57
          1253.52140	         7.36068e+57
          1254.32770	         1.07878e+58
          1255.13400	         1.36852e+58
          1255.94030	         1.10776e+58
          1256.74660	         9.92446e+57
          1257.55290	         1.12056e+58
          1258.35920	         8.34730e+57
          1259.16550	         5.35543e+57
          1259.97180	         3.97395e+57
          1260.77810	         7.69662e+57
          1261.58440	         1.18502e+58
          1262.39070	         8.86176e+57
          1263.19700	         9.92782e+57
          1264.00330	         8.64974e+57
          1264.80960	         1.05241e+58
          1265.61590	         1.36833e+58
          1266.42220	         1.23435e+58
          1267.22850	         1.11106e+58
          1268.03480	         1.51642e+58
          1268.84110	         1.63880e+58
          1269.64740	         1.39452e+58
          1270.45370	         1.43714e+58
          1271.26000	         1.25538e+58
          1272.06630	         1.24554e+58
          1272.87260	         1.32575e+58
          1273.67890	         1.28493e+58
          1274.48520	         1.40433e+58
          1275.29150	         1.21128e+58
          1276.09780	         1.25030e+58
          1276.90410	         1.64627e+58
          1277.71040	         1.36923e+58
          1278.51670	         1.12139e+58
          1279.32300	         1.49395e+58
          1280.12930	         1.43665e+58
          1280.93560	         1.06444e+58
          1281.74190	         1.03320e+58
          1282.54820	         1.31702e+58
          1283.35450	         1.31036e+58
          1284.16080	         1.29782e+58
          1284.96710	         1.41031e+58
          1285.77340	         1.21975e+58
          1286.57970	         1.01188e+58
          1287.38600	         1.32357e+58
          1288.19230	         1.70893e+58
          1288.99860	         1.56800e+58
          1289.80490	         1.21307e+58
          1290.61120	         1.25814e+58
          1291.41750	         1.28945e+58
          1292.22380	         1.18539e+58
          1293.03010	         1.16276e+58
          1293.83640	         1.11749e+58
          1294.64270	         1.11996e+58
          1295.44900	         7.08216e+57
          1296.25530	         6.78041e+57
          1297.06160	         1.01478e+58
          1297.86790	         1.02553e+58
          1298.67420	         9.82490e+57
          1299.48050	         1.09970e+58
          1300.28680	         1.22666e+58
          1301.09310	         9.01043e+57
          1301.89940	         4.41928e+57
          1302.70570	         6.00500e+57
          1303.51200	         7.01302e+57
          1304.31830	         9.87205e+57
          1305.12460	         1.22261e+58
          1305.93090	         1.13931e+58
          1306.73720	         1.22712e+58
          1307.54350	         1.36530e+58
          1308.34980	         1.36076e+58
          1309.15610	         1.40845e+58
          1309.96240	         1.42704e+58
          1310.76870	         1.22878e+58
          1311.57500	         1.14866e+58
          1312.38130	         1.06863e+58
          1313.18760	         1.44663e+58
          1313.99390	         1.80609e+58
          1314.80020	         1.63974e+58
          1315.60650	         1.63842e+58
          1316.41280	         1.39952e+58
          1317.21910	         1.14929e+58
          1318.02540	         1.18719e+58
          1318.83170	         1.32682e+58
          1319.63800	         1.19608e+58
          1320.44430	         1.04571e+58
          1321.25060	         1.15322e+58
          1322.05690	         1.18102e+58
          1322.86320	         1.15371e+58
          1323.66950	         1.12105e+58
          1324.47580	         8.14084e+57
          1325.28210	         8.18133e+57
          1326.08840	         1.07438e+58
          1326.89470	         1.19473e+58
          1327.70100	         1.04463e+58
          1328.50730	         8.02437e+57
          1329.31360	         9.79613e+57
          1330.11990	         1.03228e+58
          1330.92620	         9.09894e+57
          1331.73250	         1.09175e+58
          1332.53880	         1.10139e+58
          1333.34510	         9.47313e+57
          1334.15140	         9.00048e+57
          1334.95770	         9.51466e+57
          1335.76400	         1.13598e+58
          1336.57030	         1.15557e+58
          1337.37660	         9.34344e+57
          1338.18290	         9.38895e+57
          1338.98920	         1.14909e+58
          1339.79550	         1.11283e+58
          1340.60180	         1.24354e+58
          1341.40810	         1.43572e+58
          1342.21440	         1.23995e+58
          1343.02070	         1.13448e+58
          1343.82700	         1.28204e+58
          1344.63330	         1.24587e+58
          1345.43960	         1.35695e+58
          1346.24590	         1.07325e+58
          1347.05220	         1.16262e+58
          1347.85850	         1.20674e+58
          1348.66480	         1.07497e+58
          1349.47110	         1.30366e+58
          1350.27740	         1.26521e+58
          1351.08370	         1.22844e+58
          1351.89000	         1.18203e+58
          1352.69630	         9.85487e+57
          1353.50260	         1.22770e+58
          1354.30890	         1.35910e+58
          1355.11520	         1.24907e+58
          1355.92150	         1.11441e+58
          1356.72780	         1.04427e+58
          1357.53410	         1.04622e+58
          1358.34040	         1.10878e+58
          1359.14670	         1.01011e+58
          1359.95300	         1.07771e+58
          1360.75930	         1.12044e+58
          1361.56560	         1.15698e+58
          1362.37190	         1.18402e+58
          1363.17820	         1.06665e+58
          1363.98450	         1.09098e+58
          1364.79080	         1.14696e+58
          1365.59710	         1.13873e+58
          1366.40340	         1.16955e+58
          1367.20970	         1.01518e+58
          1368.01600	         9.18468e+57
          1368.82230	         1.00040e+58
          1369.62860	         1.10268e+58
          1370.43490	         9.75416e+57
          1371.24120	         9.24571e+57
          1372.04750	         8.72730e+57
          1372.85380	         1.13883e+58
          1373.66010	         1.15997e+58
          1374.46640	         1.12873e+58
          1375.27270	         1.04817e+58
          1376.07900	         9.91233e+57
          1376.88530	         9.19074e+57
          1377.69160	         8.88358e+57
          1378.49790	         7.91969e+57
          1379.30420	         8.29108e+57
          1380.11050	         1.07845e+58
          1380.91680	         9.35632e+57
          1381.72310	         7.49339e+57
          1382.52940	         7.88257e+57
          1383.33570	         8.59956e+57
          1384.14200	         8.43059e+57
          1384.94830	         9.85300e+57
          1385.75460	         1.15288e+58
          1386.56090	         1.06679e+58
          1387.36720	         1.05708e+58
          1388.17350	         1.15821e+58
          1388.97980	         9.30145e+57
          1389.78610	         7.86330e+57
          1390.59240	         7.86299e+57
          1391.39870	         6.88246e+57
          1392.20500	         8.61774e+57
          1393.01130	         7.18938e+57
          1393.81760	         7.20308e+57
          1394.62390	         7.99014e+57
          1395.43020	         7.39160e+57
          1396.23650	         6.96663e+57
          1397.04280	         8.20096e+57
          1397.84910	         9.45988e+57
          1398.65540	         8.11394e+57
          1399.46170	         8.71974e+57
          1400.26800	         8.42598e+57
          1401.07430	         6.69258e+57
          1401.88060	         8.12101e+57
          1402.68690	         1.00877e+58
          1403.49320	         1.06361e+58
          1404.29950	         1.05256e+58
          1405.10580	         9.92672e+57
          1405.91210	         1.05758e+58
          1406.71840	         1.07593e+58
          1407.52470	         9.31750e+57
          1408.33100	         9.51864e+57
          1409.13730	         1.10259e+58
          1409.94360	         1.25207e+58
          1410.74990	         1.15866e+58
          1411.55620	         1.01506e+58
          1412.36250	         9.48861e+57
          1413.16880	         9.81106e+57
          1413.97510	         7.70419e+57
          1414.78140	         8.11822e+57
          1415.58770	         1.13960e+58
          1416.39400	         1.30140e+58
          1417.20030	         1.24976e+58
          1418.00660	         1.02934e+58
          1418.81290	         9.26670e+57
          1419.61920	         1.03251e+58
          1420.42550	         1.36516e+58
          1421.23180	         1.43438e+58
          1422.03810	         1.25390e+58
          1422.84440	         1.06926e+58
          1423.65070	         1.33304e+58
          1424.45700	         1.17693e+58
          1425.26330	         8.36633e+57
          1426.06960	         8.26563e+57
          1426.87590	         1.03272e+58
          1427.68220	         9.96486e+57
          1428.48850	         9.79130e+57
          1429.29480	         1.04967e+58
          1430.10110	         1.01216e+58
          1430.90740	         9.79594e+57
          1431.71370	         8.38705e+57
          1432.52000	         7.29468e+57
          1433.32630	         7.87389e+57
          1434.13260	         8.43204e+57
          1434.93890	         8.22202e+57
          1435.74520	         7.92020e+57
          1436.55150	         9.31552e+57
          1437.35780	         9.35157e+57
          1438.16410	         9.00645e+57
          1438.97040	         8.10530e+57
          1439.77670	         8.95434e+57
          1440.58300	         9.43017e+57
          1441.38930	         8.77270e+57
          1442.19560	         9.23106e+57
          1443.00190	         1.00995e+58
          1443.80820	         1.13690e+58
          1444.61450	         1.05113e+58
          1445.42080	         9.14440e+57
          1446.22710	         1.08067e+58
          1447.03340	         9.83622e+57
          1447.83970	         9.84496e+57
          1448.64600	         1.09867e+58
          1449.45230	         1.01251e+58
          1450.25860	         8.87697e+57
          1451.06490	         9.11126e+57
          1451.87120	         8.96062e+57
          1452.67750	         7.83822e+57
          1453.48380	         8.54107e+57
          1454.29010	         7.75693e+57
          1455.09640	         7.27097e+57
          1455.90270	         8.80245e+57
          1456.70900	         8.62698e+57
          1457.51530	         9.45889e+57
          1458.32160	         1.07016e+58
          1459.12790	         1.07960e+58
          1459.93420	         9.58979e+57
          1460.74050	         8.00142e+57
          1461.54680	         7.95951e+57
          1462.35310	         7.98817e+57
          1463.15940	         9.33981e+57
          1463.96570	         1.13824e+58
          1464.77200	         1.30568e+58
          1465.57830	         1.12799e+58
          1466.38460	         9.12302e+57
          1467.19090	         8.49404e+57
          1467.99720	         9.04017e+57
          1468.80350	         9.21731e+57
          1469.60980	         9.11981e+57
          1470.41610	         1.00348e+58
          1471.22240	         1.10618e+58
          1472.02870	         1.07790e+58
          1472.83500	         9.83933e+57
          1473.64130	         1.07707e+58
          1474.44760	         9.45307e+57
          1475.25390	         9.34255e+57
          1476.06020	         9.43269e+57
          1476.86650	         8.97999e+57
          1477.67280	         8.02700e+57
          1478.47910	         7.15141e+57
          1479.28540	         6.78511e+57
          1480.09170	         8.40228e+57
          1480.89800	         9.04443e+57
          1481.70430	         8.65560e+57
          1482.51060	         8.77720e+57
          1483.31690	         7.85493e+57
          1484.12320	         7.18677e+57
          1484.92950	         7.56244e+57
          1485.73580	         7.80940e+57
          1486.54210	         8.07781e+57
          1487.34840	         7.86091e+57
          1488.15470	         7.19092e+57
          1488.96100	         8.72262e+57
          1489.76730	         9.78867e+57
          1490.57360	         8.67612e+57
          1491.37990	         7.35163e+57
          1492.18620	         8.00451e+57
          1492.99250	         7.91882e+57
          1493.79880	         8.24615e+57
          1494.60510	         8.37557e+57
          1495.41140	         7.80624e+57
          1496.21770	         8.80557e+57
          1497.02400	         1.05951e+58
          1497.83030	         9.55551e+57
          1498.63660	         6.99437e+57
          1499.44290	         6.74782e+57
          1500.24920	         6.77926e+57
          1501.05550	         8.17097e+57
          1501.86180	         9.46780e+57
          1502.66810	         9.59163e+57
          1503.47440	         8.59277e+57
          1504.28070	         7.57862e+57
          1505.08700	         9.19815e+57
          1505.89330	         9.64642e+57
          1506.69960	         8.56778e+57
          1507.50590	         8.72123e+57
          1508.31220	         8.72765e+57
          1509.11850	         8.49289e+57
          1509.92480	         9.10622e+57
          1510.73110	         8.75412e+57
          1511.53740	         7.89370e+57
          1512.34370	         7.74048e+57
          1513.15000	         9.05615e+57
          1513.95630	         1.02917e+58
          1514.76260	         9.39411e+57
          1515.56890	         8.00196e+57
          1516.37520	         8.71024e+57
          1517.18150	         9.31489e+57
          1517.98780	         8.06339e+57
          1518.79410	         7.43398e+57
          1519.60040	         8.13006e+57
          1520.40670	         9.72122e+57
          1521.21300	         9.22930e+57
          1522.01930	         7.14559e+57
          1522.82560	         8.75125e+57
          1523.63190	         1.06060e+58
          1524.43820	         9.47363e+57
          1525.24450	         6.69274e+57
          1526.05080	         5.55619e+57
          1526.85710	         6.07684e+57
          1527.66340	         6.54384e+57
          1528.46970	         6.94344e+57
          1529.27600	         6.97412e+57
          1530.08230	         6.96266e+57
          1530.88860	         8.06549e+57
          1531.69490	         9.31652e+57
          1532.50120	         1.00748e+58
          1533.30750	         9.36848e+57
          1534.11380	         9.34383e+57
          1534.92010	         9.93343e+57
          1535.72640	         9.87543e+57
          1536.53270	         9.22037e+57
          1537.33900	         8.94865e+57
          1538.14530	         8.50730e+57
          1538.95160	         8.37546e+57
          1539.75790	         8.47458e+57
          1540.56420	         8.49494e+57
          1541.37050	         7.60027e+57
          1542.17680	         7.19060e+57
          1542.98310	         7.69414e+57
          1543.78940	         7.89081e+57
          1544.59570	         6.77162e+57
          1545.40200	         7.25156e+57
          1546.20830	         8.99140e+57
          1547.01460	         1.08746e+58
          1547.82090	         1.14149e+58
          1548.62720	         1.25623e+58
          1549.43350	         1.21696e+58
          1550.23980	         1.18552e+58
          1551.04610	         1.29947e+58
          1551.85240	         1.29735e+58
          1552.65870	         1.13442e+58
          1553.46500	         9.94744e+57
          1554.27130	         9.73516e+57
          1555.07760	         9.57767e+57
          1555.88390	         8.82681e+57
          1556.69020	         9.41201e+57
          1557.49650	         9.33402e+57
          1558.30280	         8.37261e+57
          1559.10910	         8.74875e+57
          1559.91540	         1.03102e+58
          1560.72170	         9.75749e+57
          1561.52800	         7.84093e+57
          1562.33430	         8.12899e+57
          1563.14060	         8.58349e+57
          1563.94690	         8.84564e+57
          1564.75320	         8.40493e+57
          1565.55950	         7.33539e+57
          1566.36580	         7.63020e+57
          1567.17210	         9.22683e+57
          1567.97840	         9.59998e+57
          1568.78470	         8.41066e+57
          1569.59100	         9.04652e+57
          1570.39730	         8.84412e+57
          1571.20360	         7.95219e+57
          1572.00990	         8.13175e+57
          1572.81620	         8.72313e+57
          1573.62250	         1.01202e+58
          1574.42880	         9.37265e+57
          1575.23510	         7.46503e+57
          1576.04140	         8.63904e+57
          1576.84770	         9.91055e+57
          1577.65400	         9.12815e+57
          1578.46030	         9.73010e+57
          1579.26660	         1.02335e+58
          1580.07290	         8.57732e+57
          1580.87920	         7.33249e+57
          1581.68550	         7.77163e+57
          1582.49180	         8.15389e+57
          1583.29810	         7.87508e+57
          1584.10440	         8.14337e+57
          1584.91070	         8.13765e+57
          1585.71700	         8.40530e+57
          1586.52330	         9.03632e+57
          1587.32960	         8.90431e+57
          1588.13590	         9.13077e+57
          1588.94220	         9.00979e+57
          1589.74850	         8.93552e+57
          1590.55480	         8.49754e+57
          1591.36110	         8.46434e+57
          1592.16740	         8.02355e+57
          1592.97370	         8.23810e+57
          1593.78000	         8.73290e+57
          1594.58630	         8.63233e+57
          1595.39260	         8.68315e+57
          1596.19890	         8.60811e+57
          1597.00520	         9.26619e+57
          1597.81150	         8.55491e+57
          1598.61780	         6.91889e+57
          1599.42410	         6.55950e+57
          1600.23040	         6.01901e+57
          1601.03670	         7.11586e+57
          1601.84300	         7.66381e+57
          1602.64930	         8.14163e+57
          1603.45560	         9.89379e+57
          1604.26190	         8.78298e+57
          1605.06820	         8.43312e+57
          1605.87450	         8.02861e+57
          1606.68080	         7.26660e+57
          1607.48710	         5.43254e+57
          1608.29340	         5.76156e+57
          1609.09970	         8.04034e+57
          1609.90600	         7.89867e+57
          1610.71230	         6.70711e+57
          1611.51860	         6.59584e+57
          1612.32490	         6.40699e+57
          1613.13120	         7.77073e+57
          1613.93750	         8.41920e+57
          1614.74380	         8.81947e+57
          1615.55010	         8.37012e+57
          1616.35640	         9.25621e+57
          1617.16270	         1.11588e+58
          1617.96900	         1.05984e+58
          1618.77530	         9.62941e+57
          1619.58160	         9.24193e+57
          1620.38790	         9.24498e+57
          1621.19420	         9.50785e+57
          1622.00050	         7.30209e+57
          1622.80680	         7.22053e+57
          1623.61310	         8.34083e+57
          1624.41940	         8.91437e+57
          1625.22570	         9.88216e+57
          1626.03200	         9.39635e+57
          1626.83830	         7.69170e+57
          1627.64460	         6.76588e+57
          1628.45090	         6.03185e+57
          1629.25720	         8.17239e+57
          1630.06350	         9.60535e+57
          1630.86980	         5.35881e+57
          1631.67610	         6.78673e+57
          1632.48240	         8.15100e+57
          1633.28870	         7.60683e+57
          1634.09500	         8.97773e+57
          1634.90130	         1.13261e+58
          1635.70760	         1.04750e+58
          1636.51390	         8.66950e+57
          1637.32020	         8.81177e+57
          1638.12650	         8.96569e+57
          1638.93280	         8.77508e+57
          1639.73910	         9.59755e+57
          1640.54540	         1.01875e+58
          1641.35170	         8.55431e+57
          1642.15800	         9.17731e+57
          1642.96430	         9.05943e+57
          1643.77060	         8.34937e+57
          1644.57690	         8.52028e+57
          1645.38320	         9.54008e+57
          1646.18950	         7.80574e+57
          1646.99580	         7.81583e+57
          1647.80210	         7.87793e+57
          1648.60840	         7.17431e+57
          1649.41470	         7.87748e+57
          1650.22100	         6.71365e+57
          1651.02730	         7.20968e+57
          1651.83360	         7.41028e+57
          1652.63990	         7.64137e+57
          1653.44620	         8.15009e+57
          1654.25250	         8.14749e+57
          1655.05880	         8.17257e+57
          1655.86510	         8.59683e+57
          1656.67140	         9.19577e+57
          1657.47770	         8.12833e+57
          1658.28400	         7.47307e+57
          1659.09030	         8.31084e+57
          1659.89660	         8.99244e+57
          1660.70290	         1.01571e+58
          1661.50920	         1.00994e+58
          1662.31550	         8.21359e+57
          1663.12180	         8.31423e+57
          1663.92810	         1.05203e+58
          1664.73440	         1.15599e+58
          1665.54070	         1.12567e+58
          1666.34700	         1.22458e+58
          1667.15330	         1.12561e+58
          1667.95960	         9.46076e+57
          1668.76590	         7.79275e+57
          1669.57220	         7.49568e+57
          1670.37850	         8.21895e+57
          1671.18480	         8.03160e+57
          1671.99110	         7.53581e+57
          1672.79740	         6.93622e+57
          1673.60370	         6.85948e+57
          1674.41000	         7.78339e+57
          1675.21630	         8.13088e+57
          1676.02260	         7.83944e+57
          1676.82890	         7.10407e+57
          1677.63520	         7.28794e+57
          1678.44150	         7.20739e+57
          1679.24780	         9.23158e+57
          1680.05410	         7.64476e+57
          1680.86040	         5.55354e+57
          1681.66670	         6.34523e+57
          1682.47300	         6.77845e+57
          1683.27930	         7.72402e+57
          1684.08560	         8.31220e+57
          1684.89190	         7.31768e+57
          1685.69820	         5.80064e+57
          1686.50450	         5.53802e+57
          1687.31080	         6.40924e+57
          1688.11710	         7.22333e+57
          1688.92340	         6.53047e+57
          1689.72970	         6.27887e+57
          1690.53600	         6.89523e+57
          1691.34230	         7.59936e+57
          1692.14860	         8.47631e+57
          1692.95490	         8.01504e+57
          1693.76120	         7.45024e+57
          1694.56750	         7.96918e+57
          1695.37380	         9.11973e+57
          1696.18010	         7.83567e+57
          1696.98640	         7.45458e+57
          1697.79270	         9.54305e+57
          1698.59900	         8.92842e+57
          1699.40530	         6.90668e+57
          1700.21160	         6.73696e+57
          1701.01790	         7.63418e+57
          1701.82420	         7.29709e+57
          1702.63050	         7.27279e+57
          1703.43680	         8.15393e+57
          1704.24310	         9.00614e+57
          1705.04940	         8.16309e+57
          1705.85570	         7.43972e+57
          1706.66200	         8.43850e+57
          1707.46830	         8.65408e+57
          1708.27460	         6.92058e+57
          1709.08090	         6.17440e+57
          1709.88720	         5.51674e+57
          1710.69350	         6.72114e+57
          1711.49980	         7.43137e+57
          1712.30610	         7.64993e+57
          1713.11240	         8.92827e+57
          1713.91870	         7.54987e+57
          1714.72500	         7.53600e+57
          1715.53130	         7.82803e+57
          1716.33760	         6.84263e+57
          1717.14390	         6.94154e+57
          1717.95020	         7.71618e+57
          1718.75650	         8.17325e+57
          1719.56280	         7.80926e+57
          1720.36910	         7.33663e+57
          1721.17540	         7.80173e+57
          1721.98170	         7.01278e+57
          1722.78800	         6.82290e+57
          1723.59430	         6.60280e+57
          1724.40060	         8.42310e+57
          1725.20690	         8.86921e+57
          1726.01320	         8.48320e+57
          1726.81950	         8.45348e+57
          1727.62580	         7.55007e+57
          1728.43210	         6.69251e+57
          1729.23840	         7.44789e+57
          1730.04470	         7.87842e+57
          1730.85100	         8.51964e+57
          1731.65730	         7.60735e+57
          1732.46360	         7.22276e+57
          1733.26990	         6.60370e+57
          1734.07620	         6.94225e+57
          1734.88250	         8.74310e+57
          1735.68880	         8.02255e+57
          1736.49510	         8.40725e+57
          1737.30140	         9.10538e+57
          1738.10770	         7.37100e+57
          1738.91400	         7.17802e+57
          1739.72030	         7.16065e+57
          1740.52660	         6.42388e+57
          1741.33290	         4.78384e+57
          1742.13920	         5.56923e+57
          1742.94550	         7.81517e+57
          1743.75180	         8.06082e+57
          1744.55810	         7.02199e+57
          1745.36440	         7.04444e+57
          1746.17070	         7.35212e+57
          1746.97700	         5.70114e+57
          1747.78330	         5.46371e+57
          1748.58960	         6.47111e+57
          1749.39590	         6.27792e+57
          1750.20220	         5.25416e+57
          1751.00850	         6.09230e+57
          1751.81480	         6.83253e+57
          1752.62110	         6.70739e+57
          1753.42740	         8.10147e+57
          1754.23370	         7.18986e+57
          1755.04000	         6.97130e+57
          1755.84630	         8.38072e+57
          1756.65260	         8.92766e+57
          1757.45890	         8.20022e+57
          1758.26520	         6.42200e+57
          1759.07150	         8.74255e+57
          1759.87780	         7.85809e+57
          1760.68410	         7.19215e+57
          1761.49040	         7.16304e+57
          1762.29670	         6.22837e+57
          1763.10300	         6.52765e+57
          1763.90930	         8.85387e+57
          1764.71560	         8.82347e+57
          1765.52190	         8.14649e+57
          1766.32820	         8.08656e+57
          1767.13450	         8.29436e+57
          1767.94080	         6.55643e+57
          1768.74710	         6.35428e+57
          1769.55340	         7.47640e+57
          1770.35970	         6.13765e+57
          1771.16600	         6.14168e+57
          1771.97230	         7.30350e+57
          1772.77860	         8.60226e+57
          1773.58490	         7.52731e+57
          1774.39120	         6.25800e+57
          1775.19750	         6.31385e+57
          1776.00380	         5.56981e+57
          1776.81010	         6.08042e+57
          1777.61640	         7.01059e+57
          1778.42270	         6.91107e+57
          1779.22900	         6.54641e+57
          1780.03530	         5.82396e+57
          1780.84160	         6.44385e+57
          1781.64790	         7.50219e+57
          1782.45420	         6.66149e+57
          1783.26050	         6.92652e+57
          1784.06680	         7.24417e+57
          1784.87310	         7.33106e+57
          1785.67940	         9.05237e+57
          1786.48570	         8.07651e+57
          1787.29200	         6.51290e+57
          1788.09830	         6.34586e+57
          1788.90460	         5.80683e+57
          1789.71090	         5.43385e+57
          1790.51720	         5.26130e+57
          1791.32350	         6.65546e+57
          1792.12980	         9.44962e+57
          1792.93610	         8.45337e+57
          1793.74240	         7.20379e+57
          1794.54870	         8.11083e+57
          1795.35500	         8.87438e+57
          1796.16130	         8.47297e+57
          1796.96760	         7.45257e+57
          1797.77390	         7.07164e+57
          1798.58020	         6.82547e+57
          1799.38650	         5.94111e+57
          1800.19280	         6.55893e+57
          1800.99910	         8.08053e+57
          1801.80540	         8.08218e+57
          1802.61170	         7.78462e+57
          1803.41800	         7.89404e+57
          1804.22430	         6.85065e+57
          1805.03060	         6.50824e+57
          1805.83690	         8.09892e+57
          1806.64320	         8.83585e+57
          1807.44950	         7.22862e+57
          1808.25580	         7.34482e+57
          1809.06210	         8.57712e+57
          1809.86840	         7.94342e+57
          1810.67470	         7.28414e+57
          1811.48100	         8.05352e+57
          1812.28730	         7.66658e+57
          1813.09360	         6.76513e+57
          1813.89990	         6.91219e+57
          1814.70620	         7.05013e+57
          1815.51250	         7.67581e+57
          1816.31880	         7.90705e+57
          1817.12510	         8.04954e+57
          1817.93140	         6.74878e+57
          1818.73770	         5.95823e+57
          1819.54400	         7.61206e+57
          1820.35030	         8.03228e+57
          1821.15660	         6.45570e+57
          1821.96290	         6.48000e+57
          1822.76920	         7.01190e+57
          1823.57550	         7.49806e+57
          1824.38180	         7.19580e+57
          1825.18810	         7.19056e+57
          1825.99440	         8.40605e+57
          1826.80070	         7.65827e+57
          1827.60700	         6.49882e+57
          1828.41330	         6.13893e+57
          1829.21960	         5.87910e+57
          1830.02590	         7.27860e+57
          1830.83220	         8.08006e+57
          1831.63850	         7.59328e+57
          1832.44480	         7.92275e+57
          1833.25110	         8.73230e+57
          1834.05740	         8.34877e+57
          1834.86370	         6.93105e+57
          1835.67000	         6.10432e+57
          1836.47630	         6.83122e+57
          1837.28260	         8.64957e+57
          1838.08890	         8.79941e+57
          1838.89520	         8.10729e+57
          1839.70150	         8.19997e+57
          1840.50780	         7.73610e+57
          1841.31410	         6.97865e+57
          1842.12040	         6.48296e+57
          1842.92670	         7.58360e+57
          1843.73300	         6.25730e+57
          1844.53930	         6.24968e+57
          1845.34560	         6.50561e+57
          1846.15190	         7.40275e+57
          1846.95820	         7.34955e+57
          1847.76450	         6.91837e+57
          1848.57080	         5.39490e+57
          1849.37710	         6.82536e+57
          1850.18340	         7.78564e+57
          1850.98970	         8.64178e+57
          1851.79600	         8.15903e+57
          1852.60230	         7.63199e+57
          1853.40860	         7.27897e+57
          1854.21490	         6.83869e+57
          1855.02120	         6.63859e+57
          1855.82750	         5.09893e+57
          1856.63380	         5.33394e+57
          1857.44010	         6.71533e+57
          1858.24640	         7.56377e+57
          1859.05270	         7.53293e+57
          1859.85900	         6.12576e+57
          1860.66530	         6.29507e+57
          1861.47160	         6.94608e+57
          1862.27790	         7.35454e+57
          1863.08420	         7.46241e+57
          1863.89050	         7.60453e+57
          1864.69680	         6.86870e+57
          1865.50310	         6.69713e+57
          1866.30940	         5.49966e+57
          1867.11570	         5.56991e+57
          1867.92200	         7.25469e+57
          1868.72830	         7.58267e+57
          1869.53460	         6.84687e+57
          1870.34090	         7.50598e+57
          1871.14720	         8.51763e+57
          1871.95350	         7.33752e+57
          1872.75980	         8.00727e+57
          1873.56610	         7.05152e+57
          1874.37240	         6.08482e+57
          1875.17870	         6.59330e+57
          1875.98500	         7.85515e+57
          1876.79130	         7.98047e+57
          1877.59760	         6.71874e+57
          1878.40390	         5.70843e+57
          1879.21020	         6.22038e+57
          1880.01650	         6.43979e+57
          1880.82280	         7.88317e+57
          1881.62910	         8.94488e+57
          1882.43540	         9.14337e+57
          1883.24170	         8.05169e+57
          1884.04800	         7.12259e+57
          1884.85430	         7.24161e+57
          1885.66060	         7.89107e+57
          1886.46690	         8.21741e+57
          1887.27320	         7.88777e+57
          1888.07950	         6.33596e+57
          1888.88580	         6.51137e+57
          1889.69210	         9.15243e+57
          1890.49840	         8.21482e+57
          1891.30470	         6.41986e+57
          1892.11100	         8.05128e+57
          1892.91730	         8.68110e+57
          1893.72360	         8.21982e+57
          1894.52990	         6.40147e+57
          1895.33620	         6.94795e+57
          1896.14250	         6.84094e+57
          1896.94880	         5.96700e+57
          1897.75510	         4.23391e+57
          1898.56140	         6.41448e+57
          1899.36770	         8.66375e+57
          1900.17400	         6.96630e+57
          1900.98030	         6.75164e+57
          1901.78660	         7.26944e+57
          1902.59290	         7.30417e+57
          1903.39920	         9.05813e+57
          1904.20550	         9.45679e+57
          1905.01180	         8.51358e+57
          1905.81810	         1.01972e+58
          1906.62440	         1.20497e+58
          1907.43070	         1.43599e+58
          1908.23700	         1.53396e+58
          1909.04330	         1.28256e+58
          1909.84960	         1.13879e+58
          1910.65590	         1.04636e+58
          1911.46220	         1.00217e+58
          1912.26850	         8.79298e+57
          1913.07480	         6.25431e+57
          1913.88110	         5.90461e+57
          1914.68740	         6.17364e+57
          1915.49370	         5.57747e+57
          1916.30000	         6.20773e+57
          1917.10630	         6.87957e+57
          1917.91260	         6.35548e+57
          1918.71890	         6.75286e+57
          1919.52520	         6.80718e+57
          1920.33150	         5.45221e+57
          1921.13780	         6.49599e+57
          1921.94410	         8.37403e+57
          1922.75040	         8.54625e+57
          1923.55670	         7.57375e+57
          1924.36300	         7.71441e+57
          1925.16930	         6.05401e+57
          1925.97560	         5.09390e+57
          1926.78190	         4.72653e+57
          1927.58820	         5.77531e+57
          1928.39450	         7.30501e+57
          1929.20080	         6.07656e+57
          1930.00710	         7.26790e+57
          1930.81340	         7.42044e+57
          1931.61970	         5.48125e+57
          1932.42600	         6.85920e+57
          1933.23230	         8.37913e+57
          1934.03860	         7.24522e+57
          1934.84490	         6.63629e+57
          1935.65120	         6.53432e+57
          1936.45750	         8.04640e+57
          1937.26380	         6.50244e+57
          1938.07010	         7.64997e+57
          1938.87640	         7.07607e+57
          1939.68270	         5.92242e+57
          1940.48900	         6.70262e+57
          1941.29530	         7.97607e+57
          1942.10160	         7.64070e+57
          1942.90790	         6.70304e+57
          1943.71420	         6.39255e+57
          1944.52050	         6.10248e+57
          1945.32680	         5.49316e+57
          1946.13310	         6.56473e+57
          1946.93940	         8.20645e+57
          1947.74570	         7.74359e+57
          1948.55200	         7.01533e+57
          1949.35830	         5.92744e+57
          1950.16460	         5.52220e+57
          1950.97090	         6.19272e+57
          1951.77720	         7.01223e+57
          1952.58350	         7.47411e+57
          1953.38980	         6.42608e+57
          1954.19610	         4.04707e+57
          1955.00240	         5.70467e+57
          1955.80870	         6.83618e+57
          1956.61500	         6.51973e+57
          1957.42130	         7.06537e+57
          1958.22760	         7.31292e+57
          1959.03390	         7.94465e+57
          1959.84020	         8.29445e+57
          1960.64650	         8.47400e+57
          1961.45280	         7.70330e+57
          1962.25910	         7.03142e+57
          1963.06540	         5.92348e+57
          1963.87170	         6.36573e+57
          1964.67800	         7.82407e+57
          1965.48430	         7.41385e+57
          1966.29060	         6.65861e+57
          1967.09690	         8.13878e+57
          1967.90320	         5.44241e+57
          1968.70950	         6.00448e+57
          1969.51580	         5.52115e+57
          1970.32210	         7.43185e+57
          1971.12840	         7.82979e+57
          1971.93470	         5.22245e+57
          1972.74100	         5.21857e+57
          1973.54730	         7.25383e+57
          1974.35360	         7.30300e+57
          1975.15990	         6.98953e+57
          1975.96620	         7.64234e+57
          1976.77250	         7.88357e+57
          1977.57880	         7.46643e+57
          1978.38510	         6.87123e+57
          1979.19140	         7.66078e+57
          1979.99770	         7.33165e+57
          1980.80400	         7.23829e+57
          1981.61030	         6.19097e+57
          1982.41660	         5.80091e+57
          1983.22290	         4.89041e+57
          1984.02920	         4.94148e+57
          1984.83550	         5.62594e+57
          1985.64180	         6.10498e+57
          1986.44810	         6.22359e+57
          1987.25440	         6.00606e+57
          1988.06070	         5.37837e+57
          1988.86700	         6.36832e+57
          1989.67330	         7.15817e+57
          1990.47960	         6.15235e+57
          1991.28590	         5.68812e+57
          1992.09220	         6.76021e+57
          1992.89850	         6.18014e+57
          1993.70480	         4.90528e+57
          1994.51110	         5.39703e+57
          1995.31740	         4.92741e+57
          1996.12370	         5.27086e+57
          1996.93000	         6.08950e+57
          1997.73630	         7.68812e+57
          1998.54260	         8.41979e+57
          1999.34890	         8.01294e+57
          2000.15520	         6.25329e+57
          2000.96150	         6.80133e+57
          2001.76780	         5.80309e+57
          2002.57410	         5.51816e+57
          2003.38040	         6.28139e+57
          2004.18670	         6.04234e+57
          2004.99300	         5.98735e+57
          2005.79930	         6.97784e+57
          2006.60560	         7.20817e+57
          2007.41190	         6.46421e+57
          2008.21820	         6.70116e+57
          2009.02450	         7.25499e+57
          2009.83080	         6.57892e+57
          2010.63710	         6.96720e+57
          2011.44340	         6.87655e+57
          2012.24970	         7.00412e+57
          2013.05600	         6.67700e+57
          2013.86230	         5.64939e+57
          2014.66860	         5.65899e+57
          2015.47490	         6.75839e+57
          2016.28120	         7.04231e+57
          2017.08750	         5.78289e+57
          2017.89380	         6.16549e+57
          2018.70010	         6.31586e+57
          2019.50640	         5.17120e+57
          2020.31270	         6.16734e+57
          2021.11900	         6.99788e+57
          2021.92530	         7.02714e+57
          2022.73160	         6.77280e+57
          2023.53790	         5.64741e+57
          2024.34420	         6.19975e+57
          2025.15050	         6.14096e+57
          2025.95680	         6.73720e+57
          2026.76310	         7.71220e+57
          2027.56940	         6.48377e+57
          2028.37570	         7.32598e+57
          2029.18200	         6.92065e+57
          2029.98830	         6.18090e+57
          2030.79460	         6.51049e+57
          2031.60090	         6.89497e+57
          2032.40720	         6.24856e+57
          2033.21350	         5.85316e+57
          2034.01980	         5.58855e+57
          2034.82610	         4.48071e+57
          2035.63240	         5.29182e+57
          2036.43870	         6.26335e+57
          2037.24500	         6.96884e+57
          2038.05130	         6.70128e+57
          2038.85760	         5.27916e+57
          2039.66390	         5.87559e+57
          2040.47020	         6.27178e+57
          2041.27650	         5.81808e+57
          2042.08280	         4.40621e+57
          2042.88910	         4.18149e+57
          2043.69540	         3.77338e+57
          2044.50170	         5.31922e+57
          2045.30800	         6.08612e+57
          2046.11430	         3.05109e+57
          2046.92060	         5.26337e+57
          2047.72690	         6.39906e+57
          2048.53320	         5.83934e+57
          2049.33950	         5.43137e+57
          2050.14580	         7.10500e+57
          2050.95210	         7.26161e+57
          2051.75840	         7.44648e+57
          2052.56470	         4.51163e+57
          2053.37100	         5.04216e+57
          2054.17730	         5.41692e+57
          2054.98360	         6.37646e+57
          2055.78990	         3.82304e+57
          2056.59620	         2.25626e+57
          2057.40250	         5.31007e+57
          2058.20880	         7.12085e+57
          2059.01510	         7.90985e+57
          2059.82140	         6.46640e+57
          2060.62770	         1.09856e+58
          2061.43400	         1.80849e+58
          2062.24030	         1.52062e+58
          2063.04660	         4.98612e+57
          2063.85290	         2.43653e+57
          2064.65920	        -2.55580e+57
          2065.46550	        -8.15484e+57
          2066.27180	        -8.00589e+57
          2067.07810	         3.62740e+57
          2067.88440	         5.65572e+57
          2068.69070	         7.08418e+57
          2069.49700	         5.14109e+57
          2070.30330	         4.21254e+57
          2071.10960	         7.30320e+57
          2071.91590	         6.51149e+57
          2072.72220	         4.30263e+57
          2073.52850	         5.46180e+57
          2074.33480	         6.40150e+57
          2075.14110	         6.58370e+57
          2075.94740	         6.08255e+57
          2076.75370	         4.99037e+57
          2077.56000	         5.82467e+57
          2078.36630	         5.39013e+57
          2079.17260	         5.30760e+57
          2079.97890	         5.78845e+57
          2080.78520	         5.26427e+57
          2081.59150	         5.36063e+57
          2082.39780	         4.61768e+57
          2083.20410	         3.15501e+57
          2084.01040	         3.11860e+57
          2084.81670	         4.83387e+57
          2085.62300	         3.23641e+57
          2086.42930	         2.03718e+57
          2087.23560	         4.06224e+57
          2088.04190	         4.23045e+57
          2088.84820	         2.35557e+57
          2089.65450	         1.56567e+57
          2090.46080	         2.55733e+57
          2091.26710	         2.87300e+57
          2092.07340	         3.84507e+57
          2092.87970	         2.66156e+57
          2093.68600	        -2.70654e+56
          2094.49230	         3.70768e+57
          2095.29860	         6.60114e+57
          2096.10490	         4.42952e+57
          2096.91120	         2.34968e+57
          2097.71750	         2.18032e+57
          2098.52380	         5.98441e+56
          2099.33010	         2.18025e+56
          2100.13640	         9.76624e+56
          2100.94270	         1.26687e+57
          2101.74900	         8.91361e+56
          2102.55530	         2.19900e+57
          2103.36160	         3.54171e+57
          2104.16790	         3.61614e+57
          2104.97420	         1.19681e+57
          2105.78050	         4.47474e+56
          2106.58680	        -5.51774e+55
          2107.39310	         7.05264e+56
          2108.19940	         1.58327e+57
          2109.00570	        -2.61268e+57
          2109.81200	        -1.83057e+57
          2110.61830	         3.23008e+57
          2111.42460	         2.42322e+57
          2112.23090	         9.38846e+56
          2113.03720	        -5.55573e+56
          2113.84350	        -4.61214e+55
          2114.64980	         1.95385e+57
          2115.45610	         3.03804e+57
          2116.26240	        -3.75257e+57
          2117.06870	        -3.71425e+57
          2117.87500	        -6.64170e+57
          2118.68130	        -1.51820e+57
          2119.48760	        -1.46506e+56
          2120.29390	         1.10730e+57
          2121.10020	        -5.12783e+57
          2121.90650	        -6.57423e+57
          2122.71280	         1.36270e+57
          2123.51910	         4.18055e+57
          2124.32540	         2.33510e+57
          2125.13170	        -1.73700e+57
          2125.93800	         6.25306e+57
          2126.74430	        -3.89589e+57
          2127.55060	        -4.82430e+57
          2128.35690	        -3.98886e+57
          2129.16320	        -1.28972e+56
          2129.96950	        -9.02847e+56
          2130.77580	        -2.21971e+57
          2131.58210	         6.91088e+56
          2132.38840	         2.35868e+56
          2133.19470	         3.94728e+57
          2134.00100	        -1.63964e+57
          2134.80730	        -1.37170e+58
          2135.61360	         1.95232e+57
          2136.41990	         1.19745e+58
          2137.22620	         5.58384e+57
          2138.03250	         2.13864e+57
          2138.83880	        -4.24710e+57
          2139.64510	         2.09720e+57
          2140.45140	        -4.55735e+57
          2141.25770	        -9.45294e+57
          2142.06400	         2.50291e+57
          2142.87030	         7.27873e+57
          2143.67660	         1.11896e+58
          2144.48290	         2.92058e+57
          2145.28920	         4.20611e+57
          2146.09550	        -3.84733e+57
          2146.90180	        -5.80640e+57
          2147.70810	        -6.40661e+57
          2148.51440	        -1.17410e+57
          2149.32070	        -1.63749e+58
          2150.12700	        -9.93364e+57
          2150.93330	        -4.07979e+57
          2151.73960	         1.10691e+57
          2152.54590	        -2.01328e+57
          2153.35220	        -1.30723e+58
          2154.15850	        -1.15915e+58
          2154.96480	         2.41262e+57
          2155.77110	        -1.45436e+57
          2156.57740	        -6.57703e+57
          2157.38370	         6.91007e+56
          2158.19000	        -1.36227e+58
          2158.99630	        -1.15426e+58
          2159.80260	        -1.16089e+58
          2160.60890	        -1.51334e+58
          2161.41520	        -2.11779e+57
          2162.22150	        -7.05277e+57
          2163.02780	         7.13023e+57
          2163.83410	         4.48010e+56
          2164.64040	        -4.05194e+57
          2165.44670	        -1.13593e+58
          2166.25300	        -5.17388e+56
          2167.05930	         2.88454e+57
          2167.86560	        -1.03274e+58
          2168.67190	        -3.35606e+57
          2169.47820	        -7.05609e+57
          2170.28450	        -1.58170e+58
          2171.09080	         2.76590e+57
          2171.89710	         4.00511e+57
          2172.70340	         1.93601e+57
          2173.50970	        -7.77357e+57
          2174.31600	        -3.92562e+57
          2175.12230	        -3.40717e+57
          2175.92860	        -6.67312e+57
          2176.73490	        -8.17613e+57
          2177.54120	        -9.14957e+57
          2178.34750	        -4.93107e+57
          2179.15380	                 nan
          2179.96010	                 nan
          2180.76640	                 nan
          2181.57270	                 nan
          2182.37900	                 nan
          2183.18530	                 nan
          2183.99160	                 nan
          2184.79790	                 nan
          2185.60420	                 nan
          2186.41050	                 nan
          2187.21680	                 nan
          2188.02310	                 nan
          2188.82940	                 nan
          2189.63570	                 nan
          2190.44200	                 nan
          2191.24830	                 nan
          2192.05460	                 nan
          2192.86090	                 nan
          2193.66720	                 nan
          2194.47350	                 nan
          2195.27980	                 nan
          2196.08610	                 nan
          2196.89240	                 nan
          2197.69870	                 nan
          2198.50500	                 nan
          2199.31130	                 nan
          2200.11760	                 nan
          2200.92390	                 nan
          2201.73020	                 nan
          2202.53650	                 nan
          2203.34280	                 nan
          2204.14910	                 nan
          2204.95540	                 nan
          2205.76170	                 nan
          2206.56800	                 nan
          2207.37430	                 nan
          2208.18060	                 nan
          2208.98690	                 nan
          2209.79320	                 nan
          2210.59950	                 nan
          2211.40580	                 nan
          2212.21210	                 nan
          2213.01840	                 nan
          2213.82470	                 nan
          2214.63100	                 nan
          2215.43730	         0.00000e+00
