#sample_354_stacked_spectrum_rest_UV-bands_median_H-alpha_noDC.txt
#median Lum: 1.67690e+42
#Rest-frame wavelength (A) | Luminosity (erg/s/A)
#
          1110.00000	         0.00000e+00
          1110.80630	        -1.46005e+59
          1111.61260	         1.89801e+59
          1112.41890	         1.82889e+59
          1113.22520	         1.25729e+59
          1114.03150	        -6.23365e+58
          1114.83780	         2.37146e+59
          1115.64410	         1.57309e+59
          1116.45040	         1.03593e+59
          1117.25670	        -1.51629e+59
          1118.06300	         1.97899e+59
          1118.86930	        -1.52637e+58
          1119.67560	         1.00169e+59
          1120.48190	        -2.06621e+58
          1121.28820	        -1.60436e+59
          1122.09450	        -5.40811e+58
          1122.90080	        -9.57407e+58
          1123.70710	         2.78660e+55
          1124.51340	         1.57754e+59
          1125.31970	         1.10849e+58
          1126.12600	         2.56989e+58
          1126.93230	        -2.23153e+58
          1127.73860	        -9.75355e+58
          1128.54490	        -1.78654e+58
          1129.35120	        -1.41451e+58
          1130.15750	        -4.80747e+58
          1130.96380	        -2.16752e+58
          1131.77010	         4.05110e+58
          1132.57640	         2.69158e+58
          1133.38270	         5.15094e+58
          1134.18900	         2.91851e+58
          1134.99530	         5.71550e+56
          1135.80160	         8.64926e+57
          1136.60790	         1.25005e+58
          1137.41420	         3.40403e+58
          1138.22050	         5.12424e+58
          1139.02680	         2.26473e+58
          1139.83310	         1.96655e+58
          1140.63940	         9.11161e+57
          1141.44570	        -2.39322e+58
          1142.25200	        -9.72914e+57
          1143.05830	         1.87570e+58
          1143.86460	         2.53865e+58
          1144.67090	         3.54370e+58
          1145.47720	         1.11127e+58
          1146.28350	         1.58373e+58
          1147.08980	         1.46422e+58
          1147.89610	         1.46299e+58
          1148.70240	         2.18464e+58
          1149.50870	         2.51169e+58
          1150.31500	         6.85085e+57
          1151.12130	         1.72674e+58
          1151.92760	        -4.73608e+56
          1152.73390	         4.11190e+57
          1153.54020	        -3.61091e+57
          1154.34650	         2.21446e+58
          1155.15280	         1.76347e+58
          1155.95910	         1.07572e+58
          1156.76540	         2.33162e+58
          1157.57170	        -2.48280e+57
          1158.37800	        -4.13346e+57
          1159.18430	         3.99779e+54
          1159.99060	         2.04235e+57
          1160.79690	         2.31828e+57
          1161.60320	         1.03664e+58
          1162.40950	         9.21371e+57
          1163.21580	         1.15591e+58
          1164.02210	         4.30557e+57
          1164.82840	         6.08987e+57
          1165.63470	         1.23665e+58
          1166.44100	         3.61136e+58
          1167.24730	         1.40868e+58
          1168.05360	         1.09820e+58
          1168.85990	         1.01481e+58
          1169.66620	         7.58427e+57
          1170.47250	         9.35258e+57
          1171.27880	         6.54123e+57
          1172.08510	         1.96704e+58
          1172.89140	         1.68660e+58
          1173.69770	         8.15448e+57
          1174.50400	         1.12882e+58
          1175.31030	         1.39692e+58
          1176.11660	         1.33337e+58
          1176.92290	         1.19153e+58
          1177.72920	         1.15049e+58
          1178.53550	         6.61401e+57
          1179.34180	        -1.24650e+57
          1180.14810	         4.39375e+57
          1180.95440	         1.00095e+58
          1181.76070	         3.98949e+57
          1182.56700	         4.31628e+57
          1183.37330	         3.88548e+57
          1184.17960	         1.13147e+58
          1184.98590	         1.20204e+58
          1185.79220	         7.96897e+57
          1186.59850	         1.12891e+58
          1187.40480	         1.24082e+58
          1188.21110	         1.13755e+58
          1189.01740	         9.80889e+57
          1189.82370	         1.06784e+58
          1190.63000	         1.02330e+58
          1191.43630	         1.15649e+58
          1192.24260	         1.04213e+58
          1193.04890	         1.22405e+58
          1193.85520	         1.45859e+58
          1194.66150	         3.79140e+57
          1195.46780	         1.09332e+58
          1196.27410	         1.51016e+58
          1197.08040	         1.19196e+58
          1197.88670	         1.55463e+58
          1198.69300	         1.56407e+58
          1199.49930	         1.58555e+58
          1200.30560	         1.19520e+58
          1201.11190	         1.16274e+58
          1201.91820	         1.09894e+58
          1202.72450	         5.92449e+57
          1203.53080	         1.15035e+58
          1204.33710	         7.22300e+57
          1205.14340	         5.15987e+57
          1205.94970	         5.24727e+57
          1206.75600	         5.95179e+57
          1207.56230	         7.91103e+57
          1208.36860	         7.24042e+57
          1209.17490	         5.53930e+57
          1209.98120	         7.78990e+57
          1210.78750	         3.45912e+57
          1211.59380	         9.12057e+57
          1212.40010	         1.55618e+58
          1213.20640	         2.03971e+58
          1214.01270	         1.95624e+58
          1214.81900	         2.25749e+58
          1215.62530	         4.20852e+58
          1216.43160	         9.02587e+58
          1217.23790	         1.47912e+59
          1218.04420	         1.12724e+59
          1218.85050	         8.70830e+58
          1219.65680	         5.70882e+58
          1220.46310	         3.48949e+58
          1221.26940	         2.59561e+58
          1222.07570	         1.45023e+58
          1222.88200	         1.11905e+58
          1223.68830	         1.02727e+58
          1224.49460	         6.34422e+57
          1225.30090	         4.35166e+57
          1226.10720	         3.41221e+57
          1226.91350	         6.59488e+57
          1227.71980	         1.15874e+58
          1228.52610	         1.26367e+58
          1229.33240	         9.18590e+57
          1230.13870	         9.15335e+57
          1230.94500	         8.11381e+57
          1231.75130	         5.23928e+57
          1232.55760	         9.36042e+57
          1233.36390	         1.03823e+58
          1234.17020	         8.43836e+57
          1234.97650	         7.96567e+57
          1235.78280	         8.34326e+57
          1236.58910	         7.83673e+57
          1237.39540	         9.84969e+57
          1238.20170	         8.88425e+57
          1239.00800	         1.12209e+58
          1239.81430	         1.41594e+58
          1240.62060	         1.02146e+58
          1241.42690	         1.02211e+58
          1242.23320	         1.12155e+58
          1243.03950	         8.60845e+57
          1243.84580	         9.38514e+57
          1244.65210	         1.09632e+58
          1245.45840	         1.06678e+58
          1246.26470	         1.01891e+58
          1247.07100	         1.05305e+58
          1247.87730	         6.31439e+57
          1248.68360	         4.96867e+57
          1249.48990	         9.33428e+57
          1250.29620	         9.34264e+57
          1251.10250	         5.71685e+57
          1251.90880	         3.77626e+57
          1252.71510	         5.65686e+57
          1253.52140	         7.16390e+57
          1254.32770	         8.35660e+57
          1255.13400	         1.37189e+58
          1255.94030	         1.23189e+58
          1256.74660	         7.90688e+57
          1257.55290	         1.07920e+58
          1258.35920	         1.17016e+58
          1259.16550	         6.98088e+57
          1259.97180	         6.35006e+57
          1260.77810	         8.39543e+57
          1261.58440	         9.92090e+57
          1262.39070	         8.35133e+57
          1263.19700	         7.32533e+57
          1264.00330	         9.03523e+57
          1264.80960	         1.07492e+58
          1265.61590	         1.23332e+58
          1266.42220	         1.33638e+58
          1267.22850	         1.16590e+58
          1268.03480	         1.43448e+58
          1268.84110	         1.55436e+58
          1269.64740	         1.22945e+58
          1270.45370	         1.04535e+58
          1271.26000	         1.08603e+58
          1272.06630	         1.15745e+58
          1272.87260	         1.26364e+58
          1273.67890	         1.37943e+58
          1274.48520	         1.24424e+58
          1275.29150	         1.15233e+58
          1276.09780	         1.13208e+58
          1276.90410	         1.31179e+58
          1277.71040	         1.36807e+58
          1278.51670	         1.34414e+58
          1279.32300	         1.24902e+58
          1280.12930	         1.18992e+58
          1280.93560	         1.07344e+58
          1281.74190	         8.95010e+57
          1282.54820	         1.06796e+58
          1283.35450	         1.04632e+58
          1284.16080	         1.03863e+58
          1284.96710	         1.28004e+58
          1285.77340	         1.25666e+58
          1286.57970	         1.17671e+58
          1287.38600	         1.53503e+58
          1288.19230	         1.98536e+58
          1288.99860	         1.68610e+58
          1289.80490	         1.25428e+58
          1290.61120	         1.49551e+58
          1291.41750	         1.43077e+58
          1292.22380	         1.14661e+58
          1293.03010	         9.11551e+57
          1293.83640	         1.03125e+58
          1294.64270	         8.96066e+57
          1295.44900	         5.05989e+57
          1296.25530	         6.68633e+57
          1297.06160	         9.33885e+57
          1297.86790	         9.52291e+57
          1298.67420	         7.84400e+57
          1299.48050	         1.08564e+58
          1300.28680	         1.23058e+58
          1301.09310	         9.96546e+57
          1301.89940	         5.32296e+57
          1302.70570	         5.41894e+57
          1303.51200	         7.55719e+57
          1304.31830	         9.29929e+57
          1305.12460	         1.00540e+58
          1305.93090	         1.08450e+58
          1306.73720	         1.14317e+58
          1307.54350	         1.32957e+58
          1308.34980	         1.38024e+58
          1309.15610	         1.61559e+58
          1309.96240	         1.67858e+58
          1310.76870	         1.26207e+58
          1311.57500	         1.09647e+58
          1312.38130	         1.26650e+58
          1313.18760	         1.45696e+58
          1313.99390	         1.54127e+58
          1314.80020	         1.50435e+58
          1315.60650	         1.39430e+58
          1316.41280	         1.23229e+58
          1317.21910	         1.04414e+58
          1318.02540	         1.14069e+58
          1318.83170	         1.28809e+58
          1319.63800	         1.26000e+58
          1320.44430	         1.25378e+58
          1321.25060	         1.12122e+58
          1322.05690	         1.09081e+58
          1322.86320	         1.00712e+58
          1323.66950	         9.17333e+57
          1324.47580	         8.21712e+57
          1325.28210	         9.33928e+57
          1326.08840	         8.97211e+57
          1326.89470	         1.00627e+58
          1327.70100	         1.06992e+58
          1328.50730	         9.39572e+57
          1329.31360	         1.11227e+58
          1330.11990	         1.10862e+58
          1330.92620	         9.45136e+57
          1331.73250	         1.03679e+58
          1332.53880	         1.02061e+58
          1333.34510	         9.18856e+57
          1334.15140	         8.48993e+57
          1334.95770	         8.09394e+57
          1335.76400	         8.99613e+57
          1336.57030	         9.88054e+57
          1337.37660	         1.11483e+58
          1338.18290	         1.08390e+58
          1338.98920	         1.20838e+58
          1339.79550	         1.08917e+58
          1340.60180	         1.12497e+58
          1341.40810	         1.37743e+58
          1342.21440	         1.09264e+58
          1343.02070	         1.09382e+58
          1343.82700	         1.39684e+58
          1344.63330	         1.35934e+58
          1345.43960	         1.22789e+58
          1346.24590	         1.03322e+58
          1347.05220	         1.10024e+58
          1347.85850	         9.92464e+57
          1348.66480	         1.11675e+58
          1349.47110	         1.24243e+58
          1350.27740	         1.20610e+58
          1351.08370	         1.23277e+58
          1351.89000	         1.27782e+58
          1352.69630	         1.27552e+58
          1353.50260	         1.14575e+58
          1354.30890	         1.18921e+58
          1355.11520	         1.23219e+58
          1355.92150	         1.06508e+58
          1356.72780	         9.65133e+57
          1357.53410	         9.60383e+57
          1358.34040	         9.48462e+57
          1359.14670	         1.03233e+58
          1359.95300	         1.25577e+58
          1360.75930	         1.14198e+58
          1361.56560	         1.04780e+58
          1362.37190	         1.12661e+58
          1363.17820	         9.78898e+57
          1363.98450	         9.67705e+57
          1364.79080	         1.22347e+58
          1365.59710	         1.37110e+58
          1366.40340	         1.26052e+58
          1367.20970	         1.01296e+58
          1368.01600	         1.09885e+58
          1368.82230	         1.04871e+58
          1369.62860	         1.00549e+58
          1370.43490	         9.60857e+57
          1371.24120	         9.47164e+57
          1372.04750	         9.24888e+57
          1372.85380	         1.19322e+58
          1373.66010	         1.12389e+58
          1374.46640	         1.05897e+58
          1375.27270	         1.06089e+58
          1376.07900	         9.52557e+57
          1376.88530	         8.46996e+57
          1377.69160	         8.77630e+57
          1378.49790	         8.33379e+57
          1379.30420	         8.34047e+57
          1380.11050	         9.66414e+57
          1380.91680	         8.24541e+57
          1381.72310	         7.21157e+57
          1382.52940	         8.04948e+57
          1383.33570	         8.07350e+57
          1384.14200	         8.70169e+57
          1384.94830	         1.07391e+58
          1385.75460	         1.00988e+58
          1386.56090	         8.94350e+57
          1387.36720	         9.59623e+57
          1388.17350	         1.19255e+58
          1388.97980	         1.16613e+58
          1389.78610	         1.07299e+58
          1390.59240	         8.53713e+57
          1391.39870	         9.08881e+57
          1392.20500	         9.78977e+57
          1393.01130	         6.77905e+57
          1393.81760	         6.42235e+57
          1394.62390	         8.64465e+57
          1395.43020	         7.90048e+57
          1396.23650	         7.18292e+57
          1397.04280	         8.88383e+57
          1397.84910	         9.99849e+57
          1398.65540	         9.32548e+57
          1399.46170	         9.19250e+57
          1400.26800	         8.38862e+57
          1401.07430	         6.85667e+57
          1401.88060	         7.41551e+57
          1402.68690	         1.02279e+58
          1403.49320	         9.87289e+57
          1404.29950	         8.49028e+57
          1405.10580	         9.44528e+57
          1405.91210	         1.14582e+58
          1406.71840	         1.11081e+58
          1407.52470	         1.13096e+58
          1408.33100	         1.05287e+58
          1409.13730	         1.13078e+58
          1409.94360	         1.14871e+58
          1410.74990	         1.18593e+58
          1411.55620	         1.00174e+58
          1412.36250	         9.33954e+57
          1413.16880	         8.88832e+57
          1413.97510	         8.12150e+57
          1414.78140	         8.20844e+57
          1415.58770	         1.09404e+58
          1416.39400	         1.07013e+58
          1417.20030	         1.01342e+58
          1418.00660	         1.00857e+58
          1418.81290	         1.00869e+58
          1419.61920	         1.00401e+58
          1420.42550	         1.18821e+58
          1421.23180	         1.30169e+58
          1422.03810	         1.27942e+58
          1422.84440	         1.05625e+58
          1423.65070	         1.09624e+58
          1424.45700	         1.06920e+58
          1425.26330	         8.82524e+57
          1426.06960	         9.27636e+57
          1426.87590	         1.00057e+58
          1427.68220	         1.00015e+58
          1428.48850	         1.08423e+58
          1429.29480	         1.10812e+58
          1430.10110	         9.79646e+57
          1430.90740	         7.84129e+57
          1431.71370	         7.63175e+57
          1432.52000	         7.74753e+57
          1433.32630	         7.56617e+57
          1434.13260	         7.31348e+57
          1434.93890	         8.35693e+57
          1435.74520	         8.87308e+57
          1436.55150	         9.50596e+57
          1437.35780	         9.90936e+57
          1438.16410	         9.91285e+57
          1438.97040	         8.89261e+57
          1439.77670	         8.93922e+57
          1440.58300	         1.00645e+58
          1441.38930	         9.60785e+57
          1442.19560	         9.41854e+57
          1443.00190	         1.06255e+58
          1443.80820	         1.14583e+58
          1444.61450	         1.04701e+58
          1445.42080	         8.52200e+57
          1446.22710	         1.14352e+58
          1447.03340	         1.07097e+58
          1447.83970	         9.68963e+57
          1448.64600	         1.06332e+58
          1449.45230	         1.02335e+58
          1450.25860	         1.09924e+58
          1451.06490	         9.82693e+57
          1451.87120	         8.05980e+57
          1452.67750	         7.56052e+57
          1453.48380	         8.68834e+57
          1454.29010	         7.90856e+57
          1455.09640	         7.81381e+57
          1455.90270	         9.05151e+57
          1456.70900	         8.78590e+57
          1457.51530	         9.14132e+57
          1458.32160	         1.04560e+58
          1459.12790	         1.01970e+58
          1459.93420	         9.71574e+57
          1460.74050	         8.24128e+57
          1461.54680	         8.56839e+57
          1462.35310	         8.67675e+57
          1463.15940	         9.30434e+57
          1463.96570	         1.07625e+58
          1464.77200	         1.20677e+58
          1465.57830	         1.07534e+58
          1466.38460	         1.01771e+58
          1467.19090	         8.92471e+57
          1467.99720	         8.80275e+57
          1468.80350	         9.20317e+57
          1469.60980	         9.74840e+57
          1470.41610	         1.07086e+58
          1471.22240	         7.89960e+57
          1472.02870	         9.69991e+57
          1472.83500	         1.09845e+58
          1473.64130	         9.13942e+57
          1474.44760	         8.66400e+57
          1475.25390	         9.40957e+57
          1476.06020	         9.32347e+57
          1476.86650	         8.25788e+57
          1477.67280	         7.64058e+57
          1478.47910	         6.69644e+57
          1479.28540	         7.29256e+57
          1480.09170	         8.30458e+57
          1480.89800	         8.62419e+57
          1481.70430	         8.54822e+57
          1482.51060	         8.52387e+57
          1483.31690	         7.59985e+57
          1484.12320	         6.56150e+57
          1484.92950	         7.80615e+57
          1485.73580	         8.85724e+57
          1486.54210	         8.46927e+57
          1487.34840	         8.20636e+57
          1488.15470	         7.67081e+57
          1488.96100	         8.44294e+57
          1489.76730	         9.33465e+57
          1490.57360	         8.79654e+57
          1491.37990	         7.62385e+57
          1492.18620	         8.03005e+57
          1492.99250	         8.38633e+57
          1493.79880	         7.94184e+57
          1494.60510	         8.77212e+57
          1495.41140	         7.89376e+57
          1496.21770	         8.97416e+57
          1497.02400	         1.01062e+58
          1497.83030	         8.01744e+57
          1498.63660	         7.02310e+57
          1499.44290	         7.16200e+57
          1500.24920	         7.59358e+57
          1501.05550	         7.90144e+57
          1501.86180	         8.31185e+57
          1502.66810	         9.33189e+57
          1503.47440	         8.81041e+57
          1504.28070	         8.24423e+57
          1505.08700	         9.34303e+57
          1505.89330	         9.61649e+57
          1506.69960	         8.79048e+57
          1507.50590	         9.07412e+57
          1508.31220	         8.32685e+57
          1509.11850	         7.85651e+57
          1509.92480	         8.52532e+57
          1510.73110	         8.05730e+57
          1511.53740	         7.05842e+57
          1512.34370	         6.73446e+57
          1513.15000	         7.65448e+57
          1513.95630	         9.30511e+57
          1514.76260	         9.27817e+57
          1515.56890	         8.35530e+57
          1516.37520	         8.64320e+57
          1517.18150	         8.33136e+57
          1517.98780	         7.76659e+57
          1518.79410	         7.67248e+57
          1519.60040	         8.32224e+57
          1520.40670	         9.55553e+57
          1521.21300	         9.52596e+57
          1522.01930	         8.41413e+57
          1522.82560	         8.80270e+57
          1523.63190	         9.83736e+57
          1524.43820	         8.80144e+57
          1525.24450	         6.12446e+57
          1526.05080	         6.37480e+57
          1526.85710	         6.13400e+57
          1527.66340	         6.01988e+57
          1528.46970	         7.29800e+57
          1529.27600	         7.33244e+57
          1530.08230	         7.10460e+57
          1530.88860	         8.00882e+57
          1531.69490	         8.91461e+57
          1532.50120	         9.48797e+57
          1533.30750	         9.61735e+57
          1534.11380	         9.75737e+57
          1534.92010	         9.56679e+57
          1535.72640	         9.75154e+57
          1536.53270	         9.66092e+57
          1537.33900	         8.17961e+57
          1538.14530	         8.53959e+57
          1538.95160	         9.29854e+57
          1539.75790	         8.25646e+57
          1540.56420	         7.66646e+57
          1541.37050	         8.08297e+57
          1542.17680	         7.25326e+57
          1542.98310	         7.00319e+57
          1543.78940	         7.35926e+57
          1544.59570	         7.68561e+57
          1545.40200	         8.79569e+57
          1546.20830	         1.04651e+58
          1547.01460	         1.09986e+58
          1547.82090	         1.10014e+58
          1548.62720	         1.15614e+58
          1549.43350	         1.18727e+58
          1550.23980	         1.05131e+58
          1551.04610	         1.14738e+58
          1551.85240	         1.23844e+58
          1552.65870	         1.14587e+58
          1553.46500	         9.58180e+57
          1554.27130	         1.02536e+58
          1555.07760	         9.91222e+57
          1555.88390	         8.98105e+57
          1556.69020	         9.00066e+57
          1557.49650	         8.95725e+57
          1558.30280	         8.92467e+57
          1559.10910	         8.13260e+57
          1559.91540	         8.59856e+57
          1560.72170	         8.04369e+57
          1561.52800	         7.83259e+57
          1562.33430	         9.20053e+57
          1563.14060	         8.53899e+57
          1563.94690	         8.20617e+57
          1564.75320	         8.34832e+57
          1565.55950	         7.58086e+57
          1566.36580	         8.09718e+57
          1567.17210	         9.27903e+57
          1567.97840	         9.10851e+57
          1568.78470	         8.45844e+57
          1569.59100	         8.97127e+57
          1570.39730	         7.89519e+57
          1571.20360	         6.43050e+57
          1572.00990	         7.26689e+57
          1572.81620	         8.19484e+57
          1573.62250	         9.44487e+57
          1574.42880	         9.37515e+57
          1575.23510	         8.28635e+57
          1576.04140	         8.69813e+57
          1576.84770	         8.86308e+57
          1577.65400	         8.94955e+57
          1578.46030	         9.98971e+57
          1579.26660	         1.01273e+58
          1580.07290	         9.36796e+57
          1580.87920	         7.55368e+57
          1581.68550	         7.18852e+57
          1582.49180	         8.39531e+57
          1583.29810	         7.47343e+57
          1584.10440	         8.21426e+57
          1584.91070	         8.62936e+57
          1585.71700	         8.99885e+57
          1586.52330	         9.01031e+57
          1587.32960	         8.51649e+57
          1588.13590	         8.48256e+57
          1588.94220	         8.22568e+57
          1589.74850	         9.17001e+57
          1590.55480	         9.45375e+57
          1591.36110	         7.76584e+57
          1592.16740	         7.69168e+57
          1592.97370	         8.17818e+57
          1593.78000	         8.46429e+57
          1594.58630	         9.16640e+57
          1595.39260	         9.20415e+57
          1596.19890	         9.25851e+57
          1597.00520	         8.89481e+57
          1597.81150	         7.86786e+57
          1598.61780	         7.44685e+57
          1599.42410	         6.64679e+57
          1600.23040	         6.74902e+57
          1601.03670	         7.80461e+57
          1601.84300	         8.45978e+57
          1602.64930	         9.46444e+57
          1603.45560	         8.77928e+57
          1604.26190	         8.74350e+57
          1605.06820	         8.09511e+57
          1605.87450	         6.78344e+57
          1606.68080	         6.78949e+57
          1607.48710	         6.03349e+57
          1608.29340	         5.92122e+57
          1609.09970	         7.49370e+57
          1609.90600	         7.58698e+57
          1610.71230	         6.10120e+57
          1611.51860	         7.53315e+57
          1612.32490	         6.98944e+57
          1613.13120	         6.91914e+57
          1613.93750	         7.55921e+57
          1614.74380	         7.47079e+57
          1615.55010	         8.66160e+57
          1616.35640	         9.29887e+57
          1617.16270	         9.86907e+57
          1617.96900	         9.65085e+57
          1618.77530	         7.62840e+57
          1619.58160	         8.73605e+57
          1620.38790	         8.46352e+57
          1621.19420	         8.73053e+57
          1622.00050	         8.17057e+57
          1622.80680	         8.71116e+57
          1623.61310	         9.42121e+57
          1624.41940	         9.30717e+57
          1625.22570	         8.56528e+57
          1626.03200	         8.54331e+57
          1626.83830	         8.28306e+57
          1627.64460	         7.33646e+57
          1628.45090	         7.31062e+57
          1629.25720	         1.00380e+58
          1630.06350	         1.03200e+58
          1630.86980	         6.78450e+57
          1631.67610	         6.91843e+57
          1632.48240	         8.94474e+57
          1633.28870	         9.87389e+57
          1634.09500	         1.00378e+58
          1634.90130	         1.18015e+58
          1635.70760	         1.03888e+58
          1636.51390	         8.57193e+57
          1637.32020	         7.47163e+57
          1638.12650	         9.57046e+57
          1638.93280	         9.39683e+57
          1639.73910	         9.84831e+57
          1640.54540	         1.04491e+58
          1641.35170	         8.19328e+57
          1642.15800	         8.18663e+57
          1642.96430	         9.28420e+57
          1643.77060	         8.63051e+57
          1644.57690	         7.18675e+57
          1645.38320	         7.76319e+57
          1646.18950	         7.44943e+57
          1646.99580	         8.61127e+57
          1647.80210	         8.22360e+57
          1648.60840	         7.22301e+57
          1649.41470	         7.42840e+57
          1650.22100	         7.01040e+57
          1651.02730	         7.49681e+57
          1651.83360	         7.58233e+57
          1652.63990	         8.06345e+57
          1653.44620	         9.33460e+57
          1654.25250	         7.53393e+57
          1655.05880	         6.65529e+57
          1655.86510	         7.53875e+57
          1656.67140	         7.70669e+57
          1657.47770	         7.17233e+57
          1658.28400	         8.53752e+57
          1659.09030	         9.33457e+57
          1659.89660	         9.89443e+57
          1660.70290	         9.70739e+57
          1661.50920	         8.90659e+57
          1662.31550	         7.48493e+57
          1663.12180	         8.57504e+57
          1663.92810	         1.01206e+58
          1664.73440	         1.12733e+58
          1665.54070	         1.21992e+58
          1666.34700	         1.20384e+58
          1667.15330	         1.08184e+58
          1667.95960	         8.66120e+57
          1668.76590	         6.96455e+57
          1669.57220	         6.54132e+57
          1670.37850	         7.10422e+57
          1671.18480	         7.30613e+57
          1671.99110	         7.82195e+57
          1672.79740	         7.42241e+57
          1673.60370	         6.65487e+57
          1674.41000	         6.81450e+57
          1675.21630	         6.49541e+57
          1676.02260	         6.68027e+57
          1676.82890	         7.23698e+57
          1677.63520	         7.10491e+57
          1678.44150	         8.41076e+57
          1679.24780	         8.99516e+57
          1680.05410	         7.54912e+57
          1680.86040	         7.14097e+57
          1681.66670	         8.21384e+57
          1682.47300	         8.72341e+57
          1683.27930	         7.98375e+57
          1684.08560	         8.38551e+57
          1684.89190	         7.99572e+57
          1685.69820	         5.96651e+57
          1686.50450	         6.31368e+57
          1687.31080	         7.29949e+57
          1688.11710	         7.47235e+57
          1688.92340	         6.32399e+57
          1689.72970	         7.28200e+57
          1690.53600	         6.95239e+57
          1691.34230	         5.94013e+57
          1692.14860	         7.83795e+57
          1692.95490	         8.13254e+57
          1693.76120	         6.92111e+57
          1694.56750	         6.90507e+57
          1695.37380	         8.56039e+57
          1696.18010	         8.57905e+57
          1696.98640	         8.33651e+57
          1697.79270	         8.88686e+57
          1698.59900	         8.56564e+57
          1699.40530	         7.63021e+57
          1700.21160	         7.26793e+57
          1701.01790	         7.91894e+57
          1701.82420	         7.56349e+57
          1702.63050	         7.47669e+57
          1703.43680	         6.98007e+57
          1704.24310	         7.73679e+57
          1705.04940	         8.57187e+57
          1705.85570	         8.85777e+57
          1706.66200	         8.85359e+57
          1707.46830	         8.26062e+57
          1708.27460	         8.01894e+57
          1709.08090	         7.03649e+57
          1709.88720	         6.30699e+57
          1710.69350	         6.29970e+57
          1711.49980	         6.59092e+57
          1712.30610	         7.04704e+57
          1713.11240	         8.11044e+57
          1713.91870	         7.80478e+57
          1714.72500	         7.98142e+57
          1715.53130	         8.21387e+57
          1716.33760	         7.85805e+57
          1717.14390	         7.66842e+57
          1717.95020	         8.65851e+57
          1718.75650	         9.03399e+57
          1719.56280	         8.99478e+57
          1720.36910	         7.19434e+57
          1721.17540	         6.49030e+57
          1721.98170	         6.04676e+57
          1722.78800	         5.72051e+57
          1723.59430	         6.62230e+57
          1724.40060	         7.68787e+57
          1725.20690	         8.02419e+57
          1726.01320	         7.27980e+57
          1726.81950	         7.40069e+57
          1727.62580	         7.27971e+57
          1728.43210	         6.51041e+57
          1729.23840	         6.95819e+57
          1730.04470	         7.93406e+57
          1730.85100	         8.07602e+57
          1731.65730	         8.21292e+57
          1732.46360	         7.93499e+57
          1733.26990	         6.45407e+57
          1734.07620	         6.65958e+57
          1734.88250	         8.11389e+57
          1735.68880	         7.41166e+57
          1736.49510	         7.94461e+57
          1737.30140	         8.05490e+57
          1738.10770	         7.10439e+57
          1738.91400	         7.44825e+57
          1739.72030	         7.10976e+57
          1740.52660	         6.16522e+57
          1741.33290	         6.57672e+57
          1742.13920	         5.43903e+57
          1742.94550	         6.72792e+57
          1743.75180	         8.10115e+57
          1744.55810	         7.93171e+57
          1745.36440	         7.86475e+57
          1746.17070	         6.50617e+57
          1746.97700	         6.03954e+57
          1747.78330	         7.48650e+57
          1748.58960	         7.86264e+57
          1749.39590	         7.00012e+57
          1750.20220	         7.34189e+57
          1751.00850	         5.95902e+57
          1751.81480	         6.06798e+57
          1752.62110	         7.27770e+57
          1753.42740	         8.27748e+57
          1754.23370	         7.53885e+57
          1755.04000	         7.23681e+57
          1755.84630	         8.12076e+57
          1756.65260	         8.79183e+57
          1757.45890	         7.99997e+57
          1758.26520	         6.22722e+57
          1759.07150	         7.82270e+57
          1759.87780	         7.89563e+57
          1760.68410	         7.94467e+57
          1761.49040	         7.92543e+57
          1762.29670	         5.97051e+57
          1763.10300	         6.48042e+57
          1763.90930	         8.06628e+57
          1764.71560	         7.93556e+57
          1765.52190	         7.65628e+57
          1766.32820	         7.97980e+57
          1767.13450	         7.65682e+57
          1767.94080	         6.23189e+57
          1768.74710	         6.20711e+57
          1769.55340	         6.85004e+57
          1770.35970	         6.25999e+57
          1771.16600	         6.91334e+57
          1771.97230	         8.37505e+57
          1772.77860	         7.95490e+57
          1773.58490	         6.91956e+57
          1774.39120	         6.61638e+57
          1775.19750	         6.22767e+57
          1776.00380	         6.25395e+57
          1776.81010	         6.71321e+57
          1777.61640	         7.27356e+57
          1778.42270	         7.25000e+57
          1779.22900	         6.81244e+57
          1780.03530	         6.04181e+57
          1780.84160	         7.35446e+57
          1781.64790	         8.33746e+57
          1782.45420	         6.76842e+57
          1783.26050	         6.93104e+57
          1784.06680	         7.57171e+57
          1784.87310	         7.72905e+57
          1785.67940	         7.50402e+57
          1786.48570	         6.72277e+57
          1787.29200	         6.24003e+57
          1788.09830	         6.51309e+57
          1788.90460	         6.24074e+57
          1789.71090	         5.44697e+57
          1790.51720	         5.37193e+57
          1791.32350	         7.56835e+57
          1792.12980	         9.67747e+57
          1792.93610	         8.77803e+57
          1793.74240	         8.20453e+57
          1794.54870	         8.23522e+57
          1795.35500	         8.76050e+57
          1796.16130	         8.57910e+57
          1796.96760	         7.60455e+57
          1797.77390	         7.15050e+57
          1798.58020	         6.67485e+57
          1799.38650	         6.36126e+57
          1800.19280	         7.00159e+57
          1800.99910	         7.09338e+57
          1801.80540	         7.03848e+57
          1802.61170	         7.73906e+57
          1803.41800	         7.45630e+57
          1804.22430	         6.82511e+57
          1805.03060	         6.09955e+57
          1805.83690	         7.24869e+57
          1806.64320	         8.26160e+57
          1807.44950	         7.98129e+57
          1808.25580	         7.26260e+57
          1809.06210	         8.97921e+57
          1809.86840	         8.06349e+57
          1810.67470	         7.66736e+57
          1811.48100	         8.32299e+57
          1812.28730	         8.97500e+57
          1813.09360	         7.54210e+57
          1813.89990	         7.72408e+57
          1814.70620	         7.84862e+57
          1815.51250	         7.83540e+57
          1816.31880	         8.13909e+57
          1817.12510	         7.34624e+57
          1817.93140	         6.07112e+57
          1818.73770	         7.42186e+57
          1819.54400	         9.37572e+57
          1820.35030	         8.79410e+57
          1821.15660	         6.28698e+57
          1821.96290	         6.82298e+57
          1822.76920	         8.09153e+57
          1823.57550	         8.02467e+57
          1824.38180	         8.03955e+57
          1825.18810	         8.48158e+57
          1825.99440	         9.01589e+57
          1826.80070	         8.02596e+57
          1827.60700	         6.27568e+57
          1828.41330	         5.68315e+57
          1829.21960	         6.23490e+57
          1830.02590	         6.98359e+57
          1830.83220	         7.15844e+57
          1831.63850	         6.56815e+57
          1832.44480	         7.01527e+57
          1833.25110	         8.59762e+57
          1834.05740	         8.43260e+57
          1834.86370	         7.52644e+57
          1835.67000	         5.63596e+57
          1836.47630	         7.16837e+57
          1837.28260	         9.71241e+57
          1838.08890	         8.49852e+57
          1838.89520	         7.39623e+57
          1839.70150	         8.23351e+57
          1840.50780	         7.91116e+57
          1841.31410	         7.38120e+57
          1842.12040	         6.14519e+57
          1842.92670	         7.19853e+57
          1843.73300	         7.07589e+57
          1844.53930	         6.80278e+57
          1845.34560	         6.52524e+57
          1846.15190	         6.75136e+57
          1846.95820	         7.92174e+57
          1847.76450	         8.16582e+57
          1848.57080	         6.84710e+57
          1849.37710	         7.02036e+57
          1850.18340	         8.41004e+57
          1850.98970	         7.72222e+57
          1851.79600	         7.05210e+57
          1852.60230	         6.97543e+57
          1853.40860	         6.54615e+57
          1854.21490	         5.68460e+57
          1855.02120	         5.97794e+57
          1855.82750	         5.13786e+57
          1856.63380	         6.34072e+57
          1857.44010	         7.09312e+57
          1858.24640	         6.95818e+57
          1859.05270	         7.14280e+57
          1859.85900	         5.11705e+57
          1860.66530	         6.19597e+57
          1861.47160	         7.45248e+57
          1862.27790	         7.35654e+57
          1863.08420	         7.85726e+57
          1863.89050	         8.50438e+57
          1864.69680	         7.60900e+57
          1865.50310	         6.89239e+57
          1866.30940	         6.25091e+57
          1867.11570	         5.79696e+57
          1867.92200	         6.69359e+57
          1868.72830	         7.83551e+57
          1869.53460	         7.47506e+57
          1870.34090	         6.84724e+57
          1871.14720	         7.22246e+57
          1871.95350	         7.60764e+57
          1872.75980	         7.67611e+57
          1873.56610	         6.13155e+57
          1874.37240	         4.90671e+57
          1875.17870	         5.05728e+57
          1875.98500	         6.94072e+57
          1876.79130	         8.14525e+57
          1877.59760	         6.94332e+57
          1878.40390	         5.32870e+57
          1879.21020	         5.98480e+57
          1880.01650	         6.59173e+57
          1880.82280	         7.67258e+57
          1881.62910	         8.68467e+57
          1882.43540	         1.01936e+58
          1883.24170	         9.28497e+57
          1884.04800	         6.95843e+57
          1884.85430	         7.43141e+57
          1885.66060	         8.41401e+57
          1886.46690	         7.77661e+57
          1887.27320	         6.59463e+57
          1888.07950	         5.80591e+57
          1888.88580	         6.92403e+57
          1889.69210	         8.20132e+57
          1890.49840	         8.79317e+57
          1891.30470	         8.02429e+57
          1892.11100	         8.52901e+57
          1892.91730	         8.34107e+57
          1893.72360	         7.47853e+57
          1894.52990	         7.47018e+57
          1895.33620	         7.87207e+57
          1896.14250	         7.41736e+57
          1896.94880	         7.63472e+57
          1897.75510	         5.45111e+57
          1898.56140	         5.86293e+57
          1899.36770	         7.30135e+57
          1900.17400	         6.20630e+57
          1900.98030	         5.53943e+57
          1901.78660	         6.91710e+57
          1902.59290	         6.65775e+57
          1903.39920	         7.74519e+57
          1904.20550	         8.99307e+57
          1905.01180	         8.80646e+57
          1905.81810	         9.28525e+57
          1906.62440	         1.17323e+58
          1907.43070	         1.45622e+58
          1908.23700	         1.56465e+58
          1909.04330	         1.35482e+58
          1909.84960	         1.13446e+58
          1910.65590	         1.04611e+58
          1911.46220	         9.08588e+57
          1912.26850	         7.57012e+57
          1913.07480	         6.33377e+57
          1913.88110	         6.68273e+57
          1914.68740	         6.23286e+57
          1915.49370	         6.11010e+57
          1916.30000	         6.23366e+57
          1917.10630	         7.18090e+57
          1917.91260	         6.61915e+57
          1918.71890	         5.27761e+57
          1919.52520	         5.38696e+57
          1920.33150	         5.41030e+57
          1921.13780	         6.92780e+57
          1921.94410	         8.33674e+57
          1922.75040	         7.95809e+57
          1923.55670	         7.87145e+57
          1924.36300	         7.35453e+57
          1925.16930	         5.86860e+57
          1925.97560	         6.58226e+57
          1926.78190	         5.36356e+57
          1927.58820	         6.19904e+57
          1928.39450	         5.76398e+57
          1929.20080	         3.96955e+57
          1930.00710	         5.73563e+57
          1930.81340	         6.57139e+57
          1931.61970	         6.46810e+57
          1932.42600	         7.08698e+57
          1933.23230	         8.36900e+57
          1934.03860	         7.87416e+57
          1934.84490	         5.86673e+57
          1935.65120	         8.07085e+57
          1936.45750	         8.49254e+57
          1937.26380	         7.55569e+57
          1938.07010	         7.19941e+57
          1938.87640	         7.97000e+57
          1939.68270	         7.68167e+57
          1940.48900	         8.29208e+57
          1941.29530	         8.46721e+57
          1942.10160	         8.66912e+57
          1942.90790	         7.10703e+57
          1943.71420	         6.83166e+57
          1944.52050	         6.90030e+57
          1945.32680	         6.17891e+57
          1946.13310	         6.96282e+57
          1946.93940	         8.00132e+57
          1947.74570	         7.13621e+57
          1948.55200	         6.41898e+57
          1949.35830	         6.71007e+57
          1950.16460	         6.54897e+57
          1950.97090	         6.66691e+57
          1951.77720	         6.59225e+57
          1952.58350	         7.53939e+57
          1953.38980	         7.36411e+57
          1954.19610	         5.02423e+57
          1955.00240	         5.52461e+57
          1955.80870	         6.23516e+57
          1956.61500	         5.73155e+57
          1957.42130	         5.96466e+57
          1958.22760	         6.23689e+57
          1959.03390	         6.96346e+57
          1959.84020	         6.17285e+57
          1960.64650	         7.49881e+57
          1961.45280	         7.49264e+57
          1962.25910	         6.44033e+57
          1963.06540	         6.55222e+57
          1963.87170	         7.30428e+57
          1964.67800	         6.63038e+57
          1965.48430	         6.85930e+57
          1966.29060	         6.41792e+57
          1967.09690	         9.02360e+57
          1967.90320	         7.97275e+57
          1968.70950	         6.22081e+57
          1969.51580	         7.58175e+57
          1970.32210	         7.25665e+57
          1971.12840	         6.40297e+57
          1971.93470	         5.23367e+57
          1972.74100	         6.53351e+57
          1973.54730	         8.24492e+57
          1974.35360	         7.19602e+57
          1975.15990	         7.69464e+57
          1975.96620	         7.56233e+57
          1976.77250	         7.66033e+57
          1977.57880	         7.56372e+57
          1978.38510	         6.71155e+57
          1979.19140	         5.99743e+57
          1979.99770	         7.32094e+57
          1980.80400	         7.47961e+57
          1981.61030	         6.68234e+57
          1982.41660	         6.03838e+57
          1983.22290	         6.05965e+57
          1984.02920	         6.29874e+57
          1984.83550	         5.37332e+57
          1985.64180	         5.86911e+57
          1986.44810	         6.77149e+57
          1987.25440	         5.95077e+57
          1988.06070	         5.18014e+57
          1988.86700	         5.68414e+57
          1989.67330	         7.00549e+57
          1990.47960	         6.70613e+57
          1991.28590	         5.71507e+57
          1992.09220	         6.81903e+57
          1992.89850	         6.35502e+57
          1993.70480	         5.62045e+57
          1994.51110	         4.94012e+57
          1995.31740	         4.36094e+57
          1996.12370	         5.15957e+57
          1996.93000	         5.74218e+57
          1997.73630	         7.05989e+57
          1998.54260	         6.97902e+57
          1999.34890	         6.37390e+57
          2000.15520	         6.47192e+57
          2000.96150	         7.22644e+57
          2001.76780	         6.69094e+57
          2002.57410	         5.42538e+57
          2003.38040	         6.82297e+57
          2004.18670	         7.24599e+57
          2004.99300	         6.43898e+57
          2005.79930	         7.51826e+57
          2006.60560	         6.99856e+57
          2007.41190	         5.44545e+57
          2008.21820	         7.00152e+57
          2009.02450	         6.72789e+57
          2009.83080	         6.24416e+57
          2010.63710	         6.32005e+57
          2011.44340	         6.63365e+57
          2012.24970	         6.82709e+57
          2013.05600	         6.90536e+57
          2013.86230	         6.90783e+57
          2014.66860	         5.44348e+57
          2015.47490	         6.21125e+57
          2016.28120	         5.39260e+57
          2017.08750	         4.56173e+57
          2017.89380	         5.18047e+57
          2018.70010	         5.94858e+57
          2019.50640	         6.26187e+57
          2020.31270	         7.15195e+57
          2021.11900	         7.76730e+57
          2021.92530	         6.63593e+57
          2022.73160	         7.09782e+57
          2023.53790	         6.84336e+57
          2024.34420	         5.38904e+57
          2025.15050	         5.08114e+57
          2025.95680	         5.41610e+57
          2026.76310	         6.19626e+57
          2027.56940	         5.42538e+57
          2028.37570	         7.07999e+57
          2029.18200	         7.15035e+57
          2029.98830	         5.75091e+57
          2030.79460	         6.16049e+57
          2031.60090	         5.21079e+57
          2032.40720	         4.45873e+57
          2033.21350	         5.08066e+57
          2034.01980	         5.10268e+57
          2034.82610	         4.62931e+57
          2035.63240	         4.97709e+57
          2036.43870	         5.16069e+57
          2037.24500	         5.85491e+57
          2038.05130	         5.40691e+57
          2038.85760	         6.07767e+57
          2039.66390	         5.70537e+57
          2040.47020	         6.41740e+57
          2041.27650	         6.75784e+57
          2042.08280	         5.47923e+57
          2042.88910	         5.81556e+57
          2043.69540	         5.70586e+57
          2044.50170	         5.92372e+57
          2045.30800	         5.62481e+57
          2046.11430	         3.90682e+57
          2046.92060	         5.10293e+57
          2047.72690	         6.78902e+57
          2048.53320	         6.03124e+57
          2049.33950	         4.56243e+57
          2050.14580	         4.84453e+57
          2050.95210	         7.34386e+57
          2051.75840	         7.68509e+57
          2052.56470	         5.92781e+57
          2053.37100	         5.03665e+57
          2054.17730	         4.91575e+57
          2054.98360	         4.47068e+57
          2055.78990	         3.60212e+57
          2056.59620	         3.23464e+57
          2057.40250	         5.71248e+57
          2058.20880	         6.47978e+57
          2059.01510	         6.15260e+57
          2059.82140	         7.10587e+57
          2060.62770	         9.81975e+57
          2061.43400	         1.54852e+58
          2062.24030	         1.22103e+58
          2063.04660	         2.62756e+57
          2063.85290	         1.46860e+57
          2064.65920	        -5.34825e+57
          2065.46550	        -7.36316e+57
          2066.27180	        -9.32517e+57
          2067.07810	         1.66045e+57
          2067.88440	         5.05108e+57
          2068.69070	         7.12081e+57
          2069.49700	         6.00466e+57
          2070.30330	         4.88396e+57
          2071.10960	         5.69412e+57
          2071.91590	         6.74372e+57
          2072.72220	         5.39023e+57
          2073.52850	         5.68464e+57
          2074.33480	         6.06223e+57
          2075.14110	         6.68067e+57
          2075.94740	         5.55974e+57
          2076.75370	         5.20526e+57
          2077.56000	         5.49585e+57
          2078.36630	         5.40746e+57
          2079.17260	         4.51133e+57
          2079.97890	         5.51126e+57
          2080.78520	         5.14777e+57
          2081.59150	         4.80020e+57
          2082.39780	         4.74530e+57
          2083.20410	         1.41827e+57
          2084.01040	         1.22566e+57
          2084.81670	         3.61043e+57
          2085.62300	         3.84412e+57
          2086.42930	         3.31850e+57
          2087.23560	         2.94646e+57
          2088.04190	         3.57000e+57
          2088.84820	         4.99854e+57
          2089.65450	         3.09542e+57
          2090.46080	         1.82587e+57
          2091.26710	         2.30599e+57
          2092.07340	         3.07582e+57
          2092.87970	         1.28498e+57
          2093.68600	        -1.04826e+57
          2094.49230	         1.32251e+57
          2095.29860	         5.23408e+57
          2096.10490	         2.79402e+57
          2096.91120	         3.52117e+57
          2097.71750	         3.07131e+57
          2098.52380	         5.57173e+56
          2099.33010	         8.86956e+56
          2100.13640	         5.23131e+56
          2100.94270	         3.85599e+56
          2101.74900	         2.71487e+57
          2102.55530	         2.43382e+57
          2103.36160	         2.39935e+57
          2104.16790	         2.49049e+57
          2104.97420	         3.37652e+57
          2105.78050	        -3.92716e+55
          2106.58680	        -1.72162e+57
          2107.39310	        -1.86501e+57
          2108.19940	        -3.93839e+55
          2109.00570	        -9.54983e+56
          2109.81200	        -1.81874e+56
          2110.61830	         1.49582e+57
          2111.42460	         4.55523e+56
          2112.23090	         8.71829e+56
          2113.03720	         1.43417e+57
          2113.84350	        -1.77018e+57
          2114.64980	         1.18589e+57
          2115.45610	        -5.72379e+56
          2116.26240	         1.50154e+57
          2117.06870	         2.57996e+57
          2117.87500	        -5.82640e+57
          2118.68130	        -4.33502e+57
          2119.48760	        -1.28535e+57
          2120.29390	         2.22349e+57
          2121.10020	        -4.94448e+56
          2121.90650	        -2.21431e+57
          2122.71280	        -4.46738e+56
          2123.51910	         5.32636e+57
          2124.32540	         1.31175e+57
          2125.13170	        -1.89481e+57
          2125.93800	         1.80000e+57
          2126.74430	        -3.89612e+57
          2127.55060	        -1.06117e+58
          2128.35690	        -2.21463e+57
          2129.16320	        -1.71826e+57
          2129.96950	        -5.21785e+57
          2130.77580	        -4.08387e+56
          2131.58210	         1.10699e+57
          2132.38840	         9.66149e+55
          2133.19470	        -1.26985e+57
          2134.00100	        -5.33241e+57
          2134.80730	        -5.77714e+56
          2135.61360	         6.44453e+57
          2136.41990	         3.73219e+57
          2137.22620	        -2.96636e+57
          2138.03250	        -3.33460e+57
          2138.83880	        -1.01691e+58
          2139.64510	        -2.49431e+57
          2140.45140	        -6.06638e+57
          2141.25770	        -1.33476e+58
          2142.06400	        -2.89796e+57
          2142.87030	         4.54429e+57
          2143.67660	        -1.34301e+56
          2144.48290	        -1.41593e+57
          2145.28920	         9.14319e+57
          2146.09550	        -5.28523e+57
          2146.90180	        -1.35304e+58
          2147.70810	        -9.52850e+57
          2148.51440	        -9.76848e+57
          2149.32070	        -9.03210e+57
          2150.12700	        -6.03290e+57
          2150.93330	        -2.36887e+57
          2151.73960	        -3.23191e+57
          2152.54590	        -4.37191e+55
          2153.35220	        -3.76220e+56
          2154.15850	         6.26466e+55
          2154.96480	        -4.15745e+56
          2155.77110	        -4.09001e+57
          2156.57740	        -8.03951e+57
          2157.38370	        -2.49540e+56
          2158.19000	        -4.08750e+57
          2158.99630	        -2.56670e+57
          2159.80260	        -1.11523e+58
          2160.60890	        -1.81454e+57
          2161.41520	        -1.16550e+57
          2162.22150	        -1.83607e+57
          2163.02780	         4.42138e+57
          2163.83410	        -4.88483e+57
          2164.64040	        -7.09162e+57
          2165.44670	        -1.03163e+58
          2166.25300	        -1.06568e+58
          2167.05930	        -3.16097e+57
          2167.86560	        -5.25486e+57
          2168.67190	        -4.60310e+57
          2169.47820	        -1.36401e+58
          2170.28450	        -1.66601e+58
          2171.09080	         6.08991e+56
          2171.89710	        -1.03675e+57
          2172.70340	         4.74797e+57
          2173.50970	        -5.37350e+57
          2174.31600	        -6.62501e+57
          2175.12230	        -6.18605e+57
          2175.92860	        -5.43352e+57
          2176.73490	        -1.27064e+58
          2177.54120	        -7.16013e+57
          2178.34750	        -3.89160e+57
          2179.15380	                 nan
          2179.96010	                 nan
          2180.76640	                 nan
          2181.57270	                 nan
          2182.37900	                 nan
          2183.18530	                 nan
          2183.99160	                 nan
          2184.79790	                 nan
          2185.60420	                 nan
          2186.41050	                 nan
          2187.21680	                 nan
          2188.02310	                 nan
          2188.82940	                 nan
          2189.63570	                 nan
          2190.44200	                 nan
          2191.24830	                 nan
          2192.05460	                 nan
          2192.86090	                 nan
          2193.66720	                 nan
          2194.47350	                 nan
          2195.27980	                 nan
          2196.08610	                 nan
          2196.89240	                 nan
          2197.69870	                 nan
          2198.50500	                 nan
          2199.31130	                 nan
          2200.11760	                 nan
          2200.92390	                 nan
          2201.73020	                 nan
          2202.53650	                 nan
          2203.34280	                 nan
          2204.14910	                 nan
          2204.95540	                 nan
          2205.76170	                 nan
          2206.56800	                 nan
          2207.37430	                 nan
          2208.18060	                 nan
          2208.98690	                 nan
          2209.79320	                 nan
          2210.59950	                 nan
          2211.40580	                 nan
          2212.21210	                 nan
          2213.01840	                 nan
          2213.82470	                 nan
          2214.63100	                 nan
          2215.43730	         0.00000e+00
