#sample_281_stacked_spectrum_rest_UV-bands_median_H-alpha_noDC.txt
#median Lum: 1.68231e+42
#Rest-frame wavelength (A) | Luminosity (erg/s/A)
#
          1110.00000	         0.00000e+00
          1110.80630	         2.35772e+59
          1111.61260	         3.41695e+59
          1112.41890	         1.94104e+59
          1113.22520	         2.64376e+59
          1114.03150	         6.83180e+58
          1114.83780	         1.94172e+59
          1115.64410	         8.45877e+58
          1116.45040	         4.10851e+58
          1117.25670	         1.08301e+59
          1118.06300	         8.49699e+58
          1118.86930	        -1.52782e+59
          1119.67560	        -8.06503e+57
          1120.48190	        -6.66110e+58
          1121.28820	        -9.36683e+58
          1122.09450	        -7.63622e+58
          1122.90080	        -1.03651e+58
          1123.70710	         5.67417e+58
          1124.51340	         7.25148e+58
          1125.31970	         3.16607e+57
          1126.12600	         3.83784e+58
          1126.93230	        -2.99656e+58
          1127.73860	        -7.54915e+58
          1128.54490	        -1.39868e+58
          1129.35120	         7.68925e+57
          1130.15750	        -1.61857e+58
          1130.96380	         7.55384e+57
          1131.77010	         8.79714e+58
          1132.57640	         3.94342e+58
          1133.38270	         2.42301e+58
          1134.18900	         3.87300e+58
          1134.99530	         2.00682e+58
          1135.80160	         1.67132e+58
          1136.60790	         2.21862e+58
          1137.41420	         4.87275e+57
          1138.22050	         1.69819e+58
          1139.02680	         2.50383e+58
          1139.83310	         3.95590e+58
          1140.63940	         3.37543e+58
          1141.44570	        -1.30845e+57
          1142.25200	        -2.48811e+58
          1143.05830	         8.91426e+57
          1143.86460	         2.08390e+58
          1144.67090	         2.05334e+58
          1145.47720	         2.53949e+58
          1146.28350	         4.56934e+57
          1147.08980	         2.96602e+58
          1147.89610	         2.26681e+58
          1148.70240	         2.83898e+58
          1149.50870	         1.77577e+58
          1150.31500	         1.66153e+58
          1151.12130	         1.31213e+58
          1151.92760	         9.42054e+57
          1152.73390	         1.05471e+58
          1153.54020	         1.45490e+57
          1154.34650	         2.14964e+58
          1155.15280	         1.75814e+58
          1155.95910	         1.16388e+58
          1156.76540	         7.90023e+57
          1157.57170	         2.13667e+57
          1158.37800	        -6.60592e+57
          1159.18430	        -1.52026e+57
          1159.99060	         7.25246e+57
          1160.79690	        -1.72628e+57
          1161.60320	         9.27491e+57
          1162.40950	         1.62559e+58
          1163.21580	         1.05779e+58
          1164.02210	         1.31722e+58
          1164.82840	         9.57272e+57
          1165.63470	         1.11272e+58
          1166.44100	         1.93968e+58
          1167.24730	         1.71988e+58
          1168.05360	         1.01921e+58
          1168.85990	         8.97175e+57
          1169.66620	         5.06721e+57
          1170.47250	         1.36799e+58
          1171.27880	         8.70338e+57
          1172.08510	         1.00785e+58
          1172.89140	         3.66098e+57
          1173.69770	         9.68443e+57
          1174.50400	         1.01084e+58
          1175.31030	         1.23311e+58
          1176.11660	         1.34112e+58
          1176.92290	         1.31699e+58
          1177.72920	         1.29907e+58
          1178.53550	         5.29135e+57
          1179.34180	         1.10506e+57
          1180.14810	         4.90381e+57
          1180.95440	         8.67308e+57
          1181.76070	         1.31548e+58
          1182.56700	         1.29738e+58
          1183.37330	         5.09263e+57
          1184.17960	         9.49116e+57
          1184.98590	         1.18948e+58
          1185.79220	         8.08281e+57
          1186.59850	         1.09014e+58
          1187.40480	         1.34228e+58
          1188.21110	         1.72405e+58
          1189.01740	         9.33701e+57
          1189.82370	         1.07724e+58
          1190.63000	         1.42180e+58
          1191.43630	         1.51062e+58
          1192.24260	         9.03655e+57
          1193.04890	         1.12209e+58
          1193.85520	         9.72279e+57
          1194.66150	         7.87037e+57
          1195.46780	         1.70603e+58
          1196.27410	         1.58913e+58
          1197.08040	         1.10304e+58
          1197.88670	         1.33996e+58
          1198.69300	         1.38721e+58
          1199.49930	         1.51190e+58
          1200.30560	         9.54694e+57
          1201.11190	         9.80113e+57
          1201.91820	         1.02488e+58
          1202.72450	         7.93853e+57
          1203.53080	         1.42464e+58
          1204.33710	         8.83737e+57
          1205.14340	         4.37013e+57
          1205.94970	         7.78401e+57
          1206.75600	         7.82649e+57
          1207.56230	         2.09610e+57
          1208.36860	         3.67725e+57
          1209.17490	         4.60180e+57
          1209.98120	         6.67682e+57
          1210.78750	         8.12840e+57
          1211.59380	         1.02231e+58
          1212.40010	         1.75923e+58
          1213.20640	         1.71631e+58
          1214.01270	         2.14505e+58
          1214.81900	         2.82108e+58
          1215.62530	         4.63048e+58
          1216.43160	         9.29838e+58
          1217.23790	         1.52278e+59
          1218.04420	         1.14110e+59
          1218.85050	         8.52436e+58
          1219.65680	         5.72566e+58
          1220.46310	         3.04533e+58
          1221.26940	         2.32741e+58
          1222.07570	         1.77971e+58
          1222.88200	         1.43154e+58
          1223.68830	         1.34515e+58
          1224.49460	         8.64313e+57
          1225.30090	         8.90684e+57
          1226.10720	         7.87253e+57
          1226.91350	         7.05689e+57
          1227.71980	         9.86895e+57
          1228.52610	         1.22748e+58
          1229.33240	         8.75616e+57
          1230.13870	         4.36041e+57
          1230.94500	         5.77702e+57
          1231.75130	         4.49732e+57
          1232.55760	         7.54049e+57
          1233.36390	         9.20152e+57
          1234.17020	         9.23625e+57
          1234.97650	         9.00522e+57
          1235.78280	         8.38663e+57
          1236.58910	         9.24661e+57
          1237.39540	         1.21233e+58
          1238.20170	         9.93281e+57
          1239.00800	         1.09411e+58
          1239.81430	         1.34815e+58
          1240.62060	         1.03037e+58
          1241.42690	         7.67889e+57
          1242.23320	         1.04274e+58
          1243.03950	         9.39210e+57
          1243.84580	         8.84304e+57
          1244.65210	         9.66868e+57
          1245.45840	         8.82822e+57
          1246.26470	         7.89494e+57
          1247.07100	         6.22563e+57
          1247.87730	         7.35616e+57
          1248.68360	         3.89089e+57
          1249.48990	         4.55775e+57
          1250.29620	         8.89125e+57
          1251.10250	         8.10473e+57
          1251.90880	         3.71533e+57
          1252.71510	         6.07360e+57
          1253.52140	         7.64652e+57
          1254.32770	         8.92076e+57
          1255.13400	         1.41180e+58
          1255.94030	         1.33849e+58
          1256.74660	         1.05302e+58
          1257.55290	         1.16696e+58
          1258.35920	         8.94932e+57
          1259.16550	         5.63382e+57
          1259.97180	         5.48423e+57
          1260.77810	         8.16654e+57
          1261.58440	         1.13181e+58
          1262.39070	         8.12489e+57
          1263.19700	         8.58657e+57
          1264.00330	         8.58419e+57
          1264.80960	         9.48304e+57
          1265.61590	         1.23098e+58
          1266.42220	         1.20377e+58
          1267.22850	         1.14435e+58
          1268.03480	         1.34107e+58
          1268.84110	         1.33535e+58
          1269.64740	         1.30653e+58
          1270.45370	         1.36938e+58
          1271.26000	         1.36244e+58
          1272.06630	         1.43674e+58
          1272.87260	         1.30843e+58
          1273.67890	         1.20633e+58
          1274.48520	         1.10656e+58
          1275.29150	         1.18814e+58
          1276.09780	         1.31217e+58
          1276.90410	         1.63756e+58
          1277.71040	         1.30437e+58
          1278.51670	         1.21488e+58
          1279.32300	         1.39976e+58
          1280.12930	         1.30109e+58
          1280.93560	         1.22577e+58
          1281.74190	         1.15062e+58
          1282.54820	         1.21281e+58
          1283.35450	         1.14261e+58
          1284.16080	         1.03362e+58
          1284.96710	         1.20726e+58
          1285.77340	         1.19796e+58
          1286.57970	         1.09927e+58
          1287.38600	         1.23990e+58
          1288.19230	         1.49975e+58
          1288.99860	         1.44470e+58
          1289.80490	         1.04867e+58
          1290.61120	         1.24274e+58
          1291.41750	         1.46042e+58
          1292.22380	         1.37540e+58
          1293.03010	         1.16325e+58
          1293.83640	         1.24267e+58
          1294.64270	         8.95129e+57
          1295.44900	         6.07076e+57
          1296.25530	         6.90200e+57
          1297.06160	         8.33519e+57
          1297.86790	         8.71141e+57
          1298.67420	         8.35804e+57
          1299.48050	         9.47992e+57
          1300.28680	         1.16681e+58
          1301.09310	         8.66738e+57
          1301.89940	         4.04879e+57
          1302.70570	         6.12019e+57
          1303.51200	         8.28627e+57
          1304.31830	         1.03086e+58
          1305.12460	         1.13352e+58
          1305.93090	         1.14148e+58
          1306.73720	         1.29641e+58
          1307.54350	         1.36688e+58
          1308.34980	         1.37392e+58
          1309.15610	         1.63454e+58
          1309.96240	         1.71033e+58
          1310.76870	         1.57531e+58
          1311.57500	         1.26865e+58
          1312.38130	         1.10950e+58
          1313.18760	         1.19320e+58
          1313.99390	         1.55723e+58
          1314.80020	         1.77206e+58
          1315.60650	         1.66726e+58
          1316.41280	         1.31667e+58
          1317.21910	         1.16878e+58
          1318.02540	         1.20920e+58
          1318.83170	         1.29291e+58
          1319.63800	         1.26246e+58
          1320.44430	         1.18915e+58
          1321.25060	         1.26132e+58
          1322.05690	         1.28092e+58
          1322.86320	         1.23309e+58
          1323.66950	         1.01119e+58
          1324.47580	         9.54540e+57
          1325.28210	         9.64542e+57
          1326.08840	         1.11981e+58
          1326.89470	         1.19216e+58
          1327.70100	         1.06308e+58
          1328.50730	         1.02984e+58
          1329.31360	         1.11693e+58
          1330.11990	         1.04881e+58
          1330.92620	         9.07595e+57
          1331.73250	         1.03275e+58
          1332.53880	         9.65998e+57
          1333.34510	         8.40857e+57
          1334.15140	         8.38782e+57
          1334.95770	         9.16308e+57
          1335.76400	         9.77084e+57
          1336.57030	         1.12532e+58
          1337.37660	         1.07838e+58
          1338.18290	         1.14050e+58
          1338.98920	         1.11627e+58
          1339.79550	         1.21736e+58
          1340.60180	         1.28456e+58
          1341.40810	         1.49149e+58
          1342.21440	         1.25521e+58
          1343.02070	         1.15975e+58
          1343.82700	         1.08562e+58
          1344.63330	         1.07588e+58
          1345.43960	         1.31205e+58
          1346.24590	         1.14280e+58
          1347.05220	         1.15677e+58
          1347.85850	         1.02262e+58
          1348.66480	         1.13611e+58
          1349.47110	         1.31522e+58
          1350.27740	         1.33396e+58
          1351.08370	         1.13391e+58
          1351.89000	         1.18914e+58
          1352.69630	         1.22474e+58
          1353.50260	         1.14571e+58
          1354.30890	         1.15179e+58
          1355.11520	         1.20908e+58
          1355.92150	         1.19273e+58
          1356.72780	         1.00316e+58
          1357.53410	         1.07549e+58
          1358.34040	         1.27092e+58
          1359.14670	         1.20738e+58
          1359.95300	         1.16878e+58
          1360.75930	         1.14296e+58
          1361.56560	         1.08960e+58
          1362.37190	         1.17939e+58
          1363.17820	         1.25106e+58
          1363.98450	         1.36732e+58
          1364.79080	         1.35482e+58
          1365.59710	         1.29865e+58
          1366.40340	         1.08224e+58
          1367.20970	         9.18391e+57
          1368.01600	         1.09278e+58
          1368.82230	         1.01767e+58
          1369.62860	         1.10402e+58
          1370.43490	         9.16112e+57
          1371.24120	         8.28458e+57
          1372.04750	         8.81037e+57
          1372.85380	         1.11668e+58
          1373.66010	         1.14963e+58
          1374.46640	         1.01939e+58
          1375.27270	         1.09975e+58
          1376.07900	         1.00968e+58
          1376.88530	         9.46867e+57
          1377.69160	         9.15456e+57
          1378.49790	         7.76316e+57
          1379.30420	         8.18471e+57
          1380.11050	         8.76917e+57
          1380.91680	         7.73254e+57
          1381.72310	         7.22441e+57
          1382.52940	         8.03334e+57
          1383.33570	         9.17932e+57
          1384.14200	         1.08741e+58
          1384.94830	         1.13302e+58
          1385.75460	         1.08815e+58
          1386.56090	         1.12935e+58
          1387.36720	         1.25671e+58
          1388.17350	         1.34326e+58
          1388.97980	         1.12704e+58
          1389.78610	         8.93184e+57
          1390.59240	         7.00731e+57
          1391.39870	         6.86765e+57
          1392.20500	         7.76180e+57
          1393.01130	         7.97146e+57
          1393.81760	         7.75857e+57
          1394.62390	         8.22296e+57
          1395.43020	         7.86718e+57
          1396.23650	         6.21103e+57
          1397.04280	         6.63900e+57
          1397.84910	         8.91408e+57
          1398.65540	         8.84226e+57
          1399.46170	         8.41336e+57
          1400.26800	         8.30427e+57
          1401.07430	         8.31961e+57
          1401.88060	         8.98408e+57
          1402.68690	         9.88481e+57
          1403.49320	         9.97971e+57
          1404.29950	         9.72743e+57
          1405.10580	         9.92581e+57
          1405.91210	         1.14589e+58
          1406.71840	         1.07311e+58
          1407.52470	         1.01702e+58
          1408.33100	         1.05383e+58
          1409.13730	         1.14978e+58
          1409.94360	         1.13923e+58
          1410.74990	         1.07986e+58
          1411.55620	         1.09324e+58
          1412.36250	         1.03679e+58
          1413.16880	         9.41092e+57
          1413.97510	         7.66541e+57
          1414.78140	         7.86153e+57
          1415.58770	         1.03864e+58
          1416.39400	         1.13548e+58
          1417.20030	         1.08991e+58
          1418.00660	         1.05679e+58
          1418.81290	         1.30993e+58
          1419.61920	         1.27108e+58
          1420.42550	         1.27388e+58
          1421.23180	         1.33474e+58
          1422.03810	         1.11518e+58
          1422.84440	         1.04381e+58
          1423.65070	         1.20217e+58
          1424.45700	         1.11531e+58
          1425.26330	         8.50334e+57
          1426.06960	         7.78077e+57
          1426.87590	         1.04792e+58
          1427.68220	         1.01678e+58
          1428.48850	         9.73584e+57
          1429.29480	         1.07858e+58
          1430.10110	         1.11955e+58
          1430.90740	         9.28063e+57
          1431.71370	         8.40992e+57
          1432.52000	         8.64206e+57
          1433.32630	         6.97081e+57
          1434.13260	         6.95020e+57
          1434.93890	         7.96801e+57
          1435.74520	         9.04022e+57
          1436.55150	         9.74015e+57
          1437.35780	         9.14342e+57
          1438.16410	         9.49500e+57
          1438.97040	         9.33620e+57
          1439.77670	         8.27415e+57
          1440.58300	         7.97406e+57
          1441.38930	         9.59737e+57
          1442.19560	         1.05707e+58
          1443.00190	         8.87690e+57
          1443.80820	         1.04036e+58
          1444.61450	         9.59909e+57
          1445.42080	         8.28280e+57
          1446.22710	         1.14154e+58
          1447.03340	         1.05055e+58
          1447.83970	         1.05769e+58
          1448.64600	         1.10274e+58
          1449.45230	         9.98347e+57
          1450.25860	         9.98202e+57
          1451.06490	         9.03399e+57
          1451.87120	         8.18586e+57
          1452.67750	         7.33330e+57
          1453.48380	         7.68353e+57
          1454.29010	         7.83611e+57
          1455.09640	         7.48544e+57
          1455.90270	         8.67786e+57
          1456.70900	         8.46713e+57
          1457.51530	         9.34265e+57
          1458.32160	         1.14006e+58
          1459.12790	         1.21503e+58
          1459.93420	         1.02329e+58
          1460.74050	         8.43667e+57
          1461.54680	         9.08724e+57
          1462.35310	         8.66328e+57
          1463.15940	         1.01452e+58
          1463.96570	         1.07874e+58
          1464.77200	         1.17232e+58
          1465.57830	         1.07329e+58
          1466.38460	         8.93892e+57
          1467.19090	         8.52296e+57
          1467.99720	         9.23966e+57
          1468.80350	         9.10345e+57
          1469.60980	         9.35642e+57
          1470.41610	         1.09783e+58
          1471.22240	         9.78632e+57
          1472.02870	         9.47489e+57
          1472.83500	         9.81133e+57
          1473.64130	         1.00526e+58
          1474.44760	         9.40627e+57
          1475.25390	         8.70295e+57
          1476.06020	         8.97691e+57
          1476.86650	         8.69493e+57
          1477.67280	         8.77795e+57
          1478.47910	         7.33565e+57
          1479.28540	         7.10603e+57
          1480.09170	         8.81207e+57
          1480.89800	         8.63077e+57
          1481.70430	         8.63083e+57
          1482.51060	         8.36648e+57
          1483.31690	         8.13411e+57
          1484.12320	         7.86559e+57
          1484.92950	         7.16573e+57
          1485.73580	         8.15628e+57
          1486.54210	         9.07311e+57
          1487.34840	         8.29026e+57
          1488.15470	         8.26438e+57
          1488.96100	         8.57994e+57
          1489.76730	         9.18660e+57
          1490.57360	         8.70505e+57
          1491.37990	         8.54779e+57
          1492.18620	         8.68446e+57
          1492.99250	         8.49864e+57
          1493.79880	         8.88240e+57
          1494.60510	         8.97257e+57
          1495.41140	         6.28880e+57
          1496.21770	         7.32044e+57
          1497.02400	         9.94793e+57
          1497.83030	         8.26103e+57
          1498.63660	         6.73174e+57
          1499.44290	         6.81397e+57
          1500.24920	         7.17181e+57
          1501.05550	         8.35225e+57
          1501.86180	         8.51107e+57
          1502.66810	         9.71974e+57
          1503.47440	         9.89901e+57
          1504.28070	         8.47344e+57
          1505.08700	         9.05287e+57
          1505.89330	         8.75907e+57
          1506.69960	         7.86806e+57
          1507.50590	         8.45596e+57
          1508.31220	         8.61913e+57
          1509.11850	         9.15853e+57
          1509.92480	         9.83269e+57
          1510.73110	         8.73421e+57
          1511.53740	         7.08155e+57
          1512.34370	         7.99557e+57
          1513.15000	         9.84208e+57
          1513.95630	         9.96719e+57
          1514.76260	         9.49645e+57
          1515.56890	         9.13818e+57
          1516.37520	         9.27360e+57
          1517.18150	         8.33659e+57
          1517.98780	         7.45986e+57
          1518.79410	         5.93658e+57
          1519.60040	         6.56002e+57
          1520.40670	         9.39523e+57
          1521.21300	         9.75297e+57
          1522.01930	         8.42084e+57
          1522.82560	         9.44461e+57
          1523.63190	         1.03364e+58
          1524.43820	         9.61461e+57
          1525.24450	         7.88142e+57
          1526.05080	         6.16884e+57
          1526.85710	         6.02045e+57
          1527.66340	         6.03960e+57
          1528.46970	         7.97544e+57
          1529.27600	         8.32004e+57
          1530.08230	         7.92368e+57
          1530.88860	         7.75533e+57
          1531.69490	         8.09703e+57
          1532.50120	         8.63511e+57
          1533.30750	         9.33365e+57
          1534.11380	         9.91946e+57
          1534.92010	         9.44994e+57
          1535.72640	         9.24019e+57
          1536.53270	         8.63099e+57
          1537.33900	         8.46112e+57
          1538.14530	         8.74957e+57
          1538.95160	         8.88595e+57
          1539.75790	         8.69247e+57
          1540.56420	         8.46102e+57
          1541.37050	         8.30134e+57
          1542.17680	         8.36346e+57
          1542.98310	         7.56907e+57
          1543.78940	         6.93682e+57
          1544.59570	         7.04308e+57
          1545.40200	         8.30884e+57
          1546.20830	         9.86382e+57
          1547.01460	         1.03606e+58
          1547.82090	         1.04825e+58
          1548.62720	         1.22878e+58
          1549.43350	         1.19551e+58
          1550.23980	         1.06301e+58
          1551.04610	         1.21600e+58
          1551.85240	         1.24662e+58
          1552.65870	         1.13239e+58
          1553.46500	         9.98903e+57
          1554.27130	         1.04599e+58
          1555.07760	         9.97110e+57
          1555.88390	         8.59724e+57
          1556.69020	         9.52483e+57
          1557.49650	         9.65786e+57
          1558.30280	         8.52376e+57
          1559.10910	         8.20396e+57
          1559.91540	         9.11307e+57
          1560.72170	         9.87430e+57
          1561.52800	         9.03447e+57
          1562.33430	         9.87966e+57
          1563.14060	         8.63608e+57
          1563.94690	         7.76709e+57
          1564.75320	         8.40705e+57
          1565.55950	         7.26903e+57
          1566.36580	         7.36394e+57
          1567.17210	         8.93144e+57
          1567.97840	         8.60009e+57
          1568.78470	         8.02044e+57
          1569.59100	         8.98484e+57
          1570.39730	         8.89055e+57
          1571.20360	         7.41462e+57
          1572.00990	         7.39220e+57
          1572.81620	         8.39872e+57
          1573.62250	         9.59680e+57
          1574.42880	         8.98334e+57
          1575.23510	         7.53024e+57
          1576.04140	         8.14075e+57
          1576.84770	         9.35881e+57
          1577.65400	         9.28694e+57
          1578.46030	         9.60582e+57
          1579.26660	         1.03987e+58
          1580.07290	         9.32448e+57
          1580.87920	         8.03901e+57
          1581.68550	         8.34754e+57
          1582.49180	         8.12830e+57
          1583.29810	         7.63923e+57
          1584.10440	         8.33460e+57
          1584.91070	         8.63251e+57
          1585.71700	         8.80100e+57
          1586.52330	         9.59673e+57
          1587.32960	         9.25065e+57
          1588.13590	         8.44387e+57
          1588.94220	         7.40075e+57
          1589.74850	         8.90348e+57
          1590.55480	         1.01999e+58
          1591.36110	         9.10128e+57
          1592.16740	         9.23846e+57
          1592.97370	         8.66955e+57
          1593.78000	         8.58111e+57
          1594.58630	         9.74597e+57
          1595.39260	         9.55192e+57
          1596.19890	         9.26198e+57
          1597.00520	         9.31706e+57
          1597.81150	         8.42161e+57
          1598.61780	         7.52855e+57
          1599.42410	         7.93356e+57
          1600.23040	         7.28627e+57
          1601.03670	         7.14103e+57
          1601.84300	         6.73422e+57
          1602.64930	         8.00471e+57
          1603.45560	         9.38520e+57
          1604.26190	         9.19402e+57
          1605.06820	         7.83755e+57
          1605.87450	         6.96802e+57
          1606.68080	         6.05263e+57
          1607.48710	         6.55421e+57
          1608.29340	         6.62769e+57
          1609.09970	         7.06142e+57
          1609.90600	         7.88015e+57
          1610.71230	         6.94606e+57
          1611.51860	         6.90158e+57
          1612.32490	         7.03888e+57
          1613.13120	         8.15400e+57
          1613.93750	         7.90130e+57
          1614.74380	         8.29224e+57
          1615.55010	         9.42270e+57
          1616.35640	         9.79682e+57
          1617.16270	         1.04553e+58
          1617.96900	         1.06828e+58
          1618.77530	         9.03355e+57
          1619.58160	         9.33899e+57
          1620.38790	         9.29362e+57
          1621.19420	         8.60092e+57
          1622.00050	         7.18166e+57
          1622.80680	         8.69711e+57
          1623.61310	         1.00004e+58
          1624.41940	         9.10229e+57
          1625.22570	         9.31194e+57
          1626.03200	         8.36143e+57
          1626.83830	         7.79538e+57
          1627.64460	         7.42493e+57
          1628.45090	         6.69298e+57
          1629.25720	         9.28432e+57
          1630.06350	         9.77078e+57
          1630.86980	         7.18414e+57
          1631.67610	         7.31665e+57
          1632.48240	         8.16616e+57
          1633.28870	         7.96190e+57
          1634.09500	         9.46210e+57
          1634.90130	         1.11054e+58
          1635.70760	         8.94106e+57
          1636.51390	         7.51747e+57
          1637.32020	         6.52017e+57
          1638.12650	         8.38411e+57
          1638.93280	         1.02661e+58
          1639.73910	         1.07470e+58
          1640.54540	         1.15719e+58
          1641.35170	         8.82506e+57
          1642.15800	         8.09274e+57
          1642.96430	         8.77308e+57
          1643.77060	         8.76888e+57
          1644.57690	         8.69765e+57
          1645.38320	         8.34546e+57
          1646.18950	         8.03849e+57
          1646.99580	         9.14354e+57
          1647.80210	         7.75853e+57
          1648.60840	         7.38415e+57
          1649.41470	         8.16898e+57
          1650.22100	         7.83177e+57
          1651.02730	         7.75238e+57
          1651.83360	         7.74728e+57
          1652.63990	         7.79085e+57
          1653.44620	         8.49066e+57
          1654.25250	         7.58375e+57
          1655.05880	         7.09010e+57
          1655.86510	         8.55018e+57
          1656.67140	         8.24595e+57
          1657.47770	         7.14939e+57
          1658.28400	         7.63215e+57
          1659.09030	         8.68331e+57
          1659.89660	         9.10128e+57
          1660.70290	         9.59278e+57
          1661.50920	         8.84125e+57
          1662.31550	         8.25318e+57
          1663.12180	         8.34637e+57
          1663.92810	         9.85320e+57
          1664.73440	         1.11761e+58
          1665.54070	         1.20014e+58
          1666.34700	         1.27897e+58
          1667.15330	         1.04060e+58
          1667.95960	         8.58904e+57
          1668.76590	         7.48279e+57
          1669.57220	         7.95647e+57
          1670.37850	         8.54098e+57
          1671.18480	         8.07871e+57
          1671.99110	         7.66492e+57
          1672.79740	         6.63542e+57
          1673.60370	         6.72417e+57
          1674.41000	         7.84290e+57
          1675.21630	         7.92297e+57
          1676.02260	         7.51480e+57
          1676.82890	         7.06191e+57
          1677.63520	         6.84708e+57
          1678.44150	         6.85372e+57
          1679.24780	         7.81295e+57
          1680.05410	         6.82207e+57
          1680.86040	         7.09173e+57
          1681.66670	         8.23761e+57
          1682.47300	         8.42990e+57
          1683.27930	         7.61166e+57
          1684.08560	         7.78812e+57
          1684.89190	         7.63553e+57
          1685.69820	         5.58711e+57
          1686.50450	         5.61283e+57
          1687.31080	         6.32597e+57
          1688.11710	         7.28909e+57
          1688.92340	         6.02781e+57
          1689.72970	         5.56735e+57
          1690.53600	         6.21483e+57
          1691.34230	         6.64967e+57
          1692.14860	         8.29385e+57
          1692.95490	         8.72147e+57
          1693.76120	         7.58083e+57
          1694.56750	         7.02990e+57
          1695.37380	         7.87238e+57
          1696.18010	         8.80667e+57
          1696.98640	         9.13444e+57
          1697.79270	         8.24554e+57
          1698.59900	         7.59870e+57
          1699.40530	         6.63508e+57
          1700.21160	         7.06421e+57
          1701.01790	         9.09351e+57
          1701.82420	         8.86183e+57
          1702.63050	         7.14281e+57
          1703.43680	         8.83410e+57
          1704.24310	         8.49165e+57
          1705.04940	         8.32087e+57
          1705.85570	         8.75832e+57
          1706.66200	         8.84491e+57
          1707.46830	         7.84389e+57
          1708.27460	         8.07771e+57
          1709.08090	         6.87823e+57
          1709.88720	         6.75285e+57
          1710.69350	         7.27416e+57
          1711.49980	         7.25429e+57
          1712.30610	         6.18886e+57
          1713.11240	         8.00379e+57
          1713.91870	         7.92576e+57
          1714.72500	         8.17046e+57
          1715.53130	         8.83311e+57
          1716.33760	         7.68380e+57
          1717.14390	         6.89950e+57
          1717.95020	         8.45666e+57
          1718.75650	         8.45770e+57
          1719.56280	         7.63318e+57
          1720.36910	         7.74838e+57
          1721.17540	         8.26467e+57
          1721.98170	         6.47119e+57
          1722.78800	         5.86385e+57
          1723.59430	         7.14133e+57
          1724.40060	         8.04414e+57
          1725.20690	         8.08751e+57
          1726.01320	         6.94935e+57
          1726.81950	         6.72308e+57
          1727.62580	         6.83095e+57
          1728.43210	         6.82781e+57
          1729.23840	         6.89782e+57
          1730.04470	         8.01694e+57
          1730.85100	         9.82180e+57
          1731.65730	         9.14218e+57
          1732.46360	         8.29944e+57
          1733.26990	         6.97198e+57
          1734.07620	         6.95093e+57
          1734.88250	         8.19367e+57
          1735.68880	         8.49030e+57
          1736.49510	         8.00133e+57
          1737.30140	         7.52538e+57
          1738.10770	         6.35314e+57
          1738.91400	         6.58798e+57
          1739.72030	         7.17344e+57
          1740.52660	         5.70836e+57
          1741.33290	         5.91652e+57
          1742.13920	         6.61785e+57
          1742.94550	         7.32778e+57
          1743.75180	         7.92104e+57
          1744.55810	         8.45006e+57
          1745.36440	         6.67069e+57
          1746.17070	         4.96794e+57
          1746.97700	         6.26523e+57
          1747.78330	         7.87225e+57
          1748.58960	         6.72675e+57
          1749.39590	         6.79376e+57
          1750.20220	         7.19323e+57
          1751.00850	         6.25401e+57
          1751.81480	         6.14763e+57
          1752.62110	         7.90585e+57
          1753.42740	         8.33306e+57
          1754.23370	         7.68102e+57
          1755.04000	         7.30747e+57
          1755.84630	         7.77496e+57
          1756.65260	         9.70277e+57
          1757.45890	         9.28965e+57
          1758.26520	         6.70535e+57
          1759.07150	         8.11525e+57
          1759.87780	         8.30581e+57
          1760.68410	         7.67474e+57
          1761.49040	         7.38936e+57
          1762.29670	         6.55230e+57
          1763.10300	         7.53936e+57
          1763.90930	         7.50590e+57
          1764.71560	         7.72652e+57
          1765.52190	         9.26810e+57
          1766.32820	         8.86922e+57
          1767.13450	         8.35965e+57
          1767.94080	         7.66274e+57
          1768.74710	         7.34493e+57
          1769.55340	         7.83122e+57
          1770.35970	         7.05605e+57
          1771.16600	         7.34781e+57
          1771.97230	         7.68557e+57
          1772.77860	         8.11951e+57
          1773.58490	         7.05082e+57
          1774.39120	         6.00247e+57
          1775.19750	         6.03810e+57
          1776.00380	         6.40113e+57
          1776.81010	         6.96608e+57
          1777.61640	         7.51942e+57
          1778.42270	         7.47910e+57
          1779.22900	         6.10653e+57
          1780.03530	         6.38689e+57
          1780.84160	         7.57901e+57
          1781.64790	         7.87816e+57
          1782.45420	         7.57623e+57
          1783.26050	         6.66457e+57
          1784.06680	         6.85875e+57
          1784.87310	         7.58282e+57
          1785.67940	         7.00538e+57
          1786.48570	         6.92304e+57
          1787.29200	         6.52270e+57
          1788.09830	         6.25157e+57
          1788.90460	         5.52043e+57
          1789.71090	         5.38164e+57
          1790.51720	         5.31941e+57
          1791.32350	         6.53423e+57
          1792.12980	         9.00686e+57
          1792.93610	         8.07840e+57
          1793.74240	         7.61772e+57
          1794.54870	         8.31355e+57
          1795.35500	         7.88339e+57
          1796.16130	         7.63399e+57
          1796.96760	         6.78408e+57
          1797.77390	         6.30896e+57
          1798.58020	         7.88853e+57
          1799.38650	         7.08429e+57
          1800.19280	         6.59620e+57
          1800.99910	         7.58882e+57
          1801.80540	         7.78404e+57
          1802.61170	         8.41373e+57
          1803.41800	         8.25581e+57
          1804.22430	         7.89102e+57
          1805.03060	         6.87938e+57
          1805.83690	         6.74484e+57
          1806.64320	         7.33042e+57
          1807.44950	         8.14848e+57
          1808.25580	         7.10814e+57
          1809.06210	         8.37876e+57
          1809.86840	         6.93459e+57
          1810.67470	         6.39383e+57
          1811.48100	         7.99856e+57
          1812.28730	         8.87853e+57
          1813.09360	         7.86377e+57
          1813.89990	         7.40555e+57
          1814.70620	         6.85371e+57
          1815.51250	         7.71928e+57
          1816.31880	         7.83115e+57
          1817.12510	         7.36974e+57
          1817.93140	         7.11062e+57
          1818.73770	         7.25279e+57
          1819.54400	         7.20749e+57
          1820.35030	         7.53280e+57
          1821.15660	         6.43679e+57
          1821.96290	         6.35101e+57
          1822.76920	         7.46456e+57
          1823.57550	         7.40174e+57
          1824.38180	         7.47268e+57
          1825.18810	         8.22870e+57
          1825.99440	         8.80390e+57
          1826.80070	         8.01572e+57
          1827.60700	         6.11737e+57
          1828.41330	         5.96549e+57
          1829.21960	         6.60559e+57
          1830.02590	         6.62684e+57
          1830.83220	         6.68457e+57
          1831.63850	         6.50422e+57
          1832.44480	         6.67898e+57
          1833.25110	         7.67354e+57
          1834.05740	         8.03570e+57
          1834.86370	         7.01436e+57
          1835.67000	         6.26927e+57
          1836.47630	         7.39104e+57
          1837.28260	         8.72422e+57
          1838.08890	         9.76896e+57
          1838.89520	         9.80559e+57
          1839.70150	         8.17057e+57
          1840.50780	         7.60450e+57
          1841.31410	         6.97251e+57
          1842.12040	         6.83728e+57
          1842.92670	         6.19862e+57
          1843.73300	         5.91096e+57
          1844.53930	         6.65975e+57
          1845.34560	         6.93597e+57
          1846.15190	         7.19180e+57
          1846.95820	         7.86571e+57
          1847.76450	         7.86554e+57
          1848.57080	         6.12699e+57
          1849.37710	         6.78503e+57
          1850.18340	         7.91892e+57
          1850.98970	         7.06626e+57
          1851.79600	         7.35177e+57
          1852.60230	         7.05888e+57
          1853.40860	         6.75327e+57
          1854.21490	         6.11313e+57
          1855.02120	         5.12030e+57
          1855.82750	         4.77021e+57
          1856.63380	         6.46104e+57
          1857.44010	         6.45794e+57
          1858.24640	         7.18829e+57
          1859.05270	         6.72387e+57
          1859.85900	         6.15611e+57
          1860.66530	         5.92164e+57
          1861.47160	         6.96509e+57
          1862.27790	         7.40226e+57
          1863.08420	         7.88856e+57
          1863.89050	         8.05643e+57
          1864.69680	         7.72543e+57
          1865.50310	         8.11067e+57
          1866.30940	         6.97070e+57
          1867.11570	         6.75840e+57
          1867.92200	         8.40611e+57
          1868.72830	         7.31140e+57
          1869.53460	         6.88677e+57
          1870.34090	         7.81988e+57
          1871.14720	         7.76522e+57
          1871.95350	         7.09000e+57
          1872.75980	         7.64902e+57
          1873.56610	         7.17241e+57
          1874.37240	         6.55014e+57
          1875.17870	         6.77378e+57
          1875.98500	         8.00788e+57
          1876.79130	         8.57961e+57
          1877.59760	         7.31191e+57
          1878.40390	         5.63774e+57
          1879.21020	         6.71221e+57
          1880.01650	         7.72890e+57
          1880.82280	         8.82819e+57
          1881.62910	         9.29828e+57
          1882.43540	         1.03155e+58
          1883.24170	         7.97990e+57
          1884.04800	         5.67938e+57
          1884.85430	         7.65216e+57
          1885.66060	         8.71210e+57
          1886.46690	         8.93355e+57
          1887.27320	         8.03370e+57
          1888.07950	         5.62768e+57
          1888.88580	         5.93451e+57
          1889.69210	         8.11701e+57
          1890.49840	         7.62886e+57
          1891.30470	         9.02104e+57
          1892.11100	         9.21628e+57
          1892.91730	         8.61166e+57
          1893.72360	         8.48125e+57
          1894.52990	         8.10613e+57
          1895.33620	         8.65409e+57
          1896.14250	         6.65053e+57
          1896.94880	         5.23877e+57
          1897.75510	         4.02188e+57
          1898.56140	         5.15888e+57
          1899.36770	         7.82496e+57
          1900.17400	         7.06867e+57
          1900.98030	         4.95726e+57
          1901.78660	         5.79915e+57
          1902.59290	         6.72444e+57
          1903.39920	         8.76068e+57
          1904.20550	         8.63225e+57
          1905.01180	         8.25019e+57
          1905.81810	         1.00366e+58
          1906.62440	         1.31375e+58
          1907.43070	         1.57520e+58
          1908.23700	         1.54574e+58
          1909.04330	         1.41581e+58
          1909.84960	         1.18062e+58
          1910.65590	         1.01232e+58
          1911.46220	         9.09541e+57
          1912.26850	         7.77166e+57
          1913.07480	         6.02338e+57
          1913.88110	         6.12919e+57
          1914.68740	         6.42246e+57
          1915.49370	         5.94901e+57
          1916.30000	         6.35462e+57
          1917.10630	         7.35592e+57
          1917.91260	         6.84348e+57
          1918.71890	         6.52366e+57
          1919.52520	         6.69102e+57
          1920.33150	         5.82240e+57
          1921.13780	         6.99800e+57
          1921.94410	         7.43292e+57
          1922.75040	         7.11760e+57
          1923.55670	         7.15429e+57
          1924.36300	         7.15681e+57
          1925.16930	         6.09974e+57
          1925.97560	         6.14544e+57
          1926.78190	         5.98933e+57
          1927.58820	         6.35778e+57
          1928.39450	         7.19176e+57
          1929.20080	         6.91068e+57
          1930.00710	         6.98505e+57
          1930.81340	         7.47866e+57
          1931.61970	         6.83425e+57
          1932.42600	         6.71467e+57
          1933.23230	         7.40052e+57
          1934.03860	         7.26606e+57
          1934.84490	         5.99636e+57
          1935.65120	         8.35138e+57
          1936.45750	         9.45924e+57
          1937.26380	         8.24640e+57
          1938.07010	         7.24332e+57
          1938.87640	         7.37950e+57
          1939.68270	         7.01884e+57
          1940.48900	         7.55935e+57
          1941.29530	         8.76609e+57
          1942.10160	         8.61243e+57
          1942.90790	         8.00289e+57
          1943.71420	         6.78281e+57
          1944.52050	         5.54503e+57
          1945.32680	         5.89606e+57
          1946.13310	         7.13637e+57
          1946.93940	         8.12851e+57
          1947.74570	         7.74698e+57
          1948.55200	         6.69011e+57
          1949.35830	         6.71247e+57
          1950.16460	         6.97446e+57
          1950.97090	         6.21163e+57
          1951.77720	         7.28124e+57
          1952.58350	         7.55940e+57
          1953.38980	         5.11363e+57
          1954.19610	         4.15406e+57
          1955.00240	         5.18351e+57
          1955.80870	         5.78926e+57
          1956.61500	         5.55236e+57
          1957.42130	         5.54617e+57
          1958.22760	         6.26708e+57
          1959.03390	         7.49354e+57
          1959.84020	         7.15994e+57
          1960.64650	         6.30289e+57
          1961.45280	         6.55988e+57
          1962.25910	         6.79088e+57
          1963.06540	         7.47064e+57
          1963.87170	         6.80264e+57
          1964.67800	         7.68045e+57
          1965.48430	         5.70336e+57
          1966.29060	         6.16352e+57
          1967.09690	         6.62285e+57
          1967.90320	         7.06409e+57
          1968.70950	         7.54776e+57
          1969.51580	         6.17488e+57
          1970.32210	         7.14903e+57
          1971.12840	         6.86744e+57
          1971.93470	         3.91598e+57
          1972.74100	         4.80669e+57
          1973.54730	         7.38965e+57
          1974.35360	         7.26966e+57
          1975.15990	         8.47789e+57
          1975.96620	         7.19286e+57
          1976.77250	         8.29666e+57
          1977.57880	         7.55599e+57
          1978.38510	         6.47156e+57
          1979.19140	         7.27737e+57
          1979.99770	         7.32577e+57
          1980.80400	         7.36991e+57
          1981.61030	         6.93427e+57
          1982.41660	         5.29229e+57
          1983.22290	         6.39808e+57
          1984.02920	         6.33860e+57
          1984.83550	         5.88246e+57
          1985.64180	         5.52003e+57
          1986.44810	         6.37116e+57
          1987.25440	         5.80574e+57
          1988.06070	         5.90926e+57
          1988.86700	         6.90812e+57
          1989.67330	         6.64568e+57
          1990.47960	         7.03504e+57
          1991.28590	         6.73929e+57
          1992.09220	         5.26179e+57
          1992.89850	         5.19474e+57
          1993.70480	         5.59023e+57
          1994.51110	         4.93636e+57
          1995.31740	         5.50511e+57
          1996.12370	         5.41047e+57
          1996.93000	         6.44640e+57
          1997.73630	         6.92289e+57
          1998.54260	         6.33593e+57
          1999.34890	         6.20110e+57
          2000.15520	         6.73308e+57
          2000.96150	         7.15709e+57
          2001.76780	         6.44654e+57
          2002.57410	         4.61250e+57
          2003.38040	         6.56186e+57
          2004.18670	         6.84396e+57
          2004.99300	         5.99475e+57
          2005.79930	         7.37082e+57
          2006.60560	         6.50333e+57
          2007.41190	         5.71652e+57
          2008.21820	         6.39255e+57
          2009.02450	         6.97790e+57
          2009.83080	         6.01041e+57
          2010.63710	         6.16441e+57
          2011.44340	         7.02325e+57
          2012.24970	         7.65209e+57
          2013.05600	         6.95075e+57
          2013.86230	         6.21271e+57
          2014.66860	         5.97707e+57
          2015.47490	         6.16568e+57
          2016.28120	         5.91679e+57
          2017.08750	         5.23490e+57
          2017.89380	         6.95354e+57
          2018.70010	         6.00538e+57
          2019.50640	         6.35732e+57
          2020.31270	         6.85163e+57
          2021.11900	         6.64986e+57
          2021.92530	         7.07252e+57
          2022.73160	         7.53791e+57
          2023.53790	         6.95793e+57
          2024.34420	         6.50770e+57
          2025.15050	         5.92305e+57
          2025.95680	         5.37487e+57
          2026.76310	         6.58026e+57
          2027.56940	         7.05532e+57
          2028.37570	         5.33113e+57
          2029.18200	         6.25535e+57
          2029.98830	         6.74276e+57
          2030.79460	         5.42669e+57
          2031.60090	         4.85867e+57
          2032.40720	         5.50390e+57
          2033.21350	         5.75924e+57
          2034.01980	         5.85123e+57
          2034.82610	         5.34247e+57
          2035.63240	         4.50613e+57
          2036.43870	         5.77498e+57
          2037.24500	         7.20079e+57
          2038.05130	         6.80407e+57
          2038.85760	         6.72861e+57
          2039.66390	         7.26779e+57
          2040.47020	         6.02143e+57
          2041.27650	         6.02551e+57
          2042.08280	         6.35945e+57
          2042.88910	         6.15001e+57
          2043.69540	         5.67926e+57
          2044.50170	         5.91196e+57
          2045.30800	         6.11318e+57
          2046.11430	         5.68214e+57
          2046.92060	         5.11848e+57
          2047.72690	         6.78126e+57
          2048.53320	         5.61923e+57
          2049.33950	         5.61055e+57
          2050.14580	         6.55170e+57
          2050.95210	         7.10264e+57
          2051.75840	         7.77383e+57
          2052.56470	         5.32717e+57
          2053.37100	         3.55134e+57
          2054.17730	         4.66174e+57
          2054.98360	         5.17366e+57
          2055.78990	         4.14261e+57
          2056.59620	         2.99033e+57
          2057.40250	         5.54735e+57
          2058.20880	         6.67480e+57
          2059.01510	         6.72017e+57
          2059.82140	         7.57476e+57
          2060.62770	         1.06905e+58
          2061.43400	         1.66576e+58
          2062.24030	         1.22084e+58
          2063.04660	         6.38472e+57
          2063.85290	         3.53515e+56
          2064.65920	        -3.19586e+57
          2065.46550	        -1.02596e+58
          2066.27180	        -8.44672e+57
          2067.07810	         3.27676e+57
          2067.88440	         5.61493e+57
          2068.69070	         7.08582e+57
          2069.49700	         5.75643e+57
          2070.30330	         3.64407e+57
          2071.10960	         5.68148e+57
          2071.91590	         7.14428e+57
          2072.72220	         4.44957e+57
          2073.52850	         5.30731e+57
          2074.33480	         7.06575e+57
          2075.14110	         6.58834e+57
          2075.94740	         5.30979e+57
          2076.75370	         4.52932e+57
          2077.56000	         5.40105e+57
          2078.36630	         5.78955e+57
          2079.17260	         4.75658e+57
          2079.97890	         5.10536e+57
          2080.78520	         5.77749e+57
          2081.59150	         5.45025e+57
          2082.39780	         4.67398e+57
          2083.20410	         3.38923e+57
          2084.01040	         2.56388e+57
          2084.81670	         4.32336e+57
          2085.62300	         4.51619e+57
          2086.42930	         4.35125e+57
          2087.23560	         3.31264e+57
          2088.04190	         2.43547e+57
          2088.84820	         3.97361e+57
          2089.65450	         3.57569e+57
          2090.46080	         1.08518e+57
          2091.26710	         1.86574e+57
          2092.07340	         3.43076e+57
          2092.87970	         3.24155e+57
          2093.68600	        -1.44527e+57
          2094.49230	         1.54455e+57
          2095.29860	         5.09431e+57
          2096.10490	         1.62573e+57
          2096.91120	         3.27980e+57
          2097.71750	         3.22242e+57
          2098.52380	         5.45119e+56
          2099.33010	         5.52311e+56
          2100.13640	         1.15290e+57
          2100.94270	         1.58562e+57
          2101.74900	         2.58454e+57
          2102.55530	         4.27690e+57
          2103.36160	         4.01235e+57
          2104.16790	         2.76333e+57
          2104.97420	        -3.44927e+56
          2105.78050	         1.66758e+57
          2106.58680	         2.87495e+57
          2107.39310	        -1.43866e+57
          2108.19940	         9.73601e+56
          2109.00570	         1.35159e+57
          2109.81200	         1.44112e+57
          2110.61830	         1.53878e+57
          2111.42460	         2.49323e+57
          2112.23090	         2.15917e+57
          2113.03720	         2.81784e+56
          2113.84350	        -6.60987e+56
          2114.64980	         6.23128e+57
          2115.45610	        -8.47294e+56
          2116.26240	        -1.81522e+57
          2117.06870	        -1.13089e+57
          2117.87500	        -4.23100e+57
          2118.68130	        -5.86800e+56
          2119.48760	         3.15915e+56
          2120.29390	        -2.72684e+57
          2121.10020	        -5.01309e+57
          2121.90650	        -2.34243e+57
          2122.71280	         2.96554e+56
          2123.51910	         5.68959e+57
          2124.32540	        -4.24733e+56
          2125.13170	        -7.87388e+57
          2125.93800	        -7.60936e+56
          2126.74430	         5.31051e+56
          2127.55060	        -7.23349e+57
          2128.35690	        -5.68251e+56
          2129.16320	        -3.86074e+57
          2129.96950	        -8.84694e+57
          2130.77580	        -5.66880e+57
          2131.58210	         1.44817e+57
          2132.38840	         4.39328e+56
          2133.19470	         7.66047e+57
          2134.00100	         3.26083e+57
          2134.80730	        -5.05744e+57
          2135.61360	        -2.96161e+57
          2136.41990	         5.58899e+57
          2137.22620	         1.13383e+57
          2138.03250	        -7.20529e+57
          2138.83880	        -8.56671e+57
          2139.64510	        -3.43403e+57
          2140.45140	        -1.39317e+57
          2141.25770	        -6.01046e+57
          2142.06400	         3.87523e+57
          2142.87030	         6.94100e+56
          2143.67660	         2.00280e+57
          2144.48290	         3.83942e+57
          2145.28920	         2.20307e+57
          2146.09550	        -5.59390e+57
          2146.90180	        -1.12908e+58
          2147.70810	        -7.40189e+57
          2148.51440	        -1.30507e+58
          2149.32070	        -9.07889e+57
          2150.12700	        -1.46570e+58
          2150.93330	        -3.11779e+57
          2151.73960	        -1.03652e+57
          2152.54590	        -1.86405e+57
          2153.35220	         4.61839e+57
          2154.15850	        -8.32987e+57
          2154.96480	        -2.95733e+57
          2155.77110	        -6.63755e+57
          2156.57740	        -1.25655e+58
          2157.38370	         3.92329e+57
          2158.19000	        -3.03407e+57
          2158.99630	         5.34979e+54
          2159.80260	        -8.24060e+57
          2160.60890	        -1.00874e+58
          2161.41520	        -6.07823e+57
          2162.22150	        -1.36692e+58
          2163.02780	        -4.04915e+57
          2163.83410	        -5.16546e+57
          2164.64040	        -1.17081e+57
          2165.44670	        -9.08093e+57
          2166.25300	        -1.05125e+57
          2167.05930	         4.46518e+57
          2167.86560	         1.98654e+57
          2168.67190	        -1.13145e+58
          2169.47820	        -5.57831e+57
          2170.28450	        -3.81984e+57
          2171.09080	        -4.38857e+57
          2171.89710	        -1.60368e+57
          2172.70340	        -1.13545e+57
          2173.50970	        -1.03521e+58
          2174.31600	        -6.96338e+57
          2175.12230	         1.63619e+57
          2175.92860	        -2.71931e+57
          2176.73490	        -3.65511e+57
          2177.54120	        -7.52569e+57
          2178.34750	        -4.96004e+57
          2179.15380	                 nan
          2179.96010	                 nan
          2180.76640	                 nan
          2181.57270	                 nan
          2182.37900	                 nan
          2183.18530	                 nan
          2183.99160	                 nan
          2184.79790	                 nan
          2185.60420	                 nan
          2186.41050	                 nan
          2187.21680	                 nan
          2188.02310	                 nan
          2188.82940	                 nan
          2189.63570	                 nan
          2190.44200	                 nan
          2191.24830	                 nan
          2192.05460	                 nan
          2192.86090	                 nan
          2193.66720	                 nan
          2194.47350	                 nan
          2195.27980	                 nan
          2196.08610	                 nan
          2196.89240	                 nan
          2197.69870	                 nan
          2198.50500	                 nan
          2199.31130	                 nan
          2200.11760	                 nan
          2200.92390	                 nan
          2201.73020	                 nan
          2202.53650	                 nan
          2203.34280	                 nan
          2204.14910	                 nan
          2204.95540	                 nan
          2205.76170	                 nan
          2206.56800	                 nan
          2207.37430	                 nan
          2208.18060	                 nan
          2208.98690	                 nan
          2209.79320	                 nan
          2210.59950	                 nan
          2211.40580	                 nan
          2212.21210	                 nan
          2213.01840	                 nan
          2213.82470	                 nan
          2214.63100	                 nan
          2215.43730	         0.00000e+00
