#sample_76_stacked_spectrum_rest_UV-bands_median_H-alpha_noDC.txt
#median Lum: 1.67591e+42
#Rest-frame wavelength (A) | Luminosity (erg/s/A)
#
          1110.00000	         0.00000e+00
          1110.80630	        -7.36177e+58
          1111.61260	        -8.47024e+58
          1112.41890	         1.49302e+59
          1113.22520	         4.77967e+58
          1114.03150	        -2.23473e+59
          1114.83780	        -4.35692e+58
          1115.64410	         8.56375e+58
          1116.45040	         1.03252e+59
          1117.25670	        -8.67949e+58
          1118.06300	         1.23006e+59
          1118.86930	         9.71886e+58
          1119.67560	         1.35516e+59
          1120.48190	        -5.96411e+58
          1121.28820	        -1.62295e+59
          1122.09450	        -2.08068e+58
          1122.90080	        -5.17909e+58
          1123.70710	         9.59963e+58
          1124.51340	         8.23711e+58
          1125.31970	         3.51223e+58
          1126.12600	         5.60201e+57
          1126.93230	        -5.81330e+58
          1127.73860	        -2.03095e+58
          1128.54490	        -1.27295e+58
          1129.35120	        -1.49578e+58
          1130.15750	        -8.21892e+57
          1130.96380	        -1.27304e+58
          1131.77010	         7.10587e+58
          1132.57640	         4.34214e+58
          1133.38270	         1.51175e+58
          1134.18900	         2.71836e+58
          1134.99530	         2.09100e+58
          1135.80160	        -9.04257e+57
          1136.60790	        -1.44308e+58
          1137.41420	        -3.13712e+58
          1138.22050	         4.68254e+58
          1139.02680	         5.43446e+58
          1139.83310	         2.80316e+58
          1140.63940	         2.82046e+58
          1141.44570	        -8.88277e+57
          1142.25200	         8.04687e+56
          1143.05830	         2.57850e+58
          1143.86460	         2.50642e+58
          1144.67090	         2.42929e+58
          1145.47720	         2.31549e+58
          1146.28350	         1.31363e+58
          1147.08980	         1.06403e+58
          1147.89610	         1.45712e+58
          1148.70240	         1.81338e+58
          1149.50870	         2.23154e+58
          1150.31500	         1.31811e+58
          1151.12130	         1.14390e+58
          1151.92760	         1.25853e+57
          1152.73390	        -2.61002e+56
          1153.54020	         1.67947e+58
          1154.34650	         2.24065e+58
          1155.15280	         1.41718e+58
          1155.95910	         2.02714e+58
          1156.76540	         1.70187e+58
          1157.57170	         1.71267e+57
          1158.37800	         5.25003e+57
          1159.18430	         4.11360e+55
          1159.99060	         8.34864e+57
          1160.79690	        -2.95230e+57
          1161.60320	         6.11389e+57
          1162.40950	         1.29326e+58
          1163.21580	         2.15924e+58
          1164.02210	         1.48095e+58
          1164.82840	         1.06695e+58
          1165.63470	         1.46953e+58
          1166.44100	         3.12135e+58
          1167.24730	         2.21496e+58
          1168.05360	         9.91714e+57
          1168.85990	         1.37446e+58
          1169.66620	         1.54556e+58
          1170.47250	         1.18182e+58
          1171.27880	         8.35055e+57
          1172.08510	         1.15465e+58
          1172.89140	         1.06453e+58
          1173.69770	         4.44078e+57
          1174.50400	         1.28654e+58
          1175.31030	         1.45390e+58
          1176.11660	         1.40704e+58
          1176.92290	         1.73813e+58
          1177.72920	         1.14277e+58
          1178.53550	         4.40409e+57
          1179.34180	         1.86406e+57
          1180.14810	         3.97470e+57
          1180.95440	         1.20861e+58
          1181.76070	         6.24872e+57
          1182.56700	         7.90830e+57
          1183.37330	         8.07986e+57
          1184.17960	         9.96214e+57
          1184.98590	         1.26162e+58
          1185.79220	         1.05960e+58
          1186.59850	         1.49985e+58
          1187.40480	         1.26447e+58
          1188.21110	         1.14367e+58
          1189.01740	         1.16341e+58
          1189.82370	         1.35633e+58
          1190.63000	         1.20536e+58
          1191.43630	         1.59093e+58
          1192.24260	         7.43134e+57
          1193.04890	         9.07842e+57
          1193.85520	         9.84746e+57
          1194.66150	         6.77755e+57
          1195.46780	         7.91741e+57
          1196.27410	         1.04384e+58
          1197.08040	         7.88098e+57
          1197.88670	         1.00350e+58
          1198.69300	         1.26720e+58
          1199.49930	         1.56594e+58
          1200.30560	         1.33051e+58
          1201.11190	         1.45355e+58
          1201.91820	         1.09972e+58
          1202.72450	         9.88671e+57
          1203.53080	         1.47218e+58
          1204.33710	         9.09418e+57
          1205.14340	         9.96123e+57
          1205.94970	         6.98504e+57
          1206.75600	         8.64901e+57
          1207.56230	         7.27264e+57
          1208.36860	         9.64225e+57
          1209.17490	         4.06677e+57
          1209.98120	         7.01639e+57
          1210.78750	         1.04212e+58
          1211.59380	         9.33810e+57
          1212.40010	         1.91655e+58
          1213.20640	         2.07551e+58
          1214.01270	         1.96933e+58
          1214.81900	         2.21514e+58
          1215.62530	         4.26263e+58
          1216.43160	         9.25716e+58
          1217.23790	         1.54299e+59
          1218.04420	         1.11969e+59
          1218.85050	         8.75750e+58
          1219.65680	         5.79607e+58
          1220.46310	         3.08864e+58
          1221.26940	         2.14539e+58
          1222.07570	         1.21851e+58
          1222.88200	         9.67134e+57
          1223.68830	         1.01089e+58
          1224.49460	         8.22982e+57
          1225.30090	         4.94410e+57
          1226.10720	         6.29818e+57
          1226.91350	         3.24140e+57
          1227.71980	         5.35948e+57
          1228.52610	         1.20984e+58
          1229.33240	         9.89353e+57
          1230.13870	         1.00518e+58
          1230.94500	         1.06970e+58
          1231.75130	         6.84027e+57
          1232.55760	         7.90874e+57
          1233.36390	         9.17874e+57
          1234.17020	         1.03432e+58
          1234.97650	         7.86908e+57
          1235.78280	         9.10546e+57
          1236.58910	         1.14144e+58
          1237.39540	         1.08899e+58
          1238.20170	         9.90736e+57
          1239.00800	         1.05245e+58
          1239.81430	         1.40068e+58
          1240.62060	         9.52774e+57
          1241.42690	         7.60787e+57
          1242.23320	         1.08605e+58
          1243.03950	         6.84839e+57
          1243.84580	         7.05935e+57
          1244.65210	         9.13309e+57
          1245.45840	         8.33511e+57
          1246.26470	         6.56437e+57
          1247.07100	         6.30493e+57
          1247.87730	         4.52907e+57
          1248.68360	         3.06610e+57
          1249.48990	         6.85276e+57
          1250.29620	         8.95656e+57
          1251.10250	         6.34764e+57
          1251.90880	         5.34689e+57
          1252.71510	         5.90764e+57
          1253.52140	         4.87266e+57
          1254.32770	         8.82353e+57
          1255.13400	         1.19065e+58
          1255.94030	         1.09473e+58
          1256.74660	         9.62178e+57
          1257.55290	         1.11635e+58
          1258.35920	         1.11567e+58
          1259.16550	         5.75285e+57
          1259.97180	         4.56642e+57
          1260.77810	         8.16755e+57
          1261.58440	         1.19240e+58
          1262.39070	         8.85267e+57
          1263.19700	         8.02377e+57
          1264.00330	         9.68105e+57
          1264.80960	         9.69654e+57
          1265.61590	         1.21976e+58
          1266.42220	         1.10768e+58
          1267.22850	         1.17895e+58
          1268.03480	         1.49489e+58
          1268.84110	         1.45343e+58
          1269.64740	         1.42227e+58
          1270.45370	         1.36778e+58
          1271.26000	         1.05719e+58
          1272.06630	         9.34418e+57
          1272.87260	         1.09073e+58
          1273.67890	         1.19181e+58
          1274.48520	         1.19955e+58
          1275.29150	         1.28204e+58
          1276.09780	         1.39505e+58
          1276.90410	         1.60446e+58
          1277.71040	         1.23727e+58
          1278.51670	         1.15529e+58
          1279.32300	         1.49907e+58
          1280.12930	         1.29152e+58
          1280.93560	         1.19966e+58
          1281.74190	         1.27877e+58
          1282.54820	         1.36308e+58
          1283.35450	         1.22076e+58
          1284.16080	         1.13954e+58
          1284.96710	         1.38640e+58
          1285.77340	         1.30503e+58
          1286.57970	         1.19136e+58
          1287.38600	         1.41705e+58
          1288.19230	         1.49645e+58
          1288.99860	         1.40279e+58
          1289.80490	         1.20257e+58
          1290.61120	         1.37630e+58
          1291.41750	         1.59190e+58
          1292.22380	         1.18745e+58
          1293.03010	         9.82891e+57
          1293.83640	         1.09706e+58
          1294.64270	         9.03896e+57
          1295.44900	         6.82966e+57
          1296.25530	         7.12548e+57
          1297.06160	         9.52939e+57
          1297.86790	         1.08151e+58
          1298.67420	         1.14144e+58
          1299.48050	         1.18716e+58
          1300.28680	         1.05341e+58
          1301.09310	         7.84512e+57
          1301.89940	         4.08706e+57
          1302.70570	         5.91660e+57
          1303.51200	         7.56199e+57
          1304.31830	         8.41020e+57
          1305.12460	         9.55252e+57
          1305.93090	         1.20047e+58
          1306.73720	         1.29077e+58
          1307.54350	         1.48885e+58
          1308.34980	         1.56407e+58
          1309.15610	         1.44072e+58
          1309.96240	         1.44939e+58
          1310.76870	         1.36411e+58
          1311.57500	         1.16002e+58
          1312.38130	         1.36403e+58
          1313.18760	         1.41751e+58
          1313.99390	         1.43062e+58
          1314.80020	         1.45687e+58
          1315.60650	         1.52694e+58
          1316.41280	         1.33716e+58
          1317.21910	         1.08415e+58
          1318.02540	         1.17168e+58
          1318.83170	         1.33508e+58
          1319.63800	         1.41453e+58
          1320.44430	         1.34264e+58
          1321.25060	         1.25810e+58
          1322.05690	         1.33641e+58
          1322.86320	         1.26991e+58
          1323.66950	         1.06123e+58
          1324.47580	         8.83869e+57
          1325.28210	         9.65846e+57
          1326.08840	         9.94567e+57
          1326.89470	         1.21552e+58
          1327.70100	         1.11353e+58
          1328.50730	         9.21166e+57
          1329.31360	         1.10714e+58
          1330.11990	         1.00277e+58
          1330.92620	         1.04808e+58
          1331.73250	         1.20262e+58
          1332.53880	         1.07955e+58
          1333.34510	         9.09607e+57
          1334.15140	         8.89304e+57
          1334.95770	         8.83894e+57
          1335.76400	         1.13479e+58
          1336.57030	         1.18969e+58
          1337.37660	         9.29925e+57
          1338.18290	         8.68229e+57
          1338.98920	         1.02190e+58
          1339.79550	         1.16942e+58
          1340.60180	         1.17492e+58
          1341.40810	         1.19456e+58
          1342.21440	         1.00841e+58
          1343.02070	         1.18774e+58
          1343.82700	         1.49361e+58
          1344.63330	         1.42302e+58
          1345.43960	         1.41586e+58
          1346.24590	         1.06953e+58
          1347.05220	         1.17203e+58
          1347.85850	         1.08161e+58
          1348.66480	         1.15353e+58
          1349.47110	         1.38031e+58
          1350.27740	         1.21588e+58
          1351.08370	         1.21675e+58
          1351.89000	         1.17692e+58
          1352.69630	         1.11484e+58
          1353.50260	         1.15020e+58
          1354.30890	         1.18708e+58
          1355.11520	         1.19166e+58
          1355.92150	         1.05738e+58
          1356.72780	         9.31141e+57
          1357.53410	         9.37778e+57
          1358.34040	         1.09296e+58
          1359.14670	         1.19300e+58
          1359.95300	         1.19528e+58
          1360.75930	         1.20322e+58
          1361.56560	         1.16128e+58
          1362.37190	         1.17390e+58
          1363.17820	         1.09915e+58
          1363.98450	         1.21830e+58
          1364.79080	         1.28454e+58
          1365.59710	         1.23782e+58
          1366.40340	         1.19740e+58
          1367.20970	         1.00154e+58
          1368.01600	         9.31592e+57
          1368.82230	         1.02399e+58
          1369.62860	         1.05294e+58
          1370.43490	         9.37026e+57
          1371.24120	         9.35076e+57
          1372.04750	         9.01701e+57
          1372.85380	         1.06295e+58
          1373.66010	         1.07702e+58
          1374.46640	         1.12331e+58
          1375.27270	         1.23569e+58
          1376.07900	         1.06718e+58
          1376.88530	         9.62884e+57
          1377.69160	         9.53465e+57
          1378.49790	         7.75211e+57
          1379.30420	         7.15387e+57
          1380.11050	         8.63086e+57
          1380.91680	         8.88448e+57
          1381.72310	         8.20269e+57
          1382.52940	         8.33084e+57
          1383.33570	         9.42569e+57
          1384.14200	         1.07462e+58
          1384.94830	         1.05213e+58
          1385.75460	         9.51521e+57
          1386.56090	         1.04725e+58
          1387.36720	         1.15177e+58
          1388.17350	         1.34379e+58
          1388.97980	         1.10225e+58
          1389.78610	         8.20089e+57
          1390.59240	         8.28928e+57
          1391.39870	         7.41659e+57
          1392.20500	         8.86103e+57
          1393.01130	         7.70307e+57
          1393.81760	         6.49809e+57
          1394.62390	         7.50261e+57
          1395.43020	         6.51448e+57
          1396.23650	         6.07792e+57
          1397.04280	         5.92540e+57
          1397.84910	         7.89910e+57
          1398.65540	         9.13196e+57
          1399.46170	         9.73783e+57
          1400.26800	         9.10435e+57
          1401.07430	         8.84845e+57
          1401.88060	         8.08421e+57
          1402.68690	         9.43919e+57
          1403.49320	         9.63820e+57
          1404.29950	         7.95223e+57
          1405.10580	         8.51465e+57
          1405.91210	         9.95503e+57
          1406.71840	         1.05731e+58
          1407.52470	         1.06991e+58
          1408.33100	         9.71673e+57
          1409.13730	         1.11617e+58
          1409.94360	         1.34422e+58
          1410.74990	         1.23767e+58
          1411.55620	         9.98829e+57
          1412.36250	         9.85912e+57
          1413.16880	         1.03161e+58
          1413.97510	         9.49633e+57
          1414.78140	         9.37523e+57
          1415.58770	         1.10287e+58
          1416.39400	         1.18965e+58
          1417.20030	         1.09712e+58
          1418.00660	         1.04134e+58
          1418.81290	         1.03045e+58
          1419.61920	         9.66359e+57
          1420.42550	         1.08734e+58
          1421.23180	         1.38239e+58
          1422.03810	         1.24441e+58
          1422.84440	         1.14727e+58
          1423.65070	         1.21963e+58
          1424.45700	         9.82144e+57
          1425.26330	         7.62804e+57
          1426.06960	         9.59384e+57
          1426.87590	         1.12763e+58
          1427.68220	         1.04834e+58
          1428.48850	         1.02726e+58
          1429.29480	         1.14436e+58
          1430.10110	         1.14406e+58
          1430.90740	         9.32079e+57
          1431.71370	         8.76467e+57
          1432.52000	         9.36782e+57
          1433.32630	         8.12022e+57
          1434.13260	         7.60052e+57
          1434.93890	         7.12143e+57
          1435.74520	         8.45329e+57
          1436.55150	         1.00867e+58
          1437.35780	         9.24184e+57
          1438.16410	         8.64001e+57
          1438.97040	         8.83508e+57
          1439.77670	         8.63876e+57
          1440.58300	         9.23450e+57
          1441.38930	         9.46181e+57
          1442.19560	         9.19945e+57
          1443.00190	         9.36781e+57
          1443.80820	         9.49004e+57
          1444.61450	         9.49576e+57
          1445.42080	         8.87200e+57
          1446.22710	         1.02271e+58
          1447.03340	         1.01543e+58
          1447.83970	         1.08288e+58
          1448.64600	         1.00922e+58
          1449.45230	         9.74619e+57
          1450.25860	         1.05562e+58
          1451.06490	         9.55034e+57
          1451.87120	         7.41233e+57
          1452.67750	         6.90661e+57
          1453.48380	         8.66371e+57
          1454.29010	         8.87830e+57
          1455.09640	         8.51747e+57
          1455.90270	         8.94100e+57
          1456.70900	         9.03878e+57
          1457.51530	         1.00935e+58
          1458.32160	         1.17508e+58
          1459.12790	         1.13918e+58
          1459.93420	         9.78948e+57
          1460.74050	         8.99184e+57
          1461.54680	         9.37182e+57
          1462.35310	         8.96843e+57
          1463.15940	         1.02709e+58
          1463.96570	         1.19284e+58
          1464.77200	         1.14577e+58
          1465.57830	         1.05374e+58
          1466.38460	         9.04889e+57
          1467.19090	         8.80171e+57
          1467.99720	         9.26673e+57
          1468.80350	         1.09929e+58
          1469.60980	         1.06821e+58
          1470.41610	         9.91459e+57
          1471.22240	         9.74781e+57
          1472.02870	         1.01733e+58
          1472.83500	         1.00977e+58
          1473.64130	         9.90957e+57
          1474.44760	         9.62137e+57
          1475.25390	         9.77137e+57
          1476.06020	         8.93636e+57
          1476.86650	         8.28526e+57
          1477.67280	         8.29007e+57
          1478.47910	         7.50826e+57
          1479.28540	         6.94960e+57
          1480.09170	         8.12459e+57
          1480.89800	         9.02542e+57
          1481.70430	         8.99613e+57
          1482.51060	         8.50067e+57
          1483.31690	         7.24238e+57
          1484.12320	         6.22153e+57
          1484.92950	         7.15903e+57
          1485.73580	         8.32259e+57
          1486.54210	         9.31641e+57
          1487.34840	         9.25927e+57
          1488.15470	         8.26259e+57
          1488.96100	         8.62431e+57
          1489.76730	         9.13969e+57
          1490.57360	         8.47286e+57
          1491.37990	         7.60810e+57
          1492.18620	         7.73462e+57
          1492.99250	         8.80734e+57
          1493.79880	         8.95234e+57
          1494.60510	         8.19676e+57
          1495.41140	         7.15306e+57
          1496.21770	         8.23148e+57
          1497.02400	         9.97141e+57
          1497.83030	         8.76734e+57
          1498.63660	         7.45177e+57
          1499.44290	         7.13352e+57
          1500.24920	         7.13883e+57
          1501.05550	         8.15302e+57
          1501.86180	         8.64781e+57
          1502.66810	         9.47294e+57
          1503.47440	         9.02815e+57
          1504.28070	         8.10796e+57
          1505.08700	         8.91645e+57
          1505.89330	         9.55866e+57
          1506.69960	         8.52762e+57
          1507.50590	         7.85723e+57
          1508.31220	         8.00372e+57
          1509.11850	         8.09274e+57
          1509.92480	         9.22157e+57
          1510.73110	         9.03530e+57
          1511.53740	         7.92976e+57
          1512.34370	         7.83726e+57
          1513.15000	         9.10337e+57
          1513.95630	         9.92633e+57
          1514.76260	         8.83946e+57
          1515.56890	         7.97396e+57
          1516.37520	         8.44786e+57
          1517.18150	         8.08418e+57
          1517.98780	         7.25504e+57
          1518.79410	         7.49625e+57
          1519.60040	         7.76966e+57
          1520.40670	         9.35547e+57
          1521.21300	         9.35796e+57
          1522.01930	         8.36889e+57
          1522.82560	         1.03299e+58
          1523.63190	         1.04687e+58
          1524.43820	         7.61536e+57
          1525.24450	         6.04724e+57
          1526.05080	         6.28764e+57
          1526.85710	         6.55748e+57
          1527.66340	         7.55316e+57
          1528.46970	         8.29902e+57
          1529.27600	         8.03324e+57
          1530.08230	         7.86365e+57
          1530.88860	         7.77287e+57
          1531.69490	         8.75360e+57
          1532.50120	         9.03745e+57
          1533.30750	         9.89821e+57
          1534.11380	         9.76840e+57
          1534.92010	         9.46333e+57
          1535.72640	         9.86640e+57
          1536.53270	         9.67866e+57
          1537.33900	         9.15756e+57
          1538.14530	         8.77312e+57
          1538.95160	         9.04419e+57
          1539.75790	         9.08110e+57
          1540.56420	         8.64587e+57
          1541.37050	         9.05284e+57
          1542.17680	         8.21216e+57
          1542.98310	         7.48504e+57
          1543.78940	         7.97869e+57
          1544.59570	         7.29770e+57
          1545.40200	         8.39385e+57
          1546.20830	         9.00373e+57
          1547.01460	         1.05379e+58
          1547.82090	         1.15021e+58
          1548.62720	         1.25530e+58
          1549.43350	         1.24081e+58
          1550.23980	         1.14396e+58
          1551.04610	         1.21337e+58
          1551.85240	         1.23388e+58
          1552.65870	         1.20088e+58
          1553.46500	         1.11775e+58
          1554.27130	         9.73669e+57
          1555.07760	         9.57372e+57
          1555.88390	         8.94795e+57
          1556.69020	         9.38715e+57
          1557.49650	         9.57593e+57
          1558.30280	         8.88244e+57
          1559.10910	         8.78136e+57
          1559.91540	         9.62889e+57
          1560.72170	         9.79519e+57
          1561.52800	         9.27052e+57
          1562.33430	         9.01438e+57
          1563.14060	         8.21189e+57
          1563.94690	         8.40246e+57
          1564.75320	         8.78246e+57
          1565.55950	         7.80121e+57
          1566.36580	         7.09785e+57
          1567.17210	         9.12263e+57
          1567.97840	         8.56420e+57
          1568.78470	         8.26070e+57
          1569.59100	         9.00554e+57
          1570.39730	         8.72014e+57
          1571.20360	         7.64448e+57
          1572.00990	         7.75772e+57
          1572.81620	         8.98812e+57
          1573.62250	         9.22084e+57
          1574.42880	         8.56696e+57
          1575.23510	         7.89830e+57
          1576.04140	         8.42288e+57
          1576.84770	         9.36866e+57
          1577.65400	         8.23597e+57
          1578.46030	         9.11839e+57
          1579.26660	         1.03834e+58
          1580.07290	         9.26254e+57
          1580.87920	         7.96590e+57
          1581.68550	         7.35598e+57
          1582.49180	         7.83032e+57
          1583.29810	         7.04539e+57
          1584.10440	         7.24293e+57
          1584.91070	         8.20498e+57
          1585.71700	         7.94177e+57
          1586.52330	         7.65408e+57
          1587.32960	         8.43413e+57
          1588.13590	         8.93580e+57
          1588.94220	         8.23224e+57
          1589.74850	         8.96407e+57
          1590.55480	         9.06686e+57
          1591.36110	         8.56751e+57
          1592.16740	         8.64825e+57
          1592.97370	         8.07727e+57
          1593.78000	         8.86420e+57
          1594.58630	         9.65155e+57
          1595.39260	         8.35810e+57
          1596.19890	         8.75593e+57
          1597.00520	         9.50007e+57
          1597.81150	         8.60881e+57
          1598.61780	         6.56765e+57
          1599.42410	         6.27486e+57
          1600.23040	         6.85120e+57
          1601.03670	         7.94345e+57
          1601.84300	         7.56676e+57
          1602.64930	         8.31259e+57
          1603.45560	         9.48677e+57
          1604.26190	         8.73975e+57
          1605.06820	         7.93476e+57
          1605.87450	         6.42556e+57
          1606.68080	         7.14663e+57
          1607.48710	         6.65502e+57
          1608.29340	         6.00540e+57
          1609.09970	         6.52657e+57
          1609.90600	         7.49657e+57
          1610.71230	         7.11013e+57
          1611.51860	         6.65210e+57
          1612.32490	         7.07072e+57
          1613.13120	         7.06261e+57
          1613.93750	         7.36764e+57
          1614.74380	         8.37405e+57
          1615.55010	         8.86200e+57
          1616.35640	         9.95908e+57
          1617.16270	         1.14330e+58
          1617.96900	         1.06972e+58
          1618.77530	         8.53160e+57
          1619.58160	         8.99455e+57
          1620.38790	         8.05728e+57
          1621.19420	         9.17725e+57
          1622.00050	         9.15560e+57
          1622.80680	         7.66044e+57
          1623.61310	         8.40060e+57
          1624.41940	         9.03915e+57
          1625.22570	         8.56860e+57
          1626.03200	         8.77214e+57
          1626.83830	         8.99128e+57
          1627.64460	         7.94279e+57
          1628.45090	         7.16503e+57
          1629.25720	         8.30219e+57
          1630.06350	         9.49750e+57
          1630.86980	         7.78780e+57
          1631.67610	         8.30019e+57
          1632.48240	         7.77322e+57
          1633.28870	         6.37640e+57
          1634.09500	         9.26314e+57
          1634.90130	         1.23412e+58
          1635.70760	         8.80510e+57
          1636.51390	         6.20723e+57
          1637.32020	         6.78242e+57
          1638.12650	         9.22600e+57
          1638.93280	         9.60119e+57
          1639.73910	         1.01215e+58
          1640.54540	         1.02778e+58
          1641.35170	         8.68362e+57
          1642.15800	         9.22163e+57
          1642.96430	         8.74398e+57
          1643.77060	         7.90316e+57
          1644.57690	         8.26767e+57
          1645.38320	         8.14377e+57
          1646.18950	         7.24353e+57
          1646.99580	         8.37594e+57
          1647.80210	         8.48030e+57
          1648.60840	         7.73015e+57
          1649.41470	         8.74641e+57
          1650.22100	         7.62728e+57
          1651.02730	         6.77776e+57
          1651.83360	         7.44962e+57
          1652.63990	         7.96580e+57
          1653.44620	         9.18437e+57
          1654.25250	         8.91594e+57
          1655.05880	         7.70868e+57
          1655.86510	         8.68559e+57
          1656.67140	         9.26845e+57
          1657.47770	         8.42921e+57
          1658.28400	         8.35542e+57
          1659.09030	         8.55663e+57
          1659.89660	         9.31405e+57
          1660.70290	         9.08557e+57
          1661.50920	         8.78226e+57
          1662.31550	         8.91800e+57
          1663.12180	         8.64461e+57
          1663.92810	         9.47565e+57
          1664.73440	         1.04522e+58
          1665.54070	         1.22299e+58
          1666.34700	         1.30365e+58
          1667.15330	         1.20206e+58
          1667.95960	         1.01927e+58
          1668.76590	         7.94073e+57
          1669.57220	         7.28268e+57
          1670.37850	         7.68650e+57
          1671.18480	         8.22737e+57
          1671.99110	         8.15465e+57
          1672.79740	         7.08895e+57
          1673.60370	         6.81310e+57
          1674.41000	         7.06717e+57
          1675.21630	         7.29708e+57
          1676.02260	         6.69887e+57
          1676.82890	         7.02936e+57
          1677.63520	         8.06270e+57
          1678.44150	         7.61451e+57
          1679.24780	         8.23917e+57
          1680.05410	         7.53483e+57
          1680.86040	         5.05095e+57
          1681.66670	         5.30799e+57
          1682.47300	         7.02031e+57
          1683.27930	         8.81995e+57
          1684.08560	         8.90170e+57
          1684.89190	         7.80173e+57
          1685.69820	         6.13748e+57
          1686.50450	         5.45139e+57
          1687.31080	         6.35750e+57
          1688.11710	         7.42133e+57
          1688.92340	         7.27083e+57
          1689.72970	         6.16155e+57
          1690.53600	         5.50811e+57
          1691.34230	         7.10758e+57
          1692.14860	         8.32928e+57
          1692.95490	         7.60436e+57
          1693.76120	         6.59473e+57
          1694.56750	         7.01292e+57
          1695.37380	         8.50647e+57
          1696.18010	         8.59081e+57
          1696.98640	         8.52593e+57
          1697.79270	         9.07177e+57
          1698.59900	         8.76644e+57
          1699.40530	         8.11353e+57
          1700.21160	         8.23933e+57
          1701.01790	         8.95567e+57
          1701.82420	         7.86047e+57
          1702.63050	         7.94308e+57
          1703.43680	         7.49070e+57
          1704.24310	         7.80643e+57
          1705.04940	         7.18045e+57
          1705.85570	         6.18010e+57
          1706.66200	         8.81297e+57
          1707.46830	         9.41072e+57
          1708.27460	         8.27182e+57
          1709.08090	         6.67931e+57
          1709.88720	         6.21893e+57
          1710.69350	         6.23425e+57
          1711.49980	         6.37834e+57
          1712.30610	         6.81323e+57
          1713.11240	         7.90823e+57
          1713.91870	         8.02499e+57
          1714.72500	         7.94812e+57
          1715.53130	         8.44116e+57
          1716.33760	         7.61757e+57
          1717.14390	         7.34896e+57
          1717.95020	         8.22594e+57
          1718.75650	         9.31270e+57
          1719.56280	         8.89025e+57
          1720.36910	         7.95530e+57
          1721.17540	         7.86315e+57
          1721.98170	         7.43048e+57
          1722.78800	         6.70264e+57
          1723.59430	         7.06973e+57
          1724.40060	         8.38247e+57
          1725.20690	         7.71057e+57
          1726.01320	         7.39010e+57
          1726.81950	         7.48418e+57
          1727.62580	         7.43962e+57
          1728.43210	         6.69182e+57
          1729.23840	         6.82032e+57
          1730.04470	         8.60362e+57
          1730.85100	         8.41168e+57
          1731.65730	         8.05161e+57
          1732.46360	         7.44305e+57
          1733.26990	         7.01219e+57
          1734.07620	         7.43052e+57
          1734.88250	         7.38437e+57
          1735.68880	         7.00253e+57
          1736.49510	         7.96718e+57
          1737.30140	         7.60645e+57
          1738.10770	         6.58048e+57
          1738.91400	         7.33952e+57
          1739.72030	         7.20766e+57
          1740.52660	         6.01967e+57
          1741.33290	         5.97717e+57
          1742.13920	         6.19486e+57
          1742.94550	         6.35201e+57
          1743.75180	         7.30314e+57
          1744.55810	         7.42116e+57
          1745.36440	         7.08624e+57
          1746.17070	         6.30910e+57
          1746.97700	         5.44136e+57
          1747.78330	         6.07520e+57
          1748.58960	         6.05049e+57
          1749.39590	         6.22461e+57
          1750.20220	         6.41828e+57
          1751.00850	         6.20285e+57
          1751.81480	         6.33298e+57
          1752.62110	         7.10675e+57
          1753.42740	         7.91290e+57
          1754.23370	         7.30083e+57
          1755.04000	         7.22880e+57
          1755.84630	         7.66508e+57
          1756.65260	         8.64036e+57
          1757.45890	         7.85184e+57
          1758.26520	         6.23680e+57
          1759.07150	         7.94652e+57
          1759.87780	         8.27669e+57
          1760.68410	         7.20125e+57
          1761.49040	         8.25408e+57
          1762.29670	         6.52633e+57
          1763.10300	         6.58241e+57
          1763.90930	         7.38118e+57
          1764.71560	         7.98808e+57
          1765.52190	         8.75099e+57
          1766.32820	         9.43698e+57
          1767.13450	         8.98681e+57
          1767.94080	         6.22762e+57
          1768.74710	         6.49922e+57
          1769.55340	         6.59093e+57
          1770.35970	         5.34175e+57
          1771.16600	         7.21750e+57
          1771.97230	         8.13838e+57
          1772.77860	         7.63436e+57
          1773.58490	         7.75812e+57
          1774.39120	         5.84906e+57
          1775.19750	         5.90641e+57
          1776.00380	         6.43437e+57
          1776.81010	         6.07884e+57
          1777.61640	         6.37953e+57
          1778.42270	         7.34632e+57
          1779.22900	         6.97351e+57
          1780.03530	         6.65331e+57
          1780.84160	         7.43034e+57
          1781.64790	         8.49033e+57
          1782.45420	         7.51220e+57
          1783.26050	         7.26165e+57
          1784.06680	         6.73439e+57
          1784.87310	         7.22341e+57
          1785.67940	         7.83927e+57
          1786.48570	         6.32281e+57
          1787.29200	         6.07028e+57
          1788.09830	         5.86381e+57
          1788.90460	         5.20456e+57
          1789.71090	         4.97239e+57
          1790.51720	         4.77428e+57
          1791.32350	         6.24822e+57
          1792.12980	         8.51964e+57
          1792.93610	         8.64131e+57
          1793.74240	         7.32040e+57
          1794.54870	         8.12633e+57
          1795.35500	         9.25748e+57
          1796.16130	         8.06533e+57
          1796.96760	         6.41003e+57
          1797.77390	         6.55928e+57
          1798.58020	         7.12493e+57
          1799.38650	         7.05184e+57
          1800.19280	         7.30470e+57
          1800.99910	         7.96599e+57
          1801.80540	         7.72683e+57
          1802.61170	         8.25042e+57
          1803.41800	         7.73969e+57
          1804.22430	         6.45131e+57
          1805.03060	         6.93989e+57
          1805.83690	         8.34398e+57
          1806.64320	         8.10567e+57
          1807.44950	         7.80482e+57
          1808.25580	         7.03945e+57
          1809.06210	         8.44033e+57
          1809.86840	         7.56716e+57
          1810.67470	         6.79087e+57
          1811.48100	         9.11392e+57
          1812.28730	         8.37979e+57
          1813.09360	         6.58311e+57
          1813.89990	         7.46452e+57
          1814.70620	         7.67680e+57
          1815.51250	         7.62288e+57
          1816.31880	         7.51624e+57
          1817.12510	         7.16796e+57
          1817.93140	         6.45377e+57
          1818.73770	         7.23510e+57
          1819.54400	         7.84758e+57
          1820.35030	         8.03608e+57
          1821.15660	         6.18593e+57
          1821.96290	         6.37619e+57
          1822.76920	         7.36951e+57
          1823.57550	         7.46596e+57
          1824.38180	         6.84306e+57
          1825.18810	         7.06630e+57
          1825.99440	         8.27422e+57
          1826.80070	         7.40642e+57
          1827.60700	         6.53888e+57
          1828.41330	         5.31170e+57
          1829.21960	         5.77190e+57
          1830.02590	         7.18099e+57
          1830.83220	         7.82014e+57
          1831.63850	         7.42101e+57
          1832.44480	         6.77867e+57
          1833.25110	         8.43980e+57
          1834.05740	         8.60527e+57
          1834.86370	         7.58257e+57
          1835.67000	         6.08298e+57
          1836.47630	         7.61778e+57
          1837.28260	         8.75703e+57
          1838.08890	         9.54347e+57
          1838.89520	         9.02539e+57
          1839.70150	         7.97727e+57
          1840.50780	         7.77096e+57
          1841.31410	         7.53717e+57
          1842.12040	         7.26066e+57
          1842.92670	         6.70998e+57
          1843.73300	         7.17254e+57
          1844.53930	         6.40579e+57
          1845.34560	         5.56718e+57
          1846.15190	         6.91621e+57
          1846.95820	         7.23527e+57
          1847.76450	         6.92504e+57
          1848.57080	         6.18548e+57
          1849.37710	         7.37864e+57
          1850.18340	         7.85431e+57
          1850.98970	         7.93592e+57
          1851.79600	         8.29404e+57
          1852.60230	         7.72310e+57
          1853.40860	         7.03768e+57
          1854.21490	         6.13685e+57
          1855.02120	         5.60446e+57
          1855.82750	         5.02784e+57
          1856.63380	         7.10964e+57
          1857.44010	         8.11230e+57
          1858.24640	         6.79868e+57
          1859.05270	         7.32092e+57
          1859.85900	         4.94131e+57
          1860.66530	         4.45059e+57
          1861.47160	         6.92304e+57
          1862.27790	         6.70535e+57
          1863.08420	         7.40824e+57
          1863.89050	         8.07345e+57
          1864.69680	         7.81357e+57
          1865.50310	         7.62685e+57
          1866.30940	         6.64704e+57
          1867.11570	         7.06962e+57
          1867.92200	         7.09183e+57
          1868.72830	         7.06035e+57
          1869.53460	         6.84146e+57
          1870.34090	         6.70854e+57
          1871.14720	         7.21151e+57
          1871.95350	         6.86320e+57
          1872.75980	         7.20341e+57
          1873.56610	         7.07223e+57
          1874.37240	         5.80131e+57
          1875.17870	         5.83976e+57
          1875.98500	         7.08825e+57
          1876.79130	         7.62555e+57
          1877.59760	         6.55655e+57
          1878.40390	         5.98567e+57
          1879.21020	         6.31002e+57
          1880.01650	         7.42765e+57
          1880.82280	         7.75384e+57
          1881.62910	         8.83188e+57
          1882.43540	         9.34932e+57
          1883.24170	         7.58000e+57
          1884.04800	         6.07750e+57
          1884.85430	         7.50122e+57
          1885.66060	         7.98593e+57
          1886.46690	         8.05663e+57
          1887.27320	         7.67696e+57
          1888.07950	         6.75912e+57
          1888.88580	         6.77561e+57
          1889.69210	         8.11592e+57
          1890.49840	         8.93349e+57
          1891.30470	         8.64284e+57
          1892.11100	         7.99095e+57
          1892.91730	         8.45749e+57
          1893.72360	         8.81709e+57
          1894.52990	         7.05903e+57
          1895.33620	         6.94158e+57
          1896.14250	         7.71368e+57
          1896.94880	         7.72808e+57
          1897.75510	         5.73246e+57
          1898.56140	         6.94948e+57
          1899.36770	         7.44917e+57
          1900.17400	         6.21991e+57
          1900.98030	         6.35234e+57
          1901.78660	         7.46434e+57
          1902.59290	         7.33869e+57
          1903.39920	         8.56915e+57
          1904.20550	         8.08207e+57
          1905.01180	         8.01766e+57
          1905.81810	         9.90560e+57
          1906.62440	         1.19610e+58
          1907.43070	         1.46133e+58
          1908.23700	         1.59294e+58
          1909.04330	         1.27125e+58
          1909.84960	         1.03736e+58
          1910.65590	         9.29549e+57
          1911.46220	         8.75298e+57
          1912.26850	         7.92072e+57
          1913.07480	         6.33211e+57
          1913.88110	         5.35710e+57
          1914.68740	         5.12785e+57
          1915.49370	         4.96176e+57
          1916.30000	         5.35489e+57
          1917.10630	         6.27674e+57
          1917.91260	         6.55382e+57
          1918.71890	         6.38406e+57
          1919.52520	         5.98480e+57
          1920.33150	         6.54086e+57
          1921.13780	         6.88700e+57
          1921.94410	         8.11448e+57
          1922.75040	         8.42985e+57
          1923.55670	         8.23375e+57
          1924.36300	         6.89350e+57
          1925.16930	         5.61140e+57
          1925.97560	         6.27407e+57
          1926.78190	         6.11135e+57
          1927.58820	         7.11571e+57
          1928.39450	         6.38173e+57
          1929.20080	         5.29835e+57
          1930.00710	         6.78870e+57
          1930.81340	         9.00129e+57
          1931.61970	         7.45036e+57
          1932.42600	         8.03985e+57
          1933.23230	         9.25766e+57
          1934.03860	         7.62001e+57
          1934.84490	         5.99812e+57
          1935.65120	         8.20452e+57
          1936.45750	         1.00200e+58
          1937.26380	         6.38217e+57
          1938.07010	         6.56180e+57
          1938.87640	         7.32688e+57
          1939.68270	         7.52325e+57
          1940.48900	         8.69054e+57
          1941.29530	         8.85403e+57
          1942.10160	         7.50758e+57
          1942.90790	         6.53966e+57
          1943.71420	         6.46516e+57
          1944.52050	         5.90800e+57
          1945.32680	         5.67712e+57
          1946.13310	         7.51299e+57
          1946.93940	         8.88798e+57
          1947.74570	         7.65841e+57
          1948.55200	         7.09402e+57
          1949.35830	         6.72488e+57
          1950.16460	         5.63570e+57
          1950.97090	         6.54731e+57
          1951.77720	         7.58497e+57
          1952.58350	         8.51980e+57
          1953.38980	         7.25623e+57
          1954.19610	         4.90538e+57
          1955.00240	         4.98922e+57
          1955.80870	         5.70924e+57
          1956.61500	         5.74487e+57
          1957.42130	         5.68685e+57
          1958.22760	         5.55850e+57
          1959.03390	         6.62420e+57
          1959.84020	         7.50325e+57
          1960.64650	         7.25119e+57
          1961.45280	         7.18964e+57
          1962.25910	         6.56446e+57
          1963.06540	         5.67549e+57
          1963.87170	         5.37425e+57
          1964.67800	         8.19802e+57
          1965.48430	         7.01252e+57
          1966.29060	         7.03200e+57
          1967.09690	         7.78949e+57
          1967.90320	         6.33035e+57
          1968.70950	         7.07631e+57
          1969.51580	         7.68839e+57
          1970.32210	         6.99187e+57
          1971.12840	         6.65201e+57
          1971.93470	         4.48919e+57
          1972.74100	         5.54592e+57
          1973.54730	         6.68148e+57
          1974.35360	         6.85350e+57
          1975.15990	         7.89564e+57
          1975.96620	         7.13208e+57
          1976.77250	         7.19499e+57
          1977.57880	         7.34301e+57
          1978.38510	         6.76518e+57
          1979.19140	         6.14563e+57
          1979.99770	         6.95361e+57
          1980.80400	         7.86168e+57
          1981.61030	         7.22905e+57
          1982.41660	         6.00966e+57
          1983.22290	         5.86548e+57
          1984.02920	         5.24289e+57
          1984.83550	         5.31217e+57
          1985.64180	         6.41087e+57
          1986.44810	         6.95598e+57
          1987.25440	         6.55195e+57
          1988.06070	         6.13572e+57
          1988.86700	         6.22508e+57
          1989.67330	         6.73567e+57
          1990.47960	         6.65940e+57
          1991.28590	         6.06449e+57
          1992.09220	         6.17120e+57
          1992.89850	         6.47979e+57
          1993.70480	         5.56307e+57
          1994.51110	         4.82517e+57
          1995.31740	         4.88341e+57
          1996.12370	         5.05722e+57
          1996.93000	         5.98987e+57
          1997.73630	         7.46582e+57
          1998.54260	         7.82862e+57
          1999.34890	         6.26519e+57
          2000.15520	         6.76468e+57
          2000.96150	         7.21911e+57
          2001.76780	         6.00695e+57
          2002.57410	         4.95957e+57
          2003.38040	         6.13095e+57
          2004.18670	         6.96836e+57
          2004.99300	         6.45009e+57
          2005.79930	         7.10422e+57
          2006.60560	         6.58764e+57
          2007.41190	         5.98027e+57
          2008.21820	         6.60382e+57
          2009.02450	         6.94192e+57
          2009.83080	         5.51370e+57
          2010.63710	         6.03287e+57
          2011.44340	         7.09953e+57
          2012.24970	         6.53599e+57
          2013.05600	         6.89303e+57
          2013.86230	         5.91228e+57
          2014.66860	         6.20691e+57
          2015.47490	         6.67627e+57
          2016.28120	         6.26364e+57
          2017.08750	         6.02981e+57
          2017.89380	         6.23909e+57
          2018.70010	         5.69873e+57
          2019.50640	         6.06247e+57
          2020.31270	         5.80053e+57
          2021.11900	         6.60950e+57
          2021.92530	         6.59542e+57
          2022.73160	         7.14183e+57
          2023.53790	         6.63658e+57
          2024.34420	         6.55529e+57
          2025.15050	         5.91848e+57
          2025.95680	         5.70297e+57
          2026.76310	         5.45622e+57
          2027.56940	         5.68801e+57
          2028.37570	         6.59487e+57
          2029.18200	         6.41508e+57
          2029.98830	         6.78246e+57
          2030.79460	         6.77300e+57
          2031.60090	         6.04602e+57
          2032.40720	         5.52852e+57
          2033.21350	         6.03378e+57
          2034.01980	         5.87545e+57
          2034.82610	         3.99943e+57
          2035.63240	         4.65819e+57
          2036.43870	         5.20442e+57
          2037.24500	         6.10383e+57
          2038.05130	         7.00404e+57
          2038.85760	         6.39433e+57
          2039.66390	         6.70018e+57
          2040.47020	         5.71959e+57
          2041.27650	         6.54679e+57
          2042.08280	         4.95425e+57
          2042.88910	         4.56760e+57
          2043.69540	         5.26856e+57
          2044.50170	         6.03060e+57
          2045.30800	         6.04734e+57
          2046.11430	         5.37386e+57
          2046.92060	         5.74161e+57
          2047.72690	         5.85489e+57
          2048.53320	         6.02973e+57
          2049.33950	         5.69495e+57
          2050.14580	         4.72248e+57
          2050.95210	         5.31561e+57
          2051.75840	         6.36139e+57
          2052.56470	         5.22874e+57
          2053.37100	         4.66561e+57
          2054.17730	         5.23159e+57
          2054.98360	         5.28338e+57
          2055.78990	         2.94800e+57
          2056.59620	         2.85858e+57
          2057.40250	         4.65579e+57
          2058.20880	         7.11128e+57
          2059.01510	         5.58478e+57
          2059.82140	         6.97949e+57
          2060.62770	         1.06264e+58
          2061.43400	         1.60152e+58
          2062.24030	         1.35076e+58
          2063.04660	         2.92186e+57
          2063.85290	        -9.87457e+56
          2064.65920	        -4.42837e+57
          2065.46550	        -9.24151e+57
          2066.27180	        -9.30692e+57
          2067.07810	         2.23956e+57
          2067.88440	         5.23802e+57
          2068.69070	         5.91136e+57
          2069.49700	         4.78926e+57
          2070.30330	         4.21114e+57
          2071.10960	         5.88728e+57
          2071.91590	         7.28693e+57
          2072.72220	         3.94719e+57
          2073.52850	         4.90872e+57
          2074.33480	         5.59506e+57
          2075.14110	         4.33879e+57
          2075.94740	         4.71509e+57
          2076.75370	         3.61918e+57
          2077.56000	         4.89815e+57
          2078.36630	         5.74980e+57
          2079.17260	         5.79477e+57
          2079.97890	         6.35422e+57
          2080.78520	         4.95640e+57
          2081.59150	         4.63627e+57
          2082.39780	         3.97405e+57
          2083.20410	         2.64734e+57
          2084.01040	         2.25314e+57
          2084.81670	         2.50636e+57
          2085.62300	         3.32585e+57
          2086.42930	         3.49564e+57
          2087.23560	         3.18237e+57
          2088.04190	         5.15759e+57
          2088.84820	         5.99778e+57
          2089.65450	         3.14144e+57
          2090.46080	         2.78596e+57
          2091.26710	         2.51984e+57
          2092.07340	         2.26397e+57
          2092.87970	         3.42081e+57
          2093.68600	         2.87878e+56
          2094.49230	        -2.52418e+56
          2095.29860	         4.96523e+57
          2096.10490	         3.05566e+57
          2096.91120	         2.89113e+57
          2097.71750	         2.66801e+57
          2098.52380	         2.38618e+56
          2099.33010	         2.55422e+57
          2100.13640	         1.47610e+57
          2100.94270	         3.61782e+57
          2101.74900	         4.23078e+57
          2102.55530	         2.67898e+57
          2103.36160	         2.28175e+57
          2104.16790	         3.87087e+57
          2104.97420	         3.53633e+57
          2105.78050	         6.19805e+56
          2106.58680	        -5.05401e+56
          2107.39310	        -1.11857e+57
          2108.19940	        -5.90334e+55
          2109.00570	        -7.17663e+56
          2109.81200	         2.71971e+53
          2110.61830	         1.90903e+57
          2111.42460	         6.31896e+56
          2112.23090	         1.20381e+57
          2113.03720	        -1.34543e+57
          2113.84350	        -1.06511e+57
          2114.64980	         2.99019e+57
          2115.45610	        -1.55908e+57
          2116.26240	        -6.78616e+57
          2117.06870	        -1.47568e+57
          2117.87500	        -2.09471e+57
          2118.68130	        -8.68146e+56
          2119.48760	         1.35490e+56
          2120.29390	        -4.32102e+57
          2121.10020	        -5.79320e+57
          2121.90650	        -9.60080e+56
          2122.71280	         1.48515e+57
          2123.51910	         2.55119e+57
          2124.32540	         2.66814e+57
          2125.13170	        -1.98604e+57
          2125.93800	         1.18967e+57
          2126.74430	         4.36109e+57
          2127.55060	        -4.63903e+57
          2128.35690	        -3.62512e+57
          2129.16320	         6.33645e+56
          2129.96950	        -4.98993e+57
          2130.77580	        -1.97721e+57
          2131.58210	        -5.99996e+56
          2132.38840	        -1.67363e+57
          2133.19470	         1.40676e+57
          2134.00100	         3.71229e+57
          2134.80730	        -2.49128e+57
          2135.61360	         6.55966e+57
          2136.41990	        -1.20514e+57
          2137.22620	        -6.79149e+57
          2138.03250	         2.27032e+57
          2138.83880	        -2.16323e+57
          2139.64510	        -1.84190e+56
          2140.45140	        -4.37393e+57
          2141.25770	        -9.35727e+57
          2142.06400	        -4.86006e+57
          2142.87030	        -2.56898e+57
          2143.67660	         1.00230e+58
          2144.48290	         1.09089e+58
          2145.28920	         1.48298e+58
          2146.09550	        -9.89823e+57
          2146.90180	        -9.80991e+57
          2147.70810	         2.63791e+57
          2148.51440	         2.58195e+57
          2149.32070	        -1.84984e+57
          2150.12700	        -1.77287e+57
          2150.93330	        -6.94185e+57
          2151.73960	        -7.01821e+57
          2152.54590	         4.03846e+57
          2153.35220	         2.26318e+57
          2154.15850	        -4.43020e+57
          2154.96480	        -3.64802e+57
          2155.77110	        -4.30527e+57
          2156.57740	        -1.43656e+58
          2157.38370	        -4.59663e+57
          2158.19000	        -9.34632e+56
          2158.99630	        -5.92372e+57
          2159.80260	        -1.63899e+58
          2160.60890	        -1.17435e+58
          2161.41520	        -2.65432e+57
          2162.22150	         2.23072e+57
          2163.02780	        -2.32097e+57
          2163.83410	        -8.99351e+57
          2164.64040	        -1.08140e+58
          2165.44670	        -2.06390e+58
          2166.25300	        -2.71337e+57
          2167.05930	         5.26418e+57
          2167.86560	        -1.18741e+58
          2168.67190	        -1.04770e+58
          2169.47820	        -3.65381e+57
          2170.28450	        -9.73098e+57
          2171.09080	        -4.37355e+57
          2171.89710	        -3.14965e+57
          2172.70340	         1.90153e+57
          2173.50970	        -6.06679e+57
          2174.31600	        -7.64598e+57
          2175.12230	        -3.99039e+57
          2175.92860	        -6.14039e+57
          2176.73490	        -3.91277e+57
          2177.54120	        -7.26978e+57
          2178.34750	        -3.61450e+57
          2179.15380	                 nan
          2179.96010	                 nan
          2180.76640	                 nan
          2181.57270	                 nan
          2182.37900	                 nan
          2183.18530	                 nan
          2183.99160	                 nan
          2184.79790	                 nan
          2185.60420	                 nan
          2186.41050	                 nan
          2187.21680	                 nan
          2188.02310	                 nan
          2188.82940	                 nan
          2189.63570	                 nan
          2190.44200	                 nan
          2191.24830	                 nan
          2192.05460	                 nan
          2192.86090	                 nan
          2193.66720	                 nan
          2194.47350	                 nan
          2195.27980	                 nan
          2196.08610	                 nan
          2196.89240	                 nan
          2197.69870	                 nan
          2198.50500	                 nan
          2199.31130	                 nan
          2200.11760	                 nan
          2200.92390	                 nan
          2201.73020	                 nan
          2202.53650	                 nan
          2203.34280	                 nan
          2204.14910	                 nan
          2204.95540	                 nan
          2205.76170	                 nan
          2206.56800	                 nan
          2207.37430	                 nan
          2208.18060	                 nan
          2208.98690	                 nan
          2209.79320	                 nan
          2210.59950	                 nan
          2211.40580	                 nan
          2212.21210	                 nan
          2213.01840	                 nan
          2213.82470	                 nan
          2214.63100	                 nan
          2215.43730	         0.00000e+00
