#sample_291_stacked_spectrum_rest_UV-bands_median_H-alpha_noDC.txt
#median Lum: 1.66632e+42
#Rest-frame wavelength (A) | Luminosity (erg/s/A)
#
          1110.00000	         0.00000e+00
          1110.80630	         2.79636e+59
          1111.61260	         2.76686e+59
          1112.41890	         1.16587e+59
          1113.22520	        -1.45980e+59
          1114.03150	        -5.21768e+57
          1114.83780	         1.97820e+59
          1115.64410	         5.61019e+58
          1116.45040	        -5.58681e+58
          1117.25670	        -5.56139e+58
          1118.06300	         2.96666e+58
          1118.86930	         4.36058e+58
          1119.67560	         7.24499e+58
          1120.48190	        -1.15073e+57
          1121.28820	        -6.36024e+58
          1122.09450	        -8.72417e+58
          1122.90080	        -4.54828e+58
          1123.70710	         5.69694e+58
          1124.51340	         1.13074e+59
          1125.31970	         3.50714e+58
          1126.12600	         2.14527e+58
          1126.93230	        -1.21422e+58
          1127.73860	        -5.16360e+58
          1128.54490	        -1.19617e+58
          1129.35120	         1.73383e+58
          1130.15750	        -2.53161e+58
          1130.96380	        -6.25338e+58
          1131.77010	         4.89870e+58
          1132.57640	         3.62182e+58
          1133.38270	         7.91789e+57
          1134.18900	         1.37006e+58
          1134.99530	        -8.80694e+57
          1135.80160	         1.55831e+58
          1136.60790	         2.42797e+58
          1137.41420	         1.12456e+58
          1138.22050	         3.75887e+58
          1139.02680	         2.91866e+58
          1139.83310	         2.37152e+58
          1140.63940	         2.15244e+58
          1141.44570	        -1.15744e+58
          1142.25200	        -1.95833e+58
          1143.05830	         2.65640e+58
          1143.86460	         3.71371e+58
          1144.67090	         4.56423e+58
          1145.47720	         2.03245e+58
          1146.28350	         6.36108e+57
          1147.08980	         2.67081e+57
          1147.89610	         1.83709e+58
          1148.70240	         4.78470e+58
          1149.50870	         3.70693e+58
          1150.31500	         1.54271e+58
          1151.12130	         9.20887e+57
          1151.92760	        -1.86414e+57
          1152.73390	         3.74163e+56
          1153.54020	        -1.33464e+57
          1154.34650	         1.24420e+58
          1155.15280	         2.06253e+58
          1155.95910	         7.11696e+57
          1156.76540	         1.42837e+57
          1157.57170	        -7.32073e+57
          1158.37800	        -6.19423e+57
          1159.18430	         8.18058e+57
          1159.99060	         7.37940e+57
          1160.79690	         1.43342e+58
          1161.60320	         1.74717e+58
          1162.40950	         1.30033e+58
          1163.21580	         2.49618e+58
          1164.02210	         1.95052e+57
          1164.82840	         1.21191e+58
          1165.63470	         1.44662e+58
          1166.44100	         2.76297e+58
          1167.24730	         2.45480e+58
          1168.05360	         1.00791e+58
          1168.85990	         3.24929e+57
          1169.66620	         1.00334e+58
          1170.47250	         1.56462e+58
          1171.27880	         1.16445e+58
          1172.08510	         8.96343e+57
          1172.89140	         6.13242e+57
          1173.69770	         6.87988e+57
          1174.50400	         6.18234e+57
          1175.31030	         8.84847e+57
          1176.11660	         1.54644e+58
          1176.92290	         1.30535e+58
          1177.72920	         6.96489e+57
          1178.53550	         6.99027e+57
          1179.34180	         6.87823e+57
          1180.14810	         1.27569e+58
          1180.95440	         1.08839e+58
          1181.76070	         7.91646e+57
          1182.56700	         8.32624e+57
          1183.37330	         8.07445e+57
          1184.17960	         1.12350e+58
          1184.98590	         8.73199e+57
          1185.79220	         4.42191e+57
          1186.59850	         1.48823e+58
          1187.40480	         1.35455e+58
          1188.21110	         7.94336e+57
          1189.01740	         9.47629e+57
          1189.82370	         1.37134e+58
          1190.63000	         1.22540e+58
          1191.43630	         1.72528e+58
          1192.24260	         7.97738e+57
          1193.04890	         1.14140e+58
          1193.85520	         1.61856e+58
          1194.66150	         8.77292e+57
          1195.46780	         8.95000e+57
          1196.27410	         1.33837e+58
          1197.08040	         1.03957e+58
          1197.88670	         1.45310e+58
          1198.69300	         1.58703e+58
          1199.49930	         1.89514e+58
          1200.30560	         1.52092e+58
          1201.11190	         1.29292e+58
          1201.91820	         8.24097e+57
          1202.72450	         5.35948e+57
          1203.53080	         1.42465e+58
          1204.33710	         7.34353e+57
          1205.14340	         5.21469e+57
          1205.94970	         5.81468e+57
          1206.75600	         6.64573e+57
          1207.56230	         9.66955e+57
          1208.36860	         8.97164e+57
          1209.17490	         3.56506e+57
          1209.98120	         7.98541e+57
          1210.78750	         1.22825e+58
          1211.59380	         1.53357e+58
          1212.40010	         1.80743e+58
          1213.20640	         2.09610e+58
          1214.01270	         2.21678e+58
          1214.81900	         2.61281e+58
          1215.62530	         4.22145e+58
          1216.43160	         8.85921e+58
          1217.23790	         1.49093e+59
          1218.04420	         1.08712e+59
          1218.85050	         8.50794e+58
          1219.65680	         5.96612e+58
          1220.46310	         3.13197e+58
          1221.26940	         1.98593e+58
          1222.07570	         1.10139e+58
          1222.88200	         9.45477e+57
          1223.68830	         8.07077e+57
          1224.49460	         7.82731e+57
          1225.30090	         6.84555e+57
          1226.10720	         4.50002e+57
          1226.91350	         4.96771e+57
          1227.71980	         8.37017e+57
          1228.52610	         1.29166e+58
          1229.33240	         1.07710e+58
          1230.13870	         9.26866e+57
          1230.94500	         8.18483e+57
          1231.75130	         6.05547e+57
          1232.55760	         7.60538e+57
          1233.36390	         9.97023e+57
          1234.17020	         1.30331e+58
          1234.97650	         8.62828e+57
          1235.78280	         6.88219e+57
          1236.58910	         8.49229e+57
          1237.39540	         1.19719e+58
          1238.20170	         1.20964e+58
          1239.00800	         1.04718e+58
          1239.81430	         1.26939e+58
          1240.62060	         1.00769e+58
          1241.42690	         1.00686e+58
          1242.23320	         1.12982e+58
          1243.03950	         8.18340e+57
          1243.84580	         8.16390e+57
          1244.65210	         1.03497e+58
          1245.45840	         9.20256e+57
          1246.26470	         6.44984e+57
          1247.07100	         6.50217e+57
          1247.87730	         7.44608e+57
          1248.68360	         7.43931e+57
          1249.48990	         7.35424e+57
          1250.29620	         1.20203e+58
          1251.10250	         1.12215e+58
          1251.90880	         6.92364e+57
          1252.71510	         4.56661e+57
          1253.52140	         4.68122e+57
          1254.32770	         7.74444e+57
          1255.13400	         1.26977e+58
          1255.94030	         1.15810e+58
          1256.74660	         1.02694e+58
          1257.55290	         1.05334e+58
          1258.35920	         9.64379e+57
          1259.16550	         7.67379e+57
          1259.97180	         6.21394e+57
          1260.77810	         1.02630e+58
          1261.58440	         1.16469e+58
          1262.39070	         8.61221e+57
          1263.19700	         6.11336e+57
          1264.00330	         6.32926e+57
          1264.80960	         9.29171e+57
          1265.61590	         1.22027e+58
          1266.42220	         1.27756e+58
          1267.22850	         1.10228e+58
          1268.03480	         1.18541e+58
          1268.84110	         1.45679e+58
          1269.64740	         1.31841e+58
          1270.45370	         1.24614e+58
          1271.26000	         1.17534e+58
          1272.06630	         1.14450e+58
          1272.87260	         1.18344e+58
          1273.67890	         1.38854e+58
          1274.48520	         1.45058e+58
          1275.29150	         1.45339e+58
          1276.09780	         1.24957e+58
          1276.90410	         1.26570e+58
          1277.71040	         1.41306e+58
          1278.51670	         1.23849e+58
          1279.32300	         1.14569e+58
          1280.12930	         1.27733e+58
          1280.93560	         1.09255e+58
          1281.74190	         1.06536e+58
          1282.54820	         1.17519e+58
          1283.35450	         1.07936e+58
          1284.16080	         1.10116e+58
          1284.96710	         1.42374e+58
          1285.77340	         1.17419e+58
          1286.57970	         9.46857e+57
          1287.38600	         1.35826e+58
          1288.19230	         1.49466e+58
          1288.99860	         1.50985e+58
          1289.80490	         1.16518e+58
          1290.61120	         1.34196e+58
          1291.41750	         1.50827e+58
          1292.22380	         1.33027e+58
          1293.03010	         1.12920e+58
          1293.83640	         1.20355e+58
          1294.64270	         1.16129e+58
          1295.44900	         6.80392e+57
          1296.25530	         6.95747e+57
          1297.06160	         9.28181e+57
          1297.86790	         9.80352e+57
          1298.67420	         8.98794e+57
          1299.48050	         9.15526e+57
          1300.28680	         9.80655e+57
          1301.09310	         8.17739e+57
          1301.89940	         3.86517e+57
          1302.70570	         6.13415e+57
          1303.51200	         7.99478e+57
          1304.31830	         1.02944e+58
          1305.12460	         1.15211e+58
          1305.93090	         1.05895e+58
          1306.73720	         1.17006e+58
          1307.54350	         1.26849e+58
          1308.34980	         1.53276e+58
          1309.15610	         1.74332e+58
          1309.96240	         1.64690e+58
          1310.76870	         1.35388e+58
          1311.57500	         9.79984e+57
          1312.38130	         9.93004e+57
          1313.18760	         1.42469e+58
          1313.99390	         1.53931e+58
          1314.80020	         1.38424e+58
          1315.60650	         1.32586e+58
          1316.41280	         1.04382e+58
          1317.21910	         1.03202e+58
          1318.02540	         1.13771e+58
          1318.83170	         1.22343e+58
          1319.63800	         1.22139e+58
          1320.44430	         1.10416e+58
          1321.25060	         1.18906e+58
          1322.05690	         1.31617e+58
          1322.86320	         1.24842e+58
          1323.66950	         1.05747e+58
          1324.47580	         7.86528e+57
          1325.28210	         9.57672e+57
          1326.08840	         1.18513e+58
          1326.89470	         1.21623e+58
          1327.70100	         1.09228e+58
          1328.50730	         8.40619e+57
          1329.31360	         9.24875e+57
          1330.11990	         1.11574e+58
          1330.92620	         9.65310e+57
          1331.73250	         9.91513e+57
          1332.53880	         9.41368e+57
          1333.34510	         9.29825e+57
          1334.15140	         8.90018e+57
          1334.95770	         7.01779e+57
          1335.76400	         8.60801e+57
          1336.57030	         1.01918e+58
          1337.37660	         9.94415e+57
          1338.18290	         1.01873e+58
          1338.98920	         1.13569e+58
          1339.79550	         1.14777e+58
          1340.60180	         1.21452e+58
          1341.40810	         1.30080e+58
          1342.21440	         1.11470e+58
          1343.02070	         1.12816e+58
          1343.82700	         1.28327e+58
          1344.63330	         1.18436e+58
          1345.43960	         1.28757e+58
          1346.24590	         1.19090e+58
          1347.05220	         1.19343e+58
          1347.85850	         1.13922e+58
          1348.66480	         1.26464e+58
          1349.47110	         1.27499e+58
          1350.27740	         1.03822e+58
          1351.08370	         1.07498e+58
          1351.89000	         1.19591e+58
          1352.69630	         1.23256e+58
          1353.50260	         1.19876e+58
          1354.30890	         1.14369e+58
          1355.11520	         1.13050e+58
          1355.92150	         9.72840e+57
          1356.72780	         9.49212e+57
          1357.53410	         1.01046e+58
          1358.34040	         1.15315e+58
          1359.14670	         1.09050e+58
          1359.95300	         1.05235e+58
          1360.75930	         1.11482e+58
          1361.56560	         1.09319e+58
          1362.37190	         1.13317e+58
          1363.17820	         1.02623e+58
          1363.98450	         1.16113e+58
          1364.79080	         1.22340e+58
          1365.59710	         1.11415e+58
          1366.40340	         1.16045e+58
          1367.20970	         9.76785e+57
          1368.01600	         1.05895e+58
          1368.82230	         1.04412e+58
          1369.62860	         1.08543e+58
          1370.43490	         9.92496e+57
          1371.24120	         8.17193e+57
          1372.04750	         9.03486e+57
          1372.85380	         1.02823e+58
          1373.66010	         1.02278e+58
          1374.46640	         9.34209e+57
          1375.27270	         9.58127e+57
          1376.07900	         8.45386e+57
          1376.88530	         8.47667e+57
          1377.69160	         9.38011e+57
          1378.49790	         6.76738e+57
          1379.30420	         7.41714e+57
          1380.11050	         8.78656e+57
          1380.91680	         8.19368e+57
          1381.72310	         6.38832e+57
          1382.52940	         6.87605e+57
          1383.33570	         8.66993e+57
          1384.14200	         8.18251e+57
          1384.94830	         8.82300e+57
          1385.75460	         9.22014e+57
          1386.56090	         1.02117e+58
          1387.36720	         1.02546e+58
          1388.17350	         1.12610e+58
          1388.97980	         1.00470e+58
          1389.78610	         7.43800e+57
          1390.59240	         6.29092e+57
          1391.39870	         6.02055e+57
          1392.20500	         7.76203e+57
          1393.01130	         8.56975e+57
          1393.81760	         8.22061e+57
          1394.62390	         8.34921e+57
          1395.43020	         6.93760e+57
          1396.23650	         7.46435e+57
          1397.04280	         8.42875e+57
          1397.84910	         9.82160e+57
          1398.65540	         9.63423e+57
          1399.46170	         9.61037e+57
          1400.26800	         9.05923e+57
          1401.07430	         7.50125e+57
          1401.88060	         7.52797e+57
          1402.68690	         9.22088e+57
          1403.49320	         1.00604e+58
          1404.29950	         8.86779e+57
          1405.10580	         9.64892e+57
          1405.91210	         1.13749e+58
          1406.71840	         1.09246e+58
          1407.52470	         1.09368e+58
          1408.33100	         1.05021e+58
          1409.13730	         1.07352e+58
          1409.94360	         1.04606e+58
          1410.74990	         1.05618e+58
          1411.55620	         9.11437e+57
          1412.36250	         9.19056e+57
          1413.16880	         9.54475e+57
          1413.97510	         7.81902e+57
          1414.78140	         8.23127e+57
          1415.58770	         9.90408e+57
          1416.39400	         9.33922e+57
          1417.20030	         9.23122e+57
          1418.00660	         9.80475e+57
          1418.81290	         8.84868e+57
          1419.61920	         9.05872e+57
          1420.42550	         1.33179e+58
          1421.23180	         1.33629e+58
          1422.03810	         1.30655e+58
          1422.84440	         1.21006e+58
          1423.65070	         1.28561e+58
          1424.45700	         1.21800e+58
          1425.26330	         8.48964e+57
          1426.06960	         7.79821e+57
          1426.87590	         8.91163e+57
          1427.68220	         9.42933e+57
          1428.48850	         1.04000e+58
          1429.29480	         1.13545e+58
          1430.10110	         1.01965e+58
          1430.90740	         8.00500e+57
          1431.71370	         8.22563e+57
          1432.52000	         8.51380e+57
          1433.32630	         7.17993e+57
          1434.13260	         7.73785e+57
          1434.93890	         8.09524e+57
          1435.74520	         8.19019e+57
          1436.55150	         9.90986e+57
          1437.35780	         9.37193e+57
          1438.16410	         8.06804e+57
          1438.97040	         8.29804e+57
          1439.77670	         8.71144e+57
          1440.58300	         8.75987e+57
          1441.38930	         9.16206e+57
          1442.19560	         9.87783e+57
          1443.00190	         9.30748e+57
          1443.80820	         8.71379e+57
          1444.61450	         9.03142e+57
          1445.42080	         7.88007e+57
          1446.22710	         9.32823e+57
          1447.03340	         1.07391e+58
          1447.83970	         1.06978e+58
          1448.64600	         1.10007e+58
          1449.45230	         1.04463e+58
          1450.25860	         9.91327e+57
          1451.06490	         9.10838e+57
          1451.87120	         7.73127e+57
          1452.67750	         6.94497e+57
          1453.48380	         9.17593e+57
          1454.29010	         8.13688e+57
          1455.09640	         6.64584e+57
          1455.90270	         7.51854e+57
          1456.70900	         8.19467e+57
          1457.51530	         9.24515e+57
          1458.32160	         1.10299e+58
          1459.12790	         1.08129e+58
          1459.93420	         9.85711e+57
          1460.74050	         8.32939e+57
          1461.54680	         7.59777e+57
          1462.35310	         6.70123e+57
          1463.15940	         8.58145e+57
          1463.96570	         1.04303e+58
          1464.77200	         9.59898e+57
          1465.57830	         9.47831e+57
          1466.38460	         8.72032e+57
          1467.19090	         9.24895e+57
          1467.99720	         9.59779e+57
          1468.80350	         9.64259e+57
          1469.60980	         9.69970e+57
          1470.41610	         9.12259e+57
          1471.22240	         8.25106e+57
          1472.02870	         8.21532e+57
          1472.83500	         9.75071e+57
          1473.64130	         9.37313e+57
          1474.44760	         8.87371e+57
          1475.25390	         9.51875e+57
          1476.06020	         8.71414e+57
          1476.86650	         7.86612e+57
          1477.67280	         8.42302e+57
          1478.47910	         7.51405e+57
          1479.28540	         7.24615e+57
          1480.09170	         9.24421e+57
          1480.89800	         8.42916e+57
          1481.70430	         7.33038e+57
          1482.51060	         7.34359e+57
          1483.31690	         7.88222e+57
          1484.12320	         8.34335e+57
          1484.92950	         7.79153e+57
          1485.73580	         8.54756e+57
          1486.54210	         9.65158e+57
          1487.34840	         9.00010e+57
          1488.15470	         7.71780e+57
          1488.96100	         7.67101e+57
          1489.76730	         8.54025e+57
          1490.57360	         8.01598e+57
          1491.37990	         7.00731e+57
          1492.18620	         7.85838e+57
          1492.99250	         7.92148e+57
          1493.79880	         7.77588e+57
          1494.60510	         6.81623e+57
          1495.41140	         6.85859e+57
          1496.21770	         8.78159e+57
          1497.02400	         9.94274e+57
          1497.83030	         8.46064e+57
          1498.63660	         7.08344e+57
          1499.44290	         6.88308e+57
          1500.24920	         7.01372e+57
          1501.05550	         7.91350e+57
          1501.86180	         8.34160e+57
          1502.66810	         9.01846e+57
          1503.47440	         8.80477e+57
          1504.28070	         9.07528e+57
          1505.08700	         9.67830e+57
          1505.89330	         8.94832e+57
          1506.69960	         8.16800e+57
          1507.50590	         8.07936e+57
          1508.31220	         7.82581e+57
          1509.11850	         8.56651e+57
          1509.92480	         8.78558e+57
          1510.73110	         8.61263e+57
          1511.53740	         7.40011e+57
          1512.34370	         6.27435e+57
          1513.15000	         8.78850e+57
          1513.95630	         9.69594e+57
          1514.76260	         7.75714e+57
          1515.56890	         7.82107e+57
          1516.37520	         9.69017e+57
          1517.18150	         8.49316e+57
          1517.98780	         7.48052e+57
          1518.79410	         6.42905e+57
          1519.60040	         8.08750e+57
          1520.40670	         8.66966e+57
          1521.21300	         8.40110e+57
          1522.01930	         8.32257e+57
          1522.82560	         8.81530e+57
          1523.63190	         1.04488e+58
          1524.43820	         9.43079e+57
          1525.24450	         6.35218e+57
          1526.05080	         5.55566e+57
          1526.85710	         5.58542e+57
          1527.66340	         6.10206e+57
          1528.46970	         7.67104e+57
          1529.27600	         7.90949e+57
          1530.08230	         8.21621e+57
          1530.88860	         7.57182e+57
          1531.69490	         7.66527e+57
          1532.50120	         8.62754e+57
          1533.30750	         8.84630e+57
          1534.11380	         9.52062e+57
          1534.92010	         9.90636e+57
          1535.72640	         8.95292e+57
          1536.53270	         8.24476e+57
          1537.33900	         7.66397e+57
          1538.14530	         8.94173e+57
          1538.95160	         9.34124e+57
          1539.75790	         8.46684e+57
          1540.56420	         8.20082e+57
          1541.37050	         8.27639e+57
          1542.17680	         8.06301e+57
          1542.98310	         6.96999e+57
          1543.78940	         7.25079e+57
          1544.59570	         6.97157e+57
          1545.40200	         7.65896e+57
          1546.20830	         9.24039e+57
          1547.01460	         1.01646e+58
          1547.82090	         1.11272e+58
          1548.62720	         1.25625e+58
          1549.43350	         1.21925e+58
          1550.23980	         1.09451e+58
          1551.04610	         1.26064e+58
          1551.85240	         1.28546e+58
          1552.65870	         1.15695e+58
          1553.46500	         9.72830e+57
          1554.27130	         8.96444e+57
          1555.07760	         8.95509e+57
          1555.88390	         8.98826e+57
          1556.69020	         9.76673e+57
          1557.49650	         1.00931e+58
          1558.30280	         9.27793e+57
          1559.10910	         8.61842e+57
          1559.91540	         8.49017e+57
          1560.72170	         7.68744e+57
          1561.52800	         7.64808e+57
          1562.33430	         8.71668e+57
          1563.14060	         7.84572e+57
          1563.94690	         7.99881e+57
          1564.75320	         8.07237e+57
          1565.55950	         6.92939e+57
          1566.36580	         7.25821e+57
          1567.17210	         8.95028e+57
          1567.97840	         9.01770e+57
          1568.78470	         8.21462e+57
          1569.59100	         8.73532e+57
          1570.39730	         8.68132e+57
          1571.20360	         7.74471e+57
          1572.00990	         7.36055e+57
          1572.81620	         8.04744e+57
          1573.62250	         9.98862e+57
          1574.42880	         8.94565e+57
          1575.23510	         7.76215e+57
          1576.04140	         9.44674e+57
          1576.84770	         9.69667e+57
          1577.65400	         9.24957e+57
          1578.46030	         9.52711e+57
          1579.26660	         9.21331e+57
          1580.07290	         8.72148e+57
          1580.87920	         7.27675e+57
          1581.68550	         7.12541e+57
          1582.49180	         8.45645e+57
          1583.29810	         7.86702e+57
          1584.10440	         8.26234e+57
          1584.91070	         8.43761e+57
          1585.71700	         9.67780e+57
          1586.52330	         9.95439e+57
          1587.32960	         8.24803e+57
          1588.13590	         7.65171e+57
          1588.94220	         8.34530e+57
          1589.74850	         9.32178e+57
          1590.55480	         9.09435e+57
          1591.36110	         8.20612e+57
          1592.16740	         7.53094e+57
          1592.97370	         7.61223e+57
          1593.78000	         8.44798e+57
          1594.58630	         8.67071e+57
          1595.39260	         8.07591e+57
          1596.19890	         8.19070e+57
          1597.00520	         8.76653e+57
          1597.81150	         8.34753e+57
          1598.61780	         7.64315e+57
          1599.42410	         7.15778e+57
          1600.23040	         6.67189e+57
          1601.03670	         7.88569e+57
          1601.84300	         7.75277e+57
          1602.64930	         7.64050e+57
          1603.45560	         8.37721e+57
          1604.26190	         9.11567e+57
          1605.06820	         8.95562e+57
          1605.87450	         7.54048e+57
          1606.68080	         6.59706e+57
          1607.48710	         6.33901e+57
          1608.29340	         5.48710e+57
          1609.09970	         7.05705e+57
          1609.90600	         7.80633e+57
          1610.71230	         6.73950e+57
          1611.51860	         5.99275e+57
          1612.32490	         6.25451e+57
          1613.13120	         7.84459e+57
          1613.93750	         8.44334e+57
          1614.74380	         7.98612e+57
          1615.55010	         7.70462e+57
          1616.35640	         8.77311e+57
          1617.16270	         9.91009e+57
          1617.96900	         8.93111e+57
          1618.77530	         8.14225e+57
          1619.58160	         8.84402e+57
          1620.38790	         8.31449e+57
          1621.19420	         8.37194e+57
          1622.00050	         7.95815e+57
          1622.80680	         8.55272e+57
          1623.61310	         8.81577e+57
          1624.41940	         8.34887e+57
          1625.22570	         8.61440e+57
          1626.03200	         8.55178e+57
          1626.83830	         8.87616e+57
          1627.64460	         7.85283e+57
          1628.45090	         6.04498e+57
          1629.25720	         8.63563e+57
          1630.06350	         9.29702e+57
          1630.86980	         5.99926e+57
          1631.67610	         7.80317e+57
          1632.48240	         8.67645e+57
          1633.28870	         7.45145e+57
          1634.09500	         8.37393e+57
          1634.90130	         1.04643e+58
          1635.70760	         9.51943e+57
          1636.51390	         6.42793e+57
          1637.32020	         7.46570e+57
          1638.12650	         9.71735e+57
          1638.93280	         1.01928e+58
          1639.73910	         1.04283e+58
          1640.54540	         1.02818e+58
          1641.35170	         8.51229e+57
          1642.15800	         8.42645e+57
          1642.96430	         8.21233e+57
          1643.77060	         8.28137e+57
          1644.57690	         7.98851e+57
          1645.38320	         7.86281e+57
          1646.18950	         6.85288e+57
          1646.99580	         8.55328e+57
          1647.80210	         8.65726e+57
          1648.60840	         7.43066e+57
          1649.41470	         8.26801e+57
          1650.22100	         7.24992e+57
          1651.02730	         7.03494e+57
          1651.83360	         7.01637e+57
          1652.63990	         7.35903e+57
          1653.44620	         7.71033e+57
          1654.25250	         7.47804e+57
          1655.05880	         8.13128e+57
          1655.86510	         8.31777e+57
          1656.67140	         7.96037e+57
          1657.47770	         8.10596e+57
          1658.28400	         7.92051e+57
          1659.09030	         9.24534e+57
          1659.89660	         9.41745e+57
          1660.70290	         9.99743e+57
          1661.50920	         8.98723e+57
          1662.31550	         7.56505e+57
          1663.12180	         8.37533e+57
          1663.92810	         1.00837e+58
          1664.73440	         9.78321e+57
          1665.54070	         1.07574e+58
          1666.34700	         1.23676e+58
          1667.15330	         1.18443e+58
          1667.95960	         9.56126e+57
          1668.76590	         8.12743e+57
          1669.57220	         6.83489e+57
          1670.37850	         7.27219e+57
          1671.18480	         8.45796e+57
          1671.99110	         7.75748e+57
          1672.79740	         7.65271e+57
          1673.60370	         6.77423e+57
          1674.41000	         7.14862e+57
          1675.21630	         6.72308e+57
          1676.02260	         6.19808e+57
          1676.82890	         6.65341e+57
          1677.63520	         6.82049e+57
          1678.44150	         6.78559e+57
          1679.24780	         8.21915e+57
          1680.05410	         7.81216e+57
          1680.86040	         6.11090e+57
          1681.66670	         6.49196e+57
          1682.47300	         8.32187e+57
          1683.27930	         8.72388e+57
          1684.08560	         9.23818e+57
          1684.89190	         8.85496e+57
          1685.69820	         6.28636e+57
          1686.50450	         5.36916e+57
          1687.31080	         6.96826e+57
          1688.11710	         7.83410e+57
          1688.92340	         6.38604e+57
          1689.72970	         6.44585e+57
          1690.53600	         6.40386e+57
          1691.34230	         6.91570e+57
          1692.14860	         7.35524e+57
          1692.95490	         7.49721e+57
          1693.76120	         6.76406e+57
          1694.56750	         6.89072e+57
          1695.37380	         8.10133e+57
          1696.18010	         8.36467e+57
          1696.98640	         8.00253e+57
          1697.79270	         7.74706e+57
          1698.59900	         7.72583e+57
          1699.40530	         7.71331e+57
          1700.21160	         7.61932e+57
          1701.01790	         7.33918e+57
          1701.82420	         7.04343e+57
          1702.63050	         7.49291e+57
          1703.43680	         6.80993e+57
          1704.24310	         6.88388e+57
          1705.04940	         7.86124e+57
          1705.85570	         8.19007e+57
          1706.66200	         7.56093e+57
          1707.46830	         7.95010e+57
          1708.27460	         7.61016e+57
          1709.08090	         6.96400e+57
          1709.88720	         5.85299e+57
          1710.69350	         5.98838e+57
          1711.49980	         6.63412e+57
          1712.30610	         7.64321e+57
          1713.11240	         7.90977e+57
          1713.91870	         7.09870e+57
          1714.72500	         8.19173e+57
          1715.53130	         8.83332e+57
          1716.33760	         7.86678e+57
          1717.14390	         6.87100e+57
          1717.95020	         7.18081e+57
          1718.75650	         8.29713e+57
          1719.56280	         8.35177e+57
          1720.36910	         7.17767e+57
          1721.17540	         6.58292e+57
          1721.98170	         6.54569e+57
          1722.78800	         6.40490e+57
          1723.59430	         6.69387e+57
          1724.40060	         7.93729e+57
          1725.20690	         8.22409e+57
          1726.01320	         8.11628e+57
          1726.81950	         7.09172e+57
          1727.62580	         5.90715e+57
          1728.43210	         6.65299e+57
          1729.23840	         7.35447e+57
          1730.04470	         7.59046e+57
          1730.85100	         8.55402e+57
          1731.65730	         7.78304e+57
          1732.46360	         7.98125e+57
          1733.26990	         7.70888e+57
          1734.07620	         7.26695e+57
          1734.88250	         7.92016e+57
          1735.68880	         8.39223e+57
          1736.49510	         8.18419e+57
          1737.30140	         6.99667e+57
          1738.10770	         6.20331e+57
          1738.91400	         7.27728e+57
          1739.72030	         7.49624e+57
          1740.52660	         5.77307e+57
          1741.33290	         5.05378e+57
          1742.13920	         6.00428e+57
          1742.94550	         8.11282e+57
          1743.75180	         7.72964e+57
          1744.55810	         8.06286e+57
          1745.36440	         7.11807e+57
          1746.17070	         5.35713e+57
          1746.97700	         5.26143e+57
          1747.78330	         6.31591e+57
          1748.58960	         6.91422e+57
          1749.39590	         6.57225e+57
          1750.20220	         6.53213e+57
          1751.00850	         5.75461e+57
          1751.81480	         6.22534e+57
          1752.62110	         7.41450e+57
          1753.42740	         7.82412e+57
          1754.23370	         6.96342e+57
          1755.04000	         7.51478e+57
          1755.84630	         7.28729e+57
          1756.65260	         8.32830e+57
          1757.45890	         7.74583e+57
          1758.26520	         6.58570e+57
          1759.07150	         8.81152e+57
          1759.87780	         8.57275e+57
          1760.68410	         8.17887e+57
          1761.49040	         8.73096e+57
          1762.29670	         6.46187e+57
          1763.10300	         6.40867e+57
          1763.90930	         7.11795e+57
          1764.71560	         7.22641e+57
          1765.52190	         6.74986e+57
          1766.32820	         7.33954e+57
          1767.13450	         7.37389e+57
          1767.94080	         5.79964e+57
          1768.74710	         6.12774e+57
          1769.55340	         7.07302e+57
          1770.35970	         6.14094e+57
          1771.16600	         6.42745e+57
          1771.97230	         7.69263e+57
          1772.77860	         7.84878e+57
          1773.58490	         7.13817e+57
          1774.39120	         5.32738e+57
          1775.19750	         5.33635e+57
          1776.00380	         6.02834e+57
          1776.81010	         6.14430e+57
          1777.61640	         6.41031e+57
          1778.42270	         6.83805e+57
          1779.22900	         6.71712e+57
          1780.03530	         5.87285e+57
          1780.84160	         7.20226e+57
          1781.64790	         8.17399e+57
          1782.45420	         7.42669e+57
          1783.26050	         6.48009e+57
          1784.06680	         6.67426e+57
          1784.87310	         7.08356e+57
          1785.67940	         7.46364e+57
          1786.48570	         7.54700e+57
          1787.29200	         6.57298e+57
          1788.09830	         7.04360e+57
          1788.90460	         6.65158e+57
          1789.71090	         5.77379e+57
          1790.51720	         6.09226e+57
          1791.32350	         7.17681e+57
          1792.12980	         8.28691e+57
          1792.93610	         8.29149e+57
          1793.74240	         7.56411e+57
          1794.54870	         7.58872e+57
          1795.35500	         7.32698e+57
          1796.16130	         7.70216e+57
          1796.96760	         6.92113e+57
          1797.77390	         6.46821e+57
          1798.58020	         7.99991e+57
          1799.38650	         6.91984e+57
          1800.19280	         5.91957e+57
          1800.99910	         7.51949e+57
          1801.80540	         7.38507e+57
          1802.61170	         8.25819e+57
          1803.41800	         7.79830e+57
          1804.22430	         6.27577e+57
          1805.03060	         6.03721e+57
          1805.83690	         7.56822e+57
          1806.64320	         7.55050e+57
          1807.44950	         6.91484e+57
          1808.25580	         6.96676e+57
          1809.06210	         7.50949e+57
          1809.86840	         7.15184e+57
          1810.67470	         8.03853e+57
          1811.48100	         8.95567e+57
          1812.28730	         8.41624e+57
          1813.09360	         6.42323e+57
          1813.89990	         7.02142e+57
          1814.70620	         7.93861e+57
          1815.51250	         8.95571e+57
          1816.31880	         7.70801e+57
          1817.12510	         6.72423e+57
          1817.93140	         6.32250e+57
          1818.73770	         6.73844e+57
          1819.54400	         8.76469e+57
          1820.35030	         9.11335e+57
          1821.15660	         6.52029e+57
          1821.96290	         7.08854e+57
          1822.76920	         8.30547e+57
          1823.57550	         7.78797e+57
          1824.38180	         7.47369e+57
          1825.18810	         7.09360e+57
          1825.99440	         7.73552e+57
          1826.80070	         7.96404e+57
          1827.60700	         6.56529e+57
          1828.41330	         5.49585e+57
          1829.21960	         6.43146e+57
          1830.02590	         6.70290e+57
          1830.83220	         7.56406e+57
          1831.63850	         7.34094e+57
          1832.44480	         7.07553e+57
          1833.25110	         7.74663e+57
          1834.05740	         8.64765e+57
          1834.86370	         6.93350e+57
          1835.67000	         5.93972e+57
          1836.47630	         7.49023e+57
          1837.28260	         8.55463e+57
          1838.08890	         8.83809e+57
          1838.89520	         8.05283e+57
          1839.70150	         7.52929e+57
          1840.50780	         7.54230e+57
          1841.31410	         6.98415e+57
          1842.12040	         6.44734e+57
          1842.92670	         6.85355e+57
          1843.73300	         7.68354e+57
          1844.53930	         6.56309e+57
          1845.34560	         6.46034e+57
          1846.15190	         6.50540e+57
          1846.95820	         6.19254e+57
          1847.76450	         6.20003e+57
          1848.57080	         5.85550e+57
          1849.37710	         6.68510e+57
          1850.18340	         8.54623e+57
          1850.98970	         7.55691e+57
          1851.79600	         7.38470e+57
          1852.60230	         7.51764e+57
          1853.40860	         7.35491e+57
          1854.21490	         6.99719e+57
          1855.02120	         5.90890e+57
          1855.82750	         4.14422e+57
          1856.63380	         5.35028e+57
          1857.44010	         6.12598e+57
          1858.24640	         7.36071e+57
          1859.05270	         7.14701e+57
          1859.85900	         5.92357e+57
          1860.66530	         6.64914e+57
          1861.47160	         7.62785e+57
          1862.27790	         7.26510e+57
          1863.08420	         6.58795e+57
          1863.89050	         7.75782e+57
          1864.69680	         7.87476e+57
          1865.50310	         7.96534e+57
          1866.30940	         6.04574e+57
          1867.11570	         6.04095e+57
          1867.92200	         6.83402e+57
          1868.72830	         6.96858e+57
          1869.53460	         6.31426e+57
          1870.34090	         6.94260e+57
          1871.14720	         6.89614e+57
          1871.95350	         6.42681e+57
          1872.75980	         6.78116e+57
          1873.56610	         6.36416e+57
          1874.37240	         5.71689e+57
          1875.17870	         5.49757e+57
          1875.98500	         7.38240e+57
          1876.79130	         7.35360e+57
          1877.59760	         7.27887e+57
          1878.40390	         6.23093e+57
          1879.21020	         6.46246e+57
          1880.01650	         6.80708e+57
          1880.82280	         7.51784e+57
          1881.62910	         9.17043e+57
          1882.43540	         1.02302e+58
          1883.24170	         8.15005e+57
          1884.04800	         6.36702e+57
          1884.85430	         7.51052e+57
          1885.66060	         7.80952e+57
          1886.46690	         7.60646e+57
          1887.27320	         7.19396e+57
          1888.07950	         6.21789e+57
          1888.88580	         6.91561e+57
          1889.69210	         8.25260e+57
          1890.49840	         7.95655e+57
          1891.30470	         7.15533e+57
          1892.11100	         8.57635e+57
          1892.91730	         9.02768e+57
          1893.72360	         8.51659e+57
          1894.52990	         6.73486e+57
          1895.33620	         7.42703e+57
          1896.14250	         7.01331e+57
          1896.94880	         5.90856e+57
          1897.75510	         5.15867e+57
          1898.56140	         6.07629e+57
          1899.36770	         8.65994e+57
          1900.17400	         7.35185e+57
          1900.98030	         6.26251e+57
          1901.78660	         6.68136e+57
          1902.59290	         8.06317e+57
          1903.39920	         9.32752e+57
          1904.20550	         9.04029e+57
          1905.01180	         8.23724e+57
          1905.81810	         9.85291e+57
          1906.62440	         1.32704e+58
          1907.43070	         1.53775e+58
          1908.23700	         1.64333e+58
          1909.04330	         1.32331e+58
          1909.84960	         1.09094e+58
          1910.65590	         9.74301e+57
          1911.46220	         8.93514e+57
          1912.26850	         8.53917e+57
          1913.07480	         6.54940e+57
          1913.88110	         5.91896e+57
          1914.68740	         6.00927e+57
          1915.49370	         6.51764e+57
          1916.30000	         6.62797e+57
          1917.10630	         6.62995e+57
          1917.91260	         6.41929e+57
          1918.71890	         5.76555e+57
          1919.52520	         6.00603e+57
          1920.33150	         5.42111e+57
          1921.13780	         6.18712e+57
          1921.94410	         8.11598e+57
          1922.75040	         8.01778e+57
          1923.55670	         7.56635e+57
          1924.36300	         7.66357e+57
          1925.16930	         6.74879e+57
          1925.97560	         5.35062e+57
          1926.78190	         5.35099e+57
          1927.58820	         6.33763e+57
          1928.39450	         6.65398e+57
          1929.20080	         5.47485e+57
          1930.00710	         5.64753e+57
          1930.81340	         7.76208e+57
          1931.61970	         7.39855e+57
          1932.42600	         5.73390e+57
          1933.23230	         6.83237e+57
          1934.03860	         7.33439e+57
          1934.84490	         6.76412e+57
          1935.65120	         9.61528e+57
          1936.45750	         9.50802e+57
          1937.26380	         7.08976e+57
          1938.07010	         6.64468e+57
          1938.87640	         7.22767e+57
          1939.68270	         7.46010e+57
          1940.48900	         7.49113e+57
          1941.29530	         7.86171e+57
          1942.10160	         6.64970e+57
          1942.90790	         5.75060e+57
          1943.71420	         7.04513e+57
          1944.52050	         7.01271e+57
          1945.32680	         5.43313e+57
          1946.13310	         6.30384e+57
          1946.93940	         8.33189e+57
          1947.74570	         8.24740e+57
          1948.55200	         6.20118e+57
          1949.35830	         6.35850e+57
          1950.16460	         5.39427e+57
          1950.97090	         5.55980e+57
          1951.77720	         6.82849e+57
          1952.58350	         7.74124e+57
          1953.38980	         6.28268e+57
          1954.19610	         4.83032e+57
          1955.00240	         5.75202e+57
          1955.80870	         6.12304e+57
          1956.61500	         6.03219e+57
          1957.42130	         6.42049e+57
          1958.22760	         6.42874e+57
          1959.03390	         7.52295e+57
          1959.84020	         7.63407e+57
          1960.64650	         7.17521e+57
          1961.45280	         6.54406e+57
          1962.25910	         6.45522e+57
          1963.06540	         6.43143e+57
          1963.87170	         6.81043e+57
          1964.67800	         7.39164e+57
          1965.48430	         5.86200e+57
          1966.29060	         6.40119e+57
          1967.09690	         6.72752e+57
          1967.90320	         7.16136e+57
          1968.70950	         7.20435e+57
          1969.51580	         6.03816e+57
          1970.32210	         8.35849e+57
          1971.12840	         7.98504e+57
          1971.93470	         6.02688e+57
          1972.74100	         5.33788e+57
          1973.54730	         5.27537e+57
          1974.35360	         6.14454e+57
          1975.15990	         7.60186e+57
          1975.96620	         7.99874e+57
          1976.77250	         7.41525e+57
          1977.57880	         7.58834e+57
          1978.38510	         6.69642e+57
          1979.19140	         5.73506e+57
          1979.99770	         7.09107e+57
          1980.80400	         7.56976e+57
          1981.61030	         7.04181e+57
          1982.41660	         5.38821e+57
          1983.22290	         6.22936e+57
          1984.02920	         6.64585e+57
          1984.83550	         6.15137e+57
          1985.64180	         6.44048e+57
          1986.44810	         6.47813e+57
          1987.25440	         5.44666e+57
          1988.06070	         4.07668e+57
          1988.86700	         5.03297e+57
          1989.67330	         6.28246e+57
          1990.47960	         6.15042e+57
          1991.28590	         6.22690e+57
          1992.09220	         5.80751e+57
          1992.89850	         5.40232e+57
          1993.70480	         5.02038e+57
          1994.51110	         4.10527e+57
          1995.31740	         4.60492e+57
          1996.12370	         4.52357e+57
          1996.93000	         5.44150e+57
          1997.73630	         7.73939e+57
          1998.54260	         7.97220e+57
          1999.34890	         7.86994e+57
          2000.15520	         7.44704e+57
          2000.96150	         6.65601e+57
          2001.76780	         5.20078e+57
          2002.57410	         5.42658e+57
          2003.38040	         6.98250e+57
          2004.18670	         6.27697e+57
          2004.99300	         4.87788e+57
          2005.79930	         6.32633e+57
          2006.60560	         6.60264e+57
          2007.41190	         6.13557e+57
          2008.21820	         6.30287e+57
          2009.02450	         6.58797e+57
          2009.83080	         5.92170e+57
          2010.63710	         6.26631e+57
          2011.44340	         6.81433e+57
          2012.24970	         6.97640e+57
          2013.05600	         5.85025e+57
          2013.86230	         6.55938e+57
          2014.66860	         5.71952e+57
          2015.47490	         5.85907e+57
          2016.28120	         5.58604e+57
          2017.08750	         6.13435e+57
          2017.89380	         6.73632e+57
          2018.70010	         5.87588e+57
          2019.50640	         6.78831e+57
          2020.31270	         6.79336e+57
          2021.11900	         8.35388e+57
          2021.92530	         6.94132e+57
          2022.73160	         7.14562e+57
          2023.53790	         6.81062e+57
          2024.34420	         5.53336e+57
          2025.15050	         6.12294e+57
          2025.95680	         5.77206e+57
          2026.76310	         5.34276e+57
          2027.56940	         6.37178e+57
          2028.37570	         6.55459e+57
          2029.18200	         4.80379e+57
          2029.98830	         5.58697e+57
          2030.79460	         6.66301e+57
          2031.60090	         7.12634e+57
          2032.40720	         4.91049e+57
          2033.21350	         4.04347e+57
          2034.01980	         4.75508e+57
          2034.82610	         5.45435e+57
          2035.63240	         5.43167e+57
          2036.43870	         5.85570e+57
          2037.24500	         6.97785e+57
          2038.05130	         6.54835e+57
          2038.85760	         6.64206e+57
          2039.66390	         6.16986e+57
          2040.47020	         5.22076e+57
          2041.27650	         6.38673e+57
          2042.08280	         6.22395e+57
          2042.88910	         6.67351e+57
          2043.69540	         6.64241e+57
          2044.50170	         6.20133e+57
          2045.30800	         6.04479e+57
          2046.11430	         5.47955e+57
          2046.92060	         5.81390e+57
          2047.72690	         6.42280e+57
          2048.53320	         6.44207e+57
          2049.33950	         3.68443e+57
          2050.14580	         3.08320e+57
          2050.95210	         5.65146e+57
          2051.75840	         7.93595e+57
          2052.56470	         5.67846e+57
          2053.37100	         4.97836e+57
          2054.17730	         5.04664e+57
          2054.98360	         5.51841e+57
          2055.78990	         4.23232e+57
          2056.59620	         3.87542e+57
          2057.40250	         5.74914e+57
          2058.20880	         6.55041e+57
          2059.01510	         6.13939e+57
          2059.82140	         6.31720e+57
          2060.62770	         9.14433e+57
          2061.43400	         1.37073e+58
          2062.24030	         1.00933e+58
          2063.04660	         2.44063e+57
          2063.85290	         5.56536e+56
          2064.65920	        -3.04022e+57
          2065.46550	        -8.79019e+57
          2066.27180	        -8.67632e+57
          2067.07810	         4.07114e+57
          2067.88440	         4.90028e+57
          2068.69070	         5.80671e+57
          2069.49700	         5.22815e+57
          2070.30330	         4.56075e+57
          2071.10960	         5.55338e+57
          2071.91590	         5.94372e+57
          2072.72220	         4.61062e+57
          2073.52850	         5.04887e+57
          2074.33480	         5.91258e+57
          2075.14110	         5.00851e+57
          2075.94740	         5.77304e+57
          2076.75370	         5.68156e+57
          2077.56000	         5.19495e+57
          2078.36630	         5.42832e+57
          2079.17260	         3.13652e+57
          2079.97890	         5.91192e+57
          2080.78520	         6.03209e+57
          2081.59150	         6.75528e+57
          2082.39780	         6.30618e+57
          2083.20410	         3.54228e+57
          2084.01040	         3.07604e+57
          2084.81670	         4.08064e+57
          2085.62300	         3.55905e+57
          2086.42930	         2.94021e+57
          2087.23560	         1.92879e+57
          2088.04190	         2.06849e+57
          2088.84820	         3.52214e+57
          2089.65450	         2.35164e+57
          2090.46080	         1.52906e+57
          2091.26710	         2.89504e+57
          2092.07340	         4.47072e+57
          2092.87970	         2.39247e+57
          2093.68600	        -1.74037e+57
          2094.49230	         2.89922e+56
          2095.29860	         3.62017e+57
          2096.10490	         3.22284e+57
          2096.91120	         3.22636e+57
          2097.71750	         4.42767e+56
          2098.52380	        -5.42119e+56
          2099.33010	         1.66766e+57
          2100.13640	         1.44236e+57
          2100.94270	         2.03922e+57
          2101.74900	         3.65372e+57
          2102.55530	         2.45940e+57
          2103.36160	         3.42193e+56
          2104.16790	         7.59512e+56
          2104.97420	         1.90140e+56
          2105.78050	         9.92237e+55
          2106.58680	         9.10152e+56
          2107.39310	        -2.35990e+57
          2108.19940	         1.40190e+57
          2109.00570	         4.83608e+56
          2109.81200	         1.14341e+57
          2110.61830	         9.94683e+55
          2111.42460	         1.95125e+57
          2112.23090	         9.51646e+55
          2113.03720	         2.00400e+57
          2113.84350	         5.06663e+57
          2114.64980	         2.62428e+57
          2115.45610	         1.87901e+57
          2116.26240	        -8.12694e+57
          2117.06870	        -9.46738e+55
          2117.87500	        -8.29225e+56
          2118.68130	        -3.26420e+57
          2119.48760	         1.39700e+57
          2120.29390	        -4.87884e+57
          2121.10020	        -5.75571e+57
          2121.90650	        -4.84097e+57
          2122.71280	        -3.02752e+56
          2123.51910	         6.28095e+57
          2124.32540	         6.40327e+57
          2125.13170	        -1.09558e+57
          2125.93800	        -5.17890e+57
          2126.74430	        -4.78814e+57
          2127.55060	        -3.15138e+57
          2128.35690	        -3.32858e+57
          2129.16320	        -4.12232e+57
          2129.96950	         7.47162e+56
          2130.77580	         1.65259e+56
          2131.58210	        -1.35627e+57
          2132.38840	        -3.57065e+57
          2133.19470	        -6.02318e+57
          2134.00100	        -3.45542e+56
          2134.80730	        -2.15923e+57
          2135.61360	         4.43162e+57
          2136.41990	         7.11876e+55
          2137.22620	         1.44207e+57
          2138.03250	        -7.53323e+57
          2138.83880	        -6.46433e+57
          2139.64510	        -6.01766e+57
          2140.45140	        -2.70647e+57
          2141.25770	        -4.94926e+57
          2142.06400	        -1.02511e+58
          2142.87030	         3.68344e+57
          2143.67660	         1.19818e+58
          2144.48290	         1.28740e+58
          2145.28920	         1.09852e+58
          2146.09550	        -7.93045e+57
          2146.90180	        -1.14928e+58
          2147.70810	        -8.58716e+56
          2148.51440	         3.65980e+57
          2149.32070	        -8.59927e+57
          2150.12700	        -1.62282e+58
          2150.93330	        -3.88380e+57
          2151.73960	         1.27304e+57
          2152.54590	        -7.65584e+57
          2153.35220	        -1.21108e+58
          2154.15850	        -8.69561e+57
          2154.96480	        -2.76590e+56
          2155.77110	         2.32341e+57
          2156.57740	        -1.13464e+58
          2157.38370	        -8.72497e+57
          2158.19000	        -5.59938e+57
          2158.99630	        -2.49746e+57
          2159.80260	        -8.93451e+57
          2160.60890	        -1.21204e+58
          2161.41520	        -6.89349e+57
          2162.22150	         3.49672e+57
          2163.02780	         8.59938e+56
          2163.83410	        -1.10361e+58
          2164.64040	        -1.15943e+58
          2165.44670	        -9.30653e+57
          2166.25300	        -4.29555e+57
          2167.05930	         8.64224e+56
          2167.86560	        -1.22779e+58
          2168.67190	        -3.38509e+57
          2169.47820	         6.98516e+57
          2170.28450	        -3.75818e+57
          2171.09080	        -2.24530e+57
          2171.89710	        -3.82497e+57
          2172.70340	        -3.91557e+57
          2173.50970	        -3.18692e+57
          2174.31600	        -1.60404e+57
          2175.12230	        -1.87383e+57
          2175.92860	        -6.97785e+57
          2176.73490	        -5.00423e+57
          2177.54120	        -8.95156e+57
          2178.34750	        -4.39014e+57
          2179.15380	                 nan
          2179.96010	                 nan
          2180.76640	                 nan
          2181.57270	                 nan
          2182.37900	                 nan
          2183.18530	                 nan
          2183.99160	                 nan
          2184.79790	                 nan
          2185.60420	                 nan
          2186.41050	                 nan
          2187.21680	                 nan
          2188.02310	                 nan
          2188.82940	                 nan
          2189.63570	                 nan
          2190.44200	                 nan
          2191.24830	                 nan
          2192.05460	                 nan
          2192.86090	                 nan
          2193.66720	                 nan
          2194.47350	                 nan
          2195.27980	                 nan
          2196.08610	                 nan
          2196.89240	                 nan
          2197.69870	                 nan
          2198.50500	                 nan
          2199.31130	                 nan
          2200.11760	                 nan
          2200.92390	                 nan
          2201.73020	                 nan
          2202.53650	                 nan
          2203.34280	                 nan
          2204.14910	                 nan
          2204.95540	                 nan
          2205.76170	                 nan
          2206.56800	                 nan
          2207.37430	                 nan
          2208.18060	                 nan
          2208.98690	                 nan
          2209.79320	                 nan
          2210.59950	                 nan
          2211.40580	                 nan
          2212.21210	                 nan
          2213.01840	                 nan
          2213.82470	                 nan
          2214.63100	                 nan
          2215.43730	         0.00000e+00
