#sample_109_stacked_spectrum_rest_UV-bands_median_H-alpha_noDC.txt
#median Lum: 1.68665e+42
#Rest-frame wavelength (A) | Luminosity (erg/s/A)
#
          1110.00000	         0.00000e+00
          1110.80630	        -2.89609e+57
          1111.61260	        -1.12173e+59
          1112.41890	         1.38321e+59
          1113.22520	         9.25414e+58
          1114.03150	         2.68923e+59
          1114.83780	         7.58542e+58
          1115.64410	         1.35085e+59
          1116.45040	        -2.34260e+59
          1117.25670	         9.24058e+58
          1118.06300	         1.54933e+59
          1118.86930	        -7.57126e+58
          1119.67560	        -5.16541e+58
          1120.48190	        -6.25535e+58
          1121.28820	        -1.37449e+59
          1122.09450	         1.01952e+58
          1122.90080	         4.27922e+58
          1123.70710	         1.10223e+59
          1124.51340	         7.80296e+58
          1125.31970	        -3.42248e+57
          1126.12600	        -1.08100e+58
          1126.93230	        -8.36196e+58
          1127.73860	        -7.66738e+58
          1128.54490	         1.34400e+58
          1129.35120	         1.16658e+58
          1130.15750	        -5.09091e+57
          1130.96380	        -3.48823e+58
          1131.77010	        -6.87786e+57
          1132.57640	         1.21950e+58
          1133.38270	         1.38905e+58
          1134.18900	         1.94055e+58
          1134.99530	         1.62520e+58
          1135.80160	         4.78766e+58
          1136.60790	         2.17419e+58
          1137.41420	        -1.22059e+58
          1138.22050	         7.98306e+57
          1139.02680	         3.96252e+57
          1139.83310	         5.63208e+57
          1140.63940	         1.10215e+58
          1141.44570	        -7.33635e+57
          1142.25200	         8.98991e+57
          1143.05830	         2.23955e+58
          1143.86460	         3.00284e+58
          1144.67090	         7.47011e+57
          1145.47720	         1.98765e+58
          1146.28350	         1.46986e+58
          1147.08980	         9.46807e+56
          1147.89610	         1.14624e+58
          1148.70240	         2.36106e+58
          1149.50870	         2.05194e+58
          1150.31500	         1.17932e+58
          1151.12130	         9.46687e+57
          1151.92760	        -1.13620e+56
          1152.73390	         3.17863e+57
          1153.54020	         8.90592e+57
          1154.34650	         3.25469e+58
          1155.15280	         3.10267e+58
          1155.95910	         1.96229e+58
          1156.76540	         4.00289e+57
          1157.57170	         4.99366e+57
          1158.37800	        -1.27482e+57
          1159.18430	         4.90744e+53
          1159.99060	         1.87179e+58
          1160.79690	         1.04968e+58
          1161.60320	         2.05118e+58
          1162.40950	         1.52458e+58
          1163.21580	         2.70124e+58
          1164.02210	         1.47559e+58
          1164.82840	         1.28600e+58
          1165.63470	         1.59591e+58
          1166.44100	         2.25819e+58
          1167.24730	         2.07660e+58
          1168.05360	         1.00682e+58
          1168.85990	         1.05652e+58
          1169.66620	         4.83755e+57
          1170.47250	         6.05832e+57
          1171.27880	         9.82114e+57
          1172.08510	         1.98656e+58
          1172.89140	         1.18050e+58
          1173.69770	         8.52522e+57
          1174.50400	         7.56031e+57
          1175.31030	         1.42442e+58
          1176.11660	         1.27459e+58
          1176.92290	         1.27628e+58
          1177.72920	         1.55064e+58
          1178.53550	         1.09372e+58
          1179.34180	         5.04514e+57
          1180.14810	         7.91542e+57
          1180.95440	         9.64505e+57
          1181.76070	         8.10433e+57
          1182.56700	         8.88970e+57
          1183.37330	         8.74705e+57
          1184.17960	         1.57075e+58
          1184.98590	         1.24641e+58
          1185.79220	         1.18239e+58
          1186.59850	         1.29825e+58
          1187.40480	         1.29816e+58
          1188.21110	         2.02888e+58
          1189.01740	         1.20322e+58
          1189.82370	         1.21259e+58
          1190.63000	         1.21193e+58
          1191.43630	         1.04576e+58
          1192.24260	         6.47465e+57
          1193.04890	         1.08319e+58
          1193.85520	         1.02807e+58
          1194.66150	         6.28363e+57
          1195.46780	         9.80861e+57
          1196.27410	         8.64226e+57
          1197.08040	         6.40142e+57
          1197.88670	         1.08517e+58
          1198.69300	         1.34067e+58
          1199.49930	         1.59750e+58
          1200.30560	         1.35879e+58
          1201.11190	         1.28385e+58
          1201.91820	         1.21882e+58
          1202.72450	         8.92241e+57
          1203.53080	         1.66768e+58
          1204.33710	         1.00476e+58
          1205.14340	         6.65471e+57
          1205.94970	         5.61099e+57
          1206.75600	         3.69841e+57
          1207.56230	         4.34212e+57
          1208.36860	         9.65177e+57
          1209.17490	         1.53722e+57
          1209.98120	         2.34162e+57
          1210.78750	         9.44000e+57
          1211.59380	         1.31240e+58
          1212.40010	         1.96422e+58
          1213.20640	         2.02357e+58
          1214.01270	         2.05308e+58
          1214.81900	         2.83606e+58
          1215.62530	         5.07868e+58
          1216.43160	         9.43432e+58
          1217.23790	         1.51152e+59
          1218.04420	         1.13776e+59
          1218.85050	         8.49880e+58
          1219.65680	         5.88871e+58
          1220.46310	         3.51721e+58
          1221.26940	         2.60081e+58
          1222.07570	         1.81023e+58
          1222.88200	         1.38570e+58
          1223.68830	         1.07158e+58
          1224.49460	         1.03480e+58
          1225.30090	         9.78433e+57
          1226.10720	         6.56215e+57
          1226.91350	         6.81011e+57
          1227.71980	         8.98023e+57
          1228.52610	         1.26121e+58
          1229.33240	         5.32675e+57
          1230.13870	         5.17048e+57
          1230.94500	         8.20724e+57
          1231.75130	         9.10030e+57
          1232.55760	         8.29430e+57
          1233.36390	         8.22108e+57
          1234.17020	         7.95782e+57
          1234.97650	         9.10902e+57
          1235.78280	         8.27160e+57
          1236.58910	         8.87779e+57
          1237.39540	         1.04101e+58
          1238.20170	         9.70965e+57
          1239.00800	         1.02452e+58
          1239.81430	         1.14270e+58
          1240.62060	         1.00464e+58
          1241.42690	         9.32735e+57
          1242.23320	         1.18686e+58
          1243.03950	         1.03688e+58
          1243.84580	         1.03568e+58
          1244.65210	         1.30345e+58
          1245.45840	         1.07815e+58
          1246.26470	         9.08458e+57
          1247.07100	         6.44653e+57
          1247.87730	         5.99420e+57
          1248.68360	         5.91006e+57
          1249.48990	         8.73092e+57
          1250.29620	         8.81765e+57
          1251.10250	         8.82623e+57
          1251.90880	         7.14466e+57
          1252.71510	         7.18664e+57
          1253.52140	         7.19146e+57
          1254.32770	         8.34139e+57
          1255.13400	         1.01998e+58
          1255.94030	         9.70126e+57
          1256.74660	         8.66532e+57
          1257.55290	         9.49643e+57
          1258.35920	         9.49950e+57
          1259.16550	         8.55817e+57
          1259.97180	         5.19424e+57
          1260.77810	         7.67571e+57
          1261.58440	         9.95846e+57
          1262.39070	         9.77268e+57
          1263.19700	         8.35636e+57
          1264.00330	         9.18785e+57
          1264.80960	         1.01683e+58
          1265.61590	         1.36774e+58
          1266.42220	         1.26342e+58
          1267.22850	         1.03788e+58
          1268.03480	         1.32022e+58
          1268.84110	         1.35857e+58
          1269.64740	         1.21536e+58
          1270.45370	         1.48779e+58
          1271.26000	         1.42817e+58
          1272.06630	         1.33405e+58
          1272.87260	         1.29771e+58
          1273.67890	         1.33286e+58
          1274.48520	         1.29546e+58
          1275.29150	         1.27180e+58
          1276.09780	         1.18969e+58
          1276.90410	         1.54065e+58
          1277.71040	         1.32564e+58
          1278.51670	         1.28949e+58
          1279.32300	         1.37411e+58
          1280.12930	         1.03049e+58
          1280.93560	         9.36357e+57
          1281.74190	         1.00744e+58
          1282.54820	         1.20948e+58
          1283.35450	         1.07365e+58
          1284.16080	         1.08069e+58
          1284.96710	         1.22902e+58
          1285.77340	         1.28551e+58
          1286.57970	         1.27951e+58
          1287.38600	         1.34462e+58
          1288.19230	         1.74230e+58
          1288.99860	         1.54606e+58
          1289.80490	         1.15910e+58
          1290.61120	         1.36810e+58
          1291.41750	         1.43100e+58
          1292.22380	         9.04132e+57
          1293.03010	         7.80131e+57
          1293.83640	         1.27899e+58
          1294.64270	         1.06785e+58
          1295.44900	         6.62529e+57
          1296.25530	         7.73565e+57
          1297.06160	         1.02383e+58
          1297.86790	         1.16895e+58
          1298.67420	         9.57350e+57
          1299.48050	         8.93221e+57
          1300.28680	         1.03207e+58
          1301.09310	         9.80477e+57
          1301.89940	         5.68234e+57
          1302.70570	         4.94465e+57
          1303.51200	         6.24210e+57
          1304.31830	         9.44519e+57
          1305.12460	         9.88531e+57
          1305.93090	         1.09701e+58
          1306.73720	         1.25488e+58
          1307.54350	         1.56028e+58
          1308.34980	         1.66300e+58
          1309.15610	         1.54113e+58
          1309.96240	         1.56312e+58
          1310.76870	         1.38913e+58
          1311.57500	         1.09050e+58
          1312.38130	         9.87748e+57
          1313.18760	         1.15170e+58
          1313.99390	         1.55914e+58
          1314.80020	         1.70245e+58
          1315.60650	         1.52112e+58
          1316.41280	         1.39463e+58
          1317.21910	         1.21612e+58
          1318.02540	         1.17821e+58
          1318.83170	         1.31145e+58
          1319.63800	         1.24762e+58
          1320.44430	         1.12849e+58
          1321.25060	         1.23890e+58
          1322.05690	         1.27337e+58
          1322.86320	         1.21901e+58
          1323.66950	         1.05590e+58
          1324.47580	         1.00576e+58
          1325.28210	         1.05118e+58
          1326.08840	         1.11502e+58
          1326.89470	         1.15526e+58
          1327.70100	         1.09929e+58
          1328.50730	         8.15345e+57
          1329.31360	         8.67665e+57
          1330.11990	         1.02925e+58
          1330.92620	         9.27474e+57
          1331.73250	         1.06114e+58
          1332.53880	         1.10146e+58
          1333.34510	         9.89090e+57
          1334.15140	         9.56216e+57
          1334.95770	         9.67374e+57
          1335.76400	         1.19101e+58
          1336.57030	         1.24093e+58
          1337.37660	         1.01056e+58
          1338.18290	         1.02730e+58
          1338.98920	         1.20804e+58
          1339.79550	         1.23579e+58
          1340.60180	         1.24451e+58
          1341.40810	         1.29828e+58
          1342.21440	         1.11278e+58
          1343.02070	         9.67768e+57
          1343.82700	         1.17806e+58
          1344.63330	         1.24508e+58
          1345.43960	         1.26542e+58
          1346.24590	         1.09462e+58
          1347.05220	         1.22367e+58
          1347.85850	         1.11419e+58
          1348.66480	         1.14259e+58
          1349.47110	         1.23704e+58
          1350.27740	         1.01255e+58
          1351.08370	         1.15152e+58
          1351.89000	         1.23454e+58
          1352.69630	         1.38886e+58
          1353.50260	         1.33017e+58
          1354.30890	         1.26959e+58
          1355.11520	         1.26011e+58
          1355.92150	         1.04358e+58
          1356.72780	         1.02957e+58
          1357.53410	         9.61689e+57
          1358.34040	         9.70711e+57
          1359.14670	         9.81793e+57
          1359.95300	         1.09529e+58
          1360.75930	         1.18406e+58
          1361.56560	         1.11773e+58
          1362.37190	         1.15163e+58
          1363.17820	         1.19799e+58
          1363.98450	         1.25216e+58
          1364.79080	         1.31340e+58
          1365.59710	         1.25768e+58
          1366.40340	         1.23200e+58
          1367.20970	         1.24755e+58
          1368.01600	         1.04711e+58
          1368.82230	         1.02977e+58
          1369.62860	         1.13114e+58
          1370.43490	         9.57986e+57
          1371.24120	         1.00112e+58
          1372.04750	         9.10848e+57
          1372.85380	         1.03408e+58
          1373.66010	         1.08365e+58
          1374.46640	         1.05016e+58
          1375.27270	         1.05400e+58
          1376.07900	         8.39154e+57
          1376.88530	         7.12891e+57
          1377.69160	         9.20012e+57
          1378.49790	         8.97093e+57
          1379.30420	         7.68299e+57
          1380.11050	         9.47543e+57
          1380.91680	         9.60605e+57
          1381.72310	         7.22087e+57
          1382.52940	         8.09580e+57
          1383.33570	         7.38017e+57
          1384.14200	         8.29700e+57
          1384.94830	         1.18001e+58
          1385.75460	         1.23055e+58
          1386.56090	         1.00545e+58
          1387.36720	         1.00798e+58
          1388.17350	         1.15432e+58
          1388.97980	         1.14401e+58
          1389.78610	         1.07414e+58
          1390.59240	         8.57161e+57
          1391.39870	         7.09370e+57
          1392.20500	         8.36306e+57
          1393.01130	         7.70660e+57
          1393.81760	         6.64211e+57
          1394.62390	         7.67103e+57
          1395.43020	         7.09941e+57
          1396.23650	         7.23201e+57
          1397.04280	         7.39917e+57
          1397.84910	         8.29044e+57
          1398.65540	         8.34584e+57
          1399.46170	         9.90438e+57
          1400.26800	         9.26217e+57
          1401.07430	         8.35993e+57
          1401.88060	         8.42750e+57
          1402.68690	         9.57757e+57
          1403.49320	         9.45152e+57
          1404.29950	         8.67877e+57
          1405.10580	         1.05676e+58
          1405.91210	         1.11133e+58
          1406.71840	         1.02952e+58
          1407.52470	         1.05627e+58
          1408.33100	         1.02983e+58
          1409.13730	         1.20852e+58
          1409.94360	         1.32912e+58
          1410.74990	         1.22852e+58
          1411.55620	         1.00985e+58
          1412.36250	         9.34010e+57
          1413.16880	         9.00747e+57
          1413.97510	         8.84079e+57
          1414.78140	         9.16556e+57
          1415.58770	         1.06144e+58
          1416.39400	         1.19567e+58
          1417.20030	         1.37522e+58
          1418.00660	         1.08383e+58
          1418.81290	         9.06153e+57
          1419.61920	         1.07584e+58
          1420.42550	         1.22518e+58
          1421.23180	         1.36180e+58
          1422.03810	         1.20488e+58
          1422.84440	         1.01845e+58
          1423.65070	         1.19864e+58
          1424.45700	         1.15454e+58
          1425.26330	         9.22646e+57
          1426.06960	         9.71540e+57
          1426.87590	         9.70194e+57
          1427.68220	         9.44706e+57
          1428.48850	         1.06162e+58
          1429.29480	         9.95334e+57
          1430.10110	         9.50366e+57
          1430.90740	         8.91794e+57
          1431.71370	         9.00048e+57
          1432.52000	         8.64954e+57
          1433.32630	         7.77584e+57
          1434.13260	         7.70062e+57
          1434.93890	         7.36935e+57
          1435.74520	         8.09355e+57
          1436.55150	         8.76362e+57
          1437.35780	         8.97554e+57
          1438.16410	         8.74334e+57
          1438.97040	         8.34461e+57
          1439.77670	         8.53113e+57
          1440.58300	         9.13469e+57
          1441.38930	         9.88053e+57
          1442.19560	         9.67234e+57
          1443.00190	         9.50696e+57
          1443.80820	         1.03103e+58
          1444.61450	         9.35532e+57
          1445.42080	         8.06841e+57
          1446.22710	         1.03066e+58
          1447.03340	         1.06365e+58
          1447.83970	         1.14013e+58
          1448.64600	         1.15250e+58
          1449.45230	         1.13263e+58
          1450.25860	         1.03424e+58
          1451.06490	         9.37797e+57
          1451.87120	         7.98532e+57
          1452.67750	         7.66202e+57
          1453.48380	         8.70952e+57
          1454.29010	         8.39337e+57
          1455.09640	         7.82593e+57
          1455.90270	         8.99862e+57
          1456.70900	         8.57292e+57
          1457.51530	         9.69027e+57
          1458.32160	         1.27064e+58
          1459.12790	         1.19109e+58
          1459.93420	         9.92580e+57
          1460.74050	         7.09694e+57
          1461.54680	         7.03081e+57
          1462.35310	         8.62973e+57
          1463.15940	         1.04841e+58
          1463.96570	         1.21791e+58
          1464.77200	         1.19725e+58
          1465.57830	         1.16081e+58
          1466.38460	         9.51727e+57
          1467.19090	         8.57083e+57
          1467.99720	         8.33361e+57
          1468.80350	         9.24405e+57
          1469.60980	         9.80388e+57
          1470.41610	         1.02170e+58
          1471.22240	         9.43308e+57
          1472.02870	         9.77996e+57
          1472.83500	         1.02555e+58
          1473.64130	         9.92864e+57
          1474.44760	         9.50154e+57
          1475.25390	         9.80809e+57
          1476.06020	         9.62051e+57
          1476.86650	         8.65301e+57
          1477.67280	         7.56525e+57
          1478.47910	         7.47554e+57
          1479.28540	         8.13762e+57
          1480.09170	         8.84396e+57
          1480.89800	         9.16829e+57
          1481.70430	         8.38960e+57
          1482.51060	         9.19260e+57
          1483.31690	         8.59380e+57
          1484.12320	         7.72613e+57
          1484.92950	         9.60969e+57
          1485.73580	         9.80216e+57
          1486.54210	         8.71865e+57
          1487.34840	         8.19106e+57
          1488.15470	         7.17475e+57
          1488.96100	         8.31972e+57
          1489.76730	         9.15874e+57
          1490.57360	         8.88121e+57
          1491.37990	         7.94725e+57
          1492.18620	         8.58417e+57
          1492.99250	         8.71895e+57
          1493.79880	         8.03526e+57
          1494.60510	         8.56878e+57
          1495.41140	         7.30199e+57
          1496.21770	         7.99384e+57
          1497.02400	         1.02884e+58
          1497.83030	         9.21425e+57
          1498.63660	         6.80466e+57
          1499.44290	         6.18211e+57
          1500.24920	         7.13362e+57
          1501.05550	         8.29673e+57
          1501.86180	         9.02845e+57
          1502.66810	         9.86276e+57
          1503.47440	         8.96708e+57
          1504.28070	         8.15654e+57
          1505.08700	         9.04414e+57
          1505.89330	         8.67987e+57
          1506.69960	         7.53227e+57
          1507.50590	         7.95842e+57
          1508.31220	         9.00808e+57
          1509.11850	         9.34103e+57
          1509.92480	         8.78118e+57
          1510.73110	         8.91683e+57
          1511.53740	         8.63170e+57
          1512.34370	         7.17362e+57
          1513.15000	         8.31751e+57
          1513.95630	         9.52933e+57
          1514.76260	         8.80099e+57
          1515.56890	         8.24863e+57
          1516.37520	         8.74607e+57
          1517.18150	         8.29131e+57
          1517.98780	         7.41117e+57
          1518.79410	         7.62817e+57
          1519.60040	         8.54954e+57
          1520.40670	         9.69242e+57
          1521.21300	         8.70924e+57
          1522.01930	         8.21966e+57
          1522.82560	         9.79057e+57
          1523.63190	         9.78445e+57
          1524.43820	         7.71936e+57
          1525.24450	         6.73695e+57
          1526.05080	         5.72951e+57
          1526.85710	         6.26003e+57
          1527.66340	         7.17790e+57
          1528.46970	         7.87815e+57
          1529.27600	         7.25789e+57
          1530.08230	         7.16664e+57
          1530.88860	         7.91498e+57
          1531.69490	         7.90835e+57
          1532.50120	         8.63966e+57
          1533.30750	         9.06340e+57
          1534.11380	         9.37085e+57
          1534.92010	         9.69524e+57
          1535.72640	         9.66894e+57
          1536.53270	         9.46273e+57
          1537.33900	         8.57641e+57
          1538.14530	         8.94432e+57
          1538.95160	         9.78609e+57
          1539.75790	         9.25010e+57
          1540.56420	         8.13744e+57
          1541.37050	         8.41458e+57
          1542.17680	         7.68368e+57
          1542.98310	         7.49695e+57
          1543.78940	         8.32253e+57
          1544.59570	         7.78251e+57
          1545.40200	         7.83346e+57
          1546.20830	         9.13574e+57
          1547.01460	         1.08718e+58
          1547.82090	         1.21628e+58
          1548.62720	         1.20147e+58
          1549.43350	         1.16269e+58
          1550.23980	         1.08404e+58
          1551.04610	         1.27572e+58
          1551.85240	         1.23152e+58
          1552.65870	         1.15868e+58
          1553.46500	         1.03792e+58
          1554.27130	         9.84948e+57
          1555.07760	         9.83828e+57
          1555.88390	         9.37358e+57
          1556.69020	         9.34095e+57
          1557.49650	         9.07598e+57
          1558.30280	         9.11339e+57
          1559.10910	         8.48781e+57
          1559.91540	         8.52160e+57
          1560.72170	         8.47069e+57
          1561.52800	         8.29468e+57
          1562.33430	         8.69982e+57
          1563.14060	         8.87693e+57
          1563.94690	         8.89219e+57
          1564.75320	         8.77257e+57
          1565.55950	         7.19067e+57
          1566.36580	         7.72604e+57
          1567.17210	         9.11571e+57
          1567.97840	         9.21296e+57
          1568.78470	         8.32002e+57
          1569.59100	         8.90960e+57
          1570.39730	         9.28660e+57
          1571.20360	         7.56132e+57
          1572.00990	         7.18864e+57
          1572.81620	         8.41921e+57
          1573.62250	         9.23688e+57
          1574.42880	         8.97425e+57
          1575.23510	         7.71379e+57
          1576.04140	         8.17980e+57
          1576.84770	         8.92459e+57
          1577.65400	         8.86802e+57
          1578.46030	         9.96097e+57
          1579.26660	         1.01281e+58
          1580.07290	         9.73501e+57
          1580.87920	         7.95753e+57
          1581.68550	         7.58242e+57
          1582.49180	         7.80047e+57
          1583.29810	         7.30431e+57
          1584.10440	         8.68433e+57
          1584.91070	         8.64992e+57
          1585.71700	         8.00611e+57
          1586.52330	         8.83838e+57
          1587.32960	         8.84007e+57
          1588.13590	         8.98972e+57
          1588.94220	         9.53310e+57
          1589.74850	         9.31115e+57
          1590.55480	         9.05933e+57
          1591.36110	         8.99696e+57
          1592.16740	         8.55807e+57
          1592.97370	         7.90986e+57
          1593.78000	         8.47540e+57
          1594.58630	         8.63322e+57
          1595.39260	         8.47054e+57
          1596.19890	         9.19342e+57
          1597.00520	         9.43375e+57
          1597.81150	         8.58231e+57
          1598.61780	         7.28505e+57
          1599.42410	         6.97491e+57
          1600.23040	         7.66329e+57
          1601.03670	         7.90712e+57
          1601.84300	         7.21306e+57
          1602.64930	         8.02030e+57
          1603.45560	         8.49961e+57
          1604.26190	         8.61556e+57
          1605.06820	         8.58065e+57
          1605.87450	         7.56522e+57
          1606.68080	         7.10677e+57
          1607.48710	         6.35798e+57
          1608.29340	         6.23573e+57
          1609.09970	         6.33319e+57
          1609.90600	         6.86073e+57
          1610.71230	         6.75017e+57
          1611.51860	         6.66058e+57
          1612.32490	         6.86506e+57
          1613.13120	         8.13073e+57
          1613.93750	         8.24895e+57
          1614.74380	         7.92870e+57
          1615.55010	         8.74654e+57
          1616.35640	         8.70138e+57
          1617.16270	         9.94262e+57
          1617.96900	         1.06466e+58
          1618.77530	         9.85268e+57
          1619.58160	         9.57483e+57
          1620.38790	         8.77204e+57
          1621.19420	         8.96188e+57
          1622.00050	         8.55671e+57
          1622.80680	         8.85592e+57
          1623.61310	         9.69058e+57
          1624.41940	         8.78095e+57
          1625.22570	         9.39790e+57
          1626.03200	         9.72960e+57
          1626.83830	         7.73125e+57
          1627.64460	         7.04050e+57
          1628.45090	         6.88801e+57
          1629.25720	         8.74621e+57
          1630.06350	         8.92922e+57
          1630.86980	         7.01372e+57
          1631.67610	         7.28341e+57
          1632.48240	         7.54128e+57
          1633.28870	         8.28759e+57
          1634.09500	         9.50655e+57
          1634.90130	         1.04681e+58
          1635.70760	         7.32655e+57
          1636.51390	         6.91045e+57
          1637.32020	         7.94975e+57
          1638.12650	         9.09725e+57
          1638.93280	         1.06589e+58
          1639.73910	         1.15599e+58
          1640.54540	         1.06145e+58
          1641.35170	         8.21433e+57
          1642.15800	         8.65151e+57
          1642.96430	         8.56043e+57
          1643.77060	         8.40876e+57
          1644.57690	         6.77512e+57
          1645.38320	         7.48209e+57
          1646.18950	         6.41078e+57
          1646.99580	         8.39641e+57
          1647.80210	         8.40861e+57
          1648.60840	         7.45603e+57
          1649.41470	         7.75151e+57
          1650.22100	         6.67958e+57
          1651.02730	         7.14474e+57
          1651.83360	         7.88512e+57
          1652.63990	         7.99814e+57
          1653.44620	         8.87081e+57
          1654.25250	         7.76415e+57
          1655.05880	         7.03809e+57
          1655.86510	         8.34682e+57
          1656.67140	         9.39086e+57
          1657.47770	         8.41121e+57
          1658.28400	         8.86376e+57
          1659.09030	         9.43552e+57
          1659.89660	         8.92645e+57
          1660.70290	         9.31335e+57
          1661.50920	         9.33529e+57
          1662.31550	         7.96321e+57
          1663.12180	         8.23040e+57
          1663.92810	         9.27911e+57
          1664.73440	         1.11353e+58
          1665.54070	         1.09969e+58
          1666.34700	         1.14416e+58
          1667.15330	         1.09811e+58
          1667.95960	         9.17889e+57
          1668.76590	         7.43088e+57
          1669.57220	         6.90237e+57
          1670.37850	         7.36426e+57
          1671.18480	         7.74595e+57
          1671.99110	         8.11806e+57
          1672.79740	         7.16530e+57
          1673.60370	         6.58793e+57
          1674.41000	         7.02557e+57
          1675.21630	         7.05165e+57
          1676.02260	         6.13212e+57
          1676.82890	         7.22903e+57
          1677.63520	         7.86740e+57
          1678.44150	         7.47431e+57
          1679.24780	         8.24778e+57
          1680.05410	         7.09505e+57
          1680.86040	         6.19647e+57
          1681.66670	         7.07575e+57
          1682.47300	         8.60715e+57
          1683.27930	         8.76622e+57
          1684.08560	         8.67570e+57
          1684.89190	         7.75058e+57
          1685.69820	         5.92525e+57
          1686.50450	         5.88445e+57
          1687.31080	         7.18417e+57
          1688.11710	         8.11311e+57
          1688.92340	         7.90494e+57
          1689.72970	         7.01225e+57
          1690.53600	         7.07519e+57
          1691.34230	         7.96540e+57
          1692.14860	         7.95611e+57
          1692.95490	         8.03361e+57
          1693.76120	         7.90996e+57
          1694.56750	         7.39411e+57
          1695.37380	         8.80288e+57
          1696.18010	         9.41649e+57
          1696.98640	         9.39762e+57
          1697.79270	         8.36024e+57
          1698.59900	         7.80689e+57
          1699.40530	         7.59014e+57
          1700.21160	         7.04825e+57
          1701.01790	         8.24396e+57
          1701.82420	         8.75190e+57
          1702.63050	         8.90955e+57
          1703.43680	         8.21712e+57
          1704.24310	         8.09284e+57
          1705.04940	         7.91638e+57
          1705.85570	         7.71446e+57
          1706.66200	         8.34823e+57
          1707.46830	         8.25840e+57
          1708.27460	         6.94448e+57
          1709.08090	         6.76196e+57
          1709.88720	         6.06245e+57
          1710.69350	         6.48827e+57
          1711.49980	         8.15643e+57
          1712.30610	         7.57785e+57
          1713.11240	         7.82660e+57
          1713.91870	         7.96590e+57
          1714.72500	         8.74068e+57
          1715.53130	         8.38935e+57
          1716.33760	         8.45456e+57
          1717.14390	         8.00808e+57
          1717.95020	         8.46780e+57
          1718.75650	         8.50587e+57
          1719.56280	         7.94193e+57
          1720.36910	         7.15774e+57
          1721.17540	         6.73878e+57
          1721.98170	         7.01782e+57
          1722.78800	         7.23421e+57
          1723.59430	         6.97854e+57
          1724.40060	         8.28440e+57
          1725.20690	         8.44331e+57
          1726.01320	         8.31855e+57
          1726.81950	         8.17053e+57
          1727.62580	         7.79441e+57
          1728.43210	         6.98145e+57
          1729.23840	         7.59438e+57
          1730.04470	         8.60320e+57
          1730.85100	         8.49294e+57
          1731.65730	         7.72832e+57
          1732.46360	         6.91857e+57
          1733.26990	         6.85298e+57
          1734.07620	         7.28616e+57
          1734.88250	         8.29612e+57
          1735.68880	         8.54322e+57
          1736.49510	         8.09150e+57
          1737.30140	         8.03497e+57
          1738.10770	         7.70915e+57
          1738.91400	         7.85660e+57
          1739.72030	         7.16870e+57
          1740.52660	         6.28354e+57
          1741.33290	         6.37933e+57
          1742.13920	         5.78129e+57
          1742.94550	         6.41403e+57
          1743.75180	         7.15481e+57
          1744.55810	         8.63108e+57
          1745.36440	         7.56532e+57
          1746.17070	         5.26332e+57
          1746.97700	         4.71936e+57
          1747.78330	         6.20340e+57
          1748.58960	         7.10613e+57
          1749.39590	         6.98910e+57
          1750.20220	         5.87402e+57
          1751.00850	         5.67776e+57
          1751.81480	         6.51074e+57
          1752.62110	         8.03831e+57
          1753.42740	         7.08143e+57
          1754.23370	         5.77698e+57
          1755.04000	         5.83515e+57
          1755.84630	         7.10145e+57
          1756.65260	         8.87787e+57
          1757.45890	         8.99888e+57
          1758.26520	         7.24216e+57
          1759.07150	         8.10489e+57
          1759.87780	         8.54738e+57
          1760.68410	         7.30333e+57
          1761.49040	         6.84556e+57
          1762.29670	         6.74938e+57
          1763.10300	         8.57213e+57
          1763.90930	         9.00001e+57
          1764.71560	         8.66954e+57
          1765.52190	         7.74105e+57
          1766.32820	         8.31797e+57
          1767.13450	         8.41134e+57
          1767.94080	         7.36584e+57
          1768.74710	         6.41394e+57
          1769.55340	         7.55368e+57
          1770.35970	         6.77605e+57
          1771.16600	         7.49137e+57
          1771.97230	         8.93417e+57
          1772.77860	         7.96970e+57
          1773.58490	         6.69418e+57
          1774.39120	         5.80435e+57
          1775.19750	         5.73145e+57
          1776.00380	         6.68828e+57
          1776.81010	         6.27095e+57
          1777.61640	         7.15156e+57
          1778.42270	         7.11187e+57
          1779.22900	         6.56130e+57
          1780.03530	         7.05012e+57
          1780.84160	         8.37159e+57
          1781.64790	         8.65234e+57
          1782.45420	         7.02666e+57
          1783.26050	         6.03574e+57
          1784.06680	         7.64418e+57
          1784.87310	         7.53492e+57
          1785.67940	         7.71822e+57
          1786.48570	         7.12987e+57
          1787.29200	         6.26651e+57
          1788.09830	         5.39455e+57
          1788.90460	         5.67128e+57
          1789.71090	         5.17802e+57
          1790.51720	         5.84754e+57
          1791.32350	         7.68570e+57
          1792.12980	         8.20209e+57
          1792.93610	         7.93003e+57
          1793.74240	         7.31266e+57
          1794.54870	         8.05079e+57
          1795.35500	         7.55781e+57
          1796.16130	         7.06379e+57
          1796.96760	         7.14170e+57
          1797.77390	         7.13826e+57
          1798.58020	         7.28441e+57
          1799.38650	         6.63641e+57
          1800.19280	         6.82347e+57
          1800.99910	         7.27126e+57
          1801.80540	         7.31291e+57
          1802.61170	         8.23422e+57
          1803.41800	         8.57187e+57
          1804.22430	         6.99228e+57
          1805.03060	         5.95459e+57
          1805.83690	         7.01564e+57
          1806.64320	         7.10617e+57
          1807.44950	         7.93349e+57
          1808.25580	         8.05490e+57
          1809.06210	         7.09968e+57
          1809.86840	         6.32144e+57
          1810.67470	         7.41116e+57
          1811.48100	         8.05749e+57
          1812.28730	         7.97546e+57
          1813.09360	         6.43779e+57
          1813.89990	         7.18463e+57
          1814.70620	         7.86811e+57
          1815.51250	         8.68617e+57
          1816.31880	         7.92856e+57
          1817.12510	         8.01977e+57
          1817.93140	         6.91385e+57
          1818.73770	         6.46215e+57
          1819.54400	         7.37451e+57
          1820.35030	         7.79821e+57
          1821.15660	         6.10965e+57
          1821.96290	         6.71425e+57
          1822.76920	         7.95534e+57
          1823.57550	         7.65419e+57
          1824.38180	         7.18648e+57
          1825.18810	         7.59662e+57
          1825.99440	         8.31730e+57
          1826.80070	         7.71843e+57
          1827.60700	         6.68209e+57
          1828.41330	         6.11259e+57
          1829.21960	         6.49397e+57
          1830.02590	         7.33994e+57
          1830.83220	         7.96535e+57
          1831.63850	         7.15094e+57
          1832.44480	         7.22054e+57
          1833.25110	         8.36431e+57
          1834.05740	         8.31494e+57
          1834.86370	         6.17272e+57
          1835.67000	         5.72845e+57
          1836.47630	         7.34678e+57
          1837.28260	         8.27145e+57
          1838.08890	         8.69763e+57
          1838.89520	         8.09961e+57
          1839.70150	         7.92426e+57
          1840.50780	         8.17646e+57
          1841.31410	         7.84422e+57
          1842.12040	         7.24195e+57
          1842.92670	         7.28263e+57
          1843.73300	         6.86767e+57
          1844.53930	         6.50906e+57
          1845.34560	         7.02454e+57
          1846.15190	         7.43036e+57
          1846.95820	         7.78776e+57
          1847.76450	         7.05358e+57
          1848.57080	         6.24387e+57
          1849.37710	         7.08876e+57
          1850.18340	         8.36622e+57
          1850.98970	         7.96203e+57
          1851.79600	         6.86339e+57
          1852.60230	         5.71966e+57
          1853.40860	         7.59212e+57
          1854.21490	         7.67193e+57
          1855.02120	         5.51277e+57
          1855.82750	         4.77658e+57
          1856.63380	         6.24409e+57
          1857.44010	         6.68226e+57
          1858.24640	         7.84557e+57
          1859.05270	         6.55096e+57
          1859.85900	         5.67536e+57
          1860.66530	         5.38112e+57
          1861.47160	         6.50702e+57
          1862.27790	         6.58718e+57
          1863.08420	         6.92200e+57
          1863.89050	         7.70558e+57
          1864.69680	         6.81323e+57
          1865.50310	         7.70612e+57
          1866.30940	         7.02660e+57
          1867.11570	         6.07213e+57
          1867.92200	         6.84432e+57
          1868.72830	         6.89856e+57
          1869.53460	         6.57769e+57
          1870.34090	         7.04241e+57
          1871.14720	         7.95243e+57
          1871.95350	         7.20292e+57
          1872.75980	         7.38625e+57
          1873.56610	         7.00409e+57
          1874.37240	         5.63525e+57
          1875.17870	         6.15065e+57
          1875.98500	         7.79358e+57
          1876.79130	         8.38447e+57
          1877.59760	         6.68964e+57
          1878.40390	         5.34477e+57
          1879.21020	         6.11700e+57
          1880.01650	         7.75084e+57
          1880.82280	         8.35242e+57
          1881.62910	         9.04568e+57
          1882.43540	         1.06704e+58
          1883.24170	         8.41312e+57
          1884.04800	         7.56444e+57
          1884.85430	         7.67003e+57
          1885.66060	         8.28243e+57
          1886.46690	         8.23514e+57
          1887.27320	         7.79018e+57
          1888.07950	         6.30805e+57
          1888.88580	         6.45772e+57
          1889.69210	         8.81921e+57
          1890.49840	         8.17922e+57
          1891.30470	         8.05998e+57
          1892.11100	         8.61575e+57
          1892.91730	         7.90049e+57
          1893.72360	         8.22402e+57
          1894.52990	         7.51917e+57
          1895.33620	         7.47777e+57
          1896.14250	         7.37289e+57
          1896.94880	         6.38965e+57
          1897.75510	         4.23000e+57
          1898.56140	         5.27812e+57
          1899.36770	         7.43077e+57
          1900.17400	         7.26209e+57
          1900.98030	         7.37179e+57
          1901.78660	         6.97890e+57
          1902.59290	         7.69612e+57
          1903.39920	         9.00315e+57
          1904.20550	         9.35144e+57
          1905.01180	         8.39028e+57
          1905.81810	         8.94887e+57
          1906.62440	         1.17001e+58
          1907.43070	         1.47296e+58
          1908.23700	         1.56680e+58
          1909.04330	         1.22267e+58
          1909.84960	         1.07514e+58
          1910.65590	         9.70224e+57
          1911.46220	         9.09704e+57
          1912.26850	         7.82737e+57
          1913.07480	         6.49918e+57
          1913.88110	         5.70406e+57
          1914.68740	         5.75338e+57
          1915.49370	         5.80648e+57
          1916.30000	         5.76063e+57
          1917.10630	         6.35043e+57
          1917.91260	         6.87893e+57
          1918.71890	         7.05734e+57
          1919.52520	         6.37826e+57
          1920.33150	         6.99808e+57
          1921.13780	         7.37124e+57
          1921.94410	         8.40801e+57
          1922.75040	         8.03543e+57
          1923.55670	         7.90022e+57
          1924.36300	         8.59405e+57
          1925.16930	         6.92878e+57
          1925.97560	         5.74769e+57
          1926.78190	         5.51610e+57
          1927.58820	         5.47339e+57
          1928.39450	         5.21282e+57
          1929.20080	         4.93914e+57
          1930.00710	         6.84915e+57
          1930.81340	         8.16675e+57
          1931.61970	         6.61403e+57
          1932.42600	         6.93285e+57
          1933.23230	         8.07189e+57
          1934.03860	         6.65186e+57
          1934.84490	         5.91826e+57
          1935.65120	         7.77418e+57
          1936.45750	         8.89238e+57
          1937.26380	         8.23779e+57
          1938.07010	         8.30262e+57
          1938.87640	         7.53482e+57
          1939.68270	         8.13504e+57
          1940.48900	         8.10324e+57
          1941.29530	         8.11515e+57
          1942.10160	         8.28997e+57
          1942.90790	         7.17448e+57
          1943.71420	         5.00127e+57
          1944.52050	         4.35324e+57
          1945.32680	         5.23825e+57
          1946.13310	         7.25201e+57
          1946.93940	         8.72566e+57
          1947.74570	         7.33927e+57
          1948.55200	         7.27503e+57
          1949.35830	         6.41813e+57
          1950.16460	         6.22000e+57
          1950.97090	         6.50521e+57
          1951.77720	         7.70764e+57
          1952.58350	         8.18469e+57
          1953.38980	         6.79662e+57
          1954.19610	         4.65795e+57
          1955.00240	         4.88672e+57
          1955.80870	         6.10203e+57
          1956.61500	         6.13351e+57
          1957.42130	         5.71992e+57
          1958.22760	         6.48964e+57
          1959.03390	         7.64004e+57
          1959.84020	         7.07767e+57
          1960.64650	         6.24864e+57
          1961.45280	         6.51520e+57
          1962.25910	         6.10092e+57
          1963.06540	         6.18867e+57
          1963.87170	         7.48255e+57
          1964.67800	         7.29552e+57
          1965.48430	         5.61207e+57
          1966.29060	         5.90186e+57
          1967.09690	         6.88422e+57
          1967.90320	         5.83627e+57
          1968.70950	         6.02889e+57
          1969.51580	         6.09430e+57
          1970.32210	         7.08174e+57
          1971.12840	         7.24618e+57
          1971.93470	         5.96358e+57
          1972.74100	         4.83706e+57
          1973.54730	         5.42852e+57
          1974.35360	         6.03939e+57
          1975.15990	         6.63288e+57
          1975.96620	         7.23718e+57
          1976.77250	         8.05116e+57
          1977.57880	         7.51257e+57
          1978.38510	         6.41679e+57
          1979.19140	         6.57745e+57
          1979.99770	         7.41562e+57
          1980.80400	         7.39429e+57
          1981.61030	         7.05099e+57
          1982.41660	         5.99612e+57
          1983.22290	         6.02795e+57
          1984.02920	         5.62870e+57
          1984.83550	         5.11501e+57
          1985.64180	         7.18076e+57
          1986.44810	         6.39629e+57
          1987.25440	         6.43487e+57
          1988.06070	         6.18263e+57
          1988.86700	         6.86633e+57
          1989.67330	         8.20815e+57
          1990.47960	         6.77893e+57
          1991.28590	         6.60447e+57
          1992.09220	         5.80662e+57
          1992.89850	         5.96817e+57
          1993.70480	         5.73617e+57
          1994.51110	         5.11729e+57
          1995.31740	         5.01855e+57
          1996.12370	         5.43247e+57
          1996.93000	         6.33173e+57
          1997.73630	         7.12410e+57
          1998.54260	         7.67210e+57
          1999.34890	         7.36150e+57
          2000.15520	         6.75983e+57
          2000.96150	         6.12987e+57
          2001.76780	         6.33805e+57
          2002.57410	         4.55062e+57
          2003.38040	         6.03301e+57
          2004.18670	         6.63341e+57
          2004.99300	         6.24405e+57
          2005.79930	         6.98556e+57
          2006.60560	         6.73699e+57
          2007.41190	         6.11368e+57
          2008.21820	         6.21921e+57
          2009.02450	         6.77200e+57
          2009.83080	         7.09503e+57
          2010.63710	         7.07335e+57
          2011.44340	         6.74001e+57
          2012.24970	         7.43265e+57
          2013.05600	         6.56576e+57
          2013.86230	         5.66845e+57
          2014.66860	         5.02177e+57
          2015.47490	         6.44119e+57
          2016.28120	         6.27967e+57
          2017.08750	         6.32526e+57
          2017.89380	         6.19165e+57
          2018.70010	         5.40117e+57
          2019.50640	         6.59253e+57
          2020.31270	         6.98878e+57
          2021.11900	         7.44521e+57
          2021.92530	         6.91667e+57
          2022.73160	         6.81359e+57
          2023.53790	         7.01541e+57
          2024.34420	         4.73972e+57
          2025.15050	         5.03777e+57
          2025.95680	         5.47276e+57
          2026.76310	         5.68880e+57
          2027.56940	         5.88832e+57
          2028.37570	         6.42620e+57
          2029.18200	         6.14523e+57
          2029.98830	         5.55501e+57
          2030.79460	         5.90845e+57
          2031.60090	         6.41605e+57
          2032.40720	         4.72095e+57
          2033.21350	         4.29945e+57
          2034.01980	         4.81838e+57
          2034.82610	         5.14614e+57
          2035.63240	         4.93668e+57
          2036.43870	         4.38079e+57
          2037.24500	         6.18140e+57
          2038.05130	         6.17779e+57
          2038.85760	         5.70611e+57
          2039.66390	         6.20301e+57
          2040.47020	         6.08621e+57
          2041.27650	         5.41725e+57
          2042.08280	         5.14898e+57
          2042.88910	         5.26435e+57
          2043.69540	         6.61125e+57
          2044.50170	         6.86547e+57
          2045.30800	         4.70095e+57
          2046.11430	         2.23271e+57
          2046.92060	         5.08210e+57
          2047.72690	         7.36415e+57
          2048.53320	         5.71499e+57
          2049.33950	         3.52667e+57
          2050.14580	         3.40321e+57
          2050.95210	         5.22009e+57
          2051.75840	         8.03039e+57
          2052.56470	         6.27572e+57
          2053.37100	         5.31239e+57
          2054.17730	         4.74188e+57
          2054.98360	         3.95233e+57
          2055.78990	         2.51126e+57
          2056.59620	         1.98723e+57
          2057.40250	         4.39338e+57
          2058.20880	         6.47648e+57
          2059.01510	         6.62573e+57
          2059.82140	         6.23634e+57
          2060.62770	         1.07103e+58
          2061.43400	         1.53924e+58
          2062.24030	         1.05629e+58
          2063.04660	         6.58885e+57
          2063.85290	         2.65298e+57
          2064.65920	        -4.02183e+56
          2065.46550	        -7.23791e+57
          2066.27180	        -7.61809e+57
          2067.07810	         5.75821e+57
          2067.88440	         7.03226e+57
          2068.69070	         5.56014e+57
          2069.49700	         3.69528e+57
          2070.30330	         3.41333e+57
          2071.10960	         6.00628e+57
          2071.91590	         6.23556e+57
          2072.72220	         4.30960e+57
          2073.52850	         5.34881e+57
          2074.33480	         5.18967e+57
          2075.14110	         4.54191e+57
          2075.94740	         4.82185e+57
          2076.75370	         5.78828e+57
          2077.56000	         4.57854e+57
          2078.36630	         6.02089e+57
          2079.17260	         5.03778e+57
          2079.97890	         5.76774e+57
          2080.78520	         5.67697e+57
          2081.59150	         4.63794e+57
          2082.39780	         5.06282e+57
          2083.20410	         4.18179e+57
          2084.01040	         3.38924e+57
          2084.81670	         3.52365e+57
          2085.62300	         2.91655e+57
          2086.42930	         3.71879e+57
          2087.23560	         3.56694e+57
          2088.04190	         4.65044e+57
          2088.84820	         5.67192e+57
          2089.65450	         4.12528e+57
          2090.46080	         2.11112e+57
          2091.26710	         3.20327e+57
          2092.07340	         4.04830e+57
          2092.87970	         2.76618e+57
          2093.68600	        -3.44931e+56
          2094.49230	         4.19071e+56
          2095.29860	         5.59833e+57
          2096.10490	         3.92215e+57
          2096.91120	         3.21411e+57
          2097.71750	         2.07371e+57
          2098.52380	         1.80263e+57
          2099.33010	         7.57876e+56
          2100.13640	         4.95241e+56
          2100.94270	         1.84913e+57
          2101.74900	         2.87530e+57
          2102.55530	         3.97240e+57
          2103.36160	         2.58545e+57
          2104.16790	         3.77793e+57
          2104.97420	         3.77213e+57
          2105.78050	         1.15485e+57
          2106.58680	        -5.09129e+56
          2107.39310	        -3.16988e+57
          2108.19940	         1.57295e+56
          2109.00570	        -1.13337e+57
          2109.81200	         1.75547e+56
          2110.61830	         2.40457e+57
          2111.42460	         5.25253e+56
          2112.23090	        -8.69992e+55
          2113.03720	        -2.44324e+57
          2113.84350	        -1.42782e+57
          2114.64980	         3.13183e+56
          2115.45610	        -2.57305e+57
          2116.26240	        -2.55041e+57
          2117.06870	        -4.18386e+56
          2117.87500	        -2.40334e+57
          2118.68130	        -2.68729e+57
          2119.48760	        -6.23726e+56
          2120.29390	         1.50557e+57
          2121.10020	        -5.19901e+57
          2121.90650	        -4.62272e+57
          2122.71280	         3.31579e+57
          2123.51910	         1.20991e+57
          2124.32540	         4.01524e+56
          2125.13170	        -2.52956e+57
          2125.93800	         1.75278e+57
          2126.74430	         2.63502e+57
          2127.55060	        -4.51130e+57
          2128.35690	        -5.16680e+56
          2129.16320	         9.77377e+56
          2129.96950	        -2.68989e+57
          2130.77580	         1.15176e+57
          2131.58210	         7.66877e+57
          2132.38840	         3.77729e+57
          2133.19470	        -2.53698e+57
          2134.00100	        -5.41972e+57
          2134.80730	        -7.69193e+57
          2135.61360	         2.45571e+57
          2136.41990	         1.46052e+57
          2137.22620	         5.53977e+57
          2138.03250	        -3.71162e+56
          2138.83880	        -9.22868e+57
          2139.64510	        -3.31599e+57
          2140.45140	        -7.25911e+57
          2141.25770	        -1.26004e+58
          2142.06400	        -1.20444e+58
          2142.87030	        -3.16112e+57
          2143.67660	         6.78727e+57
          2144.48290	         6.96649e+57
          2145.28920	         8.91476e+57
          2146.09550	        -8.62457e+57
          2146.90180	        -5.33272e+57
          2147.70810	        -8.66067e+56
          2148.51440	        -1.17722e+57
          2149.32070	        -6.05766e+57
          2150.12700	        -1.51939e+58
          2150.93330	        -6.88680e+57
          2151.73960	        -6.19015e+57
          2152.54590	         1.64987e+57
          2153.35220	        -4.93668e+56
          2154.15850	        -3.03775e+57
          2154.96480	         3.18791e+57
          2155.77110	        -3.38367e+57
          2156.57740	        -1.34172e+58
          2157.38370	         1.49559e+57
          2158.19000	         1.16064e+57
          2158.99630	        -1.05330e+58
          2159.80260	        -1.53155e+58
          2160.60890	        -2.86829e+57
          2161.41520	        -1.27228e+58
          2162.22150	        -1.46312e+57
          2163.02780	        -3.37098e+56
          2163.83410	        -1.05692e+57
          2164.64040	        -8.90382e+57
          2165.44670	        -8.45379e+57
          2166.25300	        -5.93248e+57
          2167.05930	         1.96686e+57
          2167.86560	        -1.20314e+58
          2168.67190	        -7.21686e+57
          2169.47820	         2.75055e+57
          2170.28450	        -3.10442e+57
          2171.09080	        -7.59865e+57
          2171.89710	        -7.06946e+57
          2172.70340	        -6.21427e+57
          2173.50970	        -7.41165e+57
          2174.31600	        -5.12027e+57
          2175.12230	        -1.40199e+57
          2175.92860	        -2.87151e+57
          2176.73490	        -2.80788e+57
          2177.54120	        -7.46732e+57
          2178.34750	        -4.88719e+57
          2179.15380	                 nan
          2179.96010	                 nan
          2180.76640	                 nan
          2181.57270	                 nan
          2182.37900	                 nan
          2183.18530	                 nan
          2183.99160	                 nan
          2184.79790	                 nan
          2185.60420	                 nan
          2186.41050	                 nan
          2187.21680	                 nan
          2188.02310	                 nan
          2188.82940	                 nan
          2189.63570	                 nan
          2190.44200	                 nan
          2191.24830	                 nan
          2192.05460	                 nan
          2192.86090	                 nan
          2193.66720	                 nan
          2194.47350	                 nan
          2195.27980	                 nan
          2196.08610	                 nan
          2196.89240	                 nan
          2197.69870	                 nan
          2198.50500	                 nan
          2199.31130	                 nan
          2200.11760	                 nan
          2200.92390	                 nan
          2201.73020	                 nan
          2202.53650	                 nan
          2203.34280	                 nan
          2204.14910	                 nan
          2204.95540	                 nan
          2205.76170	                 nan
          2206.56800	                 nan
          2207.37430	                 nan
          2208.18060	                 nan
          2208.98690	                 nan
          2209.79320	                 nan
          2210.59950	                 nan
          2211.40580	                 nan
          2212.21210	                 nan
          2213.01840	                 nan
          2213.82470	                 nan
          2214.63100	                 nan
          2215.43730	         0.00000e+00
