#sample_33_stacked_spectrum_rest_UV-bands_median_H-alpha_noDC.txt
#median Lum: 1.69166e+42
#Rest-frame wavelength (A) | Luminosity (erg/s/A)
#
          1110.00000	         0.00000e+00
          1110.80630	         2.86566e+59
          1111.61260	         1.39113e+59
          1112.41890	         1.08078e+59
          1113.22520	        -3.96161e+57
          1114.03150	         2.14012e+59
          1114.83780	         3.95301e+59
          1115.64410	         8.92555e+58
          1116.45040	         3.42381e+58
          1117.25670	         1.02672e+59
          1118.06300	         5.58986e+58
          1118.86930	         1.62882e+58
          1119.67560	         6.22049e+58
          1120.48190	        -6.63939e+58
          1121.28820	        -1.36417e+59
          1122.09450	        -7.91178e+57
          1122.90080	         2.11774e+58
          1123.70710	         1.19090e+59
          1124.51340	         3.37398e+58
          1125.31970	        -3.40188e+58
          1126.12600	         1.11339e+58
          1126.93230	        -2.78276e+58
          1127.73860	        -2.63601e+58
          1128.54490	        -4.59988e+58
          1129.35120	        -3.27781e+58
          1130.15750	        -3.82885e+58
          1130.96380	        -1.61010e+58
          1131.77010	         2.03106e+58
          1132.57640	         8.03225e+58
          1133.38270	         6.05100e+58
          1134.18900	        -4.03188e+57
          1134.99530	         7.92508e+57
          1135.80160	         1.05404e+58
          1136.60790	         1.94480e+58
          1137.41420	        -1.93022e+58
          1138.22050	         2.06259e+58
          1139.02680	         3.55192e+58
          1139.83310	         1.63346e+58
          1140.63940	         1.81763e+58
          1141.44570	        -1.48367e+58
          1142.25200	        -2.02864e+58
          1143.05830	         3.04125e+58
          1143.86460	         2.35695e+58
          1144.67090	         3.15987e+58
          1145.47720	         1.85010e+58
          1146.28350	         1.72523e+58
          1147.08980	         6.78541e+57
          1147.89610	         8.95879e+57
          1148.70240	         2.49322e+58
          1149.50870	         2.82284e+58
          1150.31500	         7.42283e+57
          1151.12130	        -7.07453e+56
          1151.92760	         3.35936e+57
          1152.73390	         1.12644e+57
          1153.54020	         5.68675e+57
          1154.34650	         1.77110e+58
          1155.15280	         1.80692e+58
          1155.95910	         1.16066e+58
          1156.76540	         1.08169e+58
          1157.57170	        -2.90110e+56
          1158.37800	        -1.09171e+58
          1159.18430	         6.55391e+56
          1159.99060	         7.96740e+57
          1160.79690	         4.37140e+57
          1161.60320	         1.15690e+58
          1162.40950	         1.86641e+58
          1163.21580	         1.05820e+58
          1164.02210	         1.33510e+58
          1164.82840	         3.63497e+57
          1165.63470	         1.99679e+58
          1166.44100	         3.20200e+58
          1167.24730	         2.14196e+58
          1168.05360	         5.22112e+57
          1168.85990	        -6.94568e+56
          1169.66620	         8.61122e+57
          1170.47250	         9.58308e+57
          1171.27880	         1.13931e+58
          1172.08510	         1.67831e+58
          1172.89140	         1.30267e+58
          1173.69770	         8.33729e+57
          1174.50400	         1.65857e+58
          1175.31030	         2.15539e+58
          1176.11660	         1.65691e+58
          1176.92290	         1.48891e+58
          1177.72920	         1.25391e+58
          1178.53550	         1.56927e+58
          1179.34180	         7.25228e+57
          1180.14810	         6.54807e+57
          1180.95440	         8.90991e+57
          1181.76070	         9.50354e+57
          1182.56700	         1.23057e+58
          1183.37330	         8.52108e+57
          1184.17960	         9.87748e+57
          1184.98590	         7.61128e+57
          1185.79220	         8.09658e+57
          1186.59850	         1.05996e+58
          1187.40480	         9.24665e+57
          1188.21110	         1.01042e+58
          1189.01740	         9.10575e+57
          1189.82370	         1.04615e+58
          1190.63000	         1.24615e+58
          1191.43630	         1.20165e+58
          1192.24260	         6.91454e+57
          1193.04890	         9.49275e+57
          1193.85520	         1.36753e+58
          1194.66150	         7.65034e+57
          1195.46780	         6.37215e+57
          1196.27410	         8.64261e+57
          1197.08040	         1.11472e+58
          1197.88670	         1.53163e+58
          1198.69300	         1.58054e+58
          1199.49930	         1.78968e+58
          1200.30560	         1.29111e+58
          1201.11190	         1.08612e+58
          1201.91820	         7.34467e+57
          1202.72450	         5.92105e+57
          1203.53080	         1.29604e+58
          1204.33710	         8.78909e+57
          1205.14340	         9.23832e+57
          1205.94970	         4.94144e+57
          1206.75600	         7.87365e+57
          1207.56230	         9.42559e+57
          1208.36860	         8.93050e+57
          1209.17490	         3.12829e+57
          1209.98120	         5.74624e+57
          1210.78750	         3.48297e+57
          1211.59380	         6.45225e+57
          1212.40010	         1.47344e+58
          1213.20640	         1.88574e+58
          1214.01270	         2.07587e+58
          1214.81900	         2.46986e+58
          1215.62530	         4.34865e+58
          1216.43160	         9.08923e+58
          1217.23790	         1.53438e+59
          1218.04420	         1.18274e+59
          1218.85050	         8.75427e+58
          1219.65680	         5.57963e+58
          1220.46310	         3.05039e+58
          1221.26940	         2.32321e+58
          1222.07570	         1.52914e+58
          1222.88200	         1.19299e+58
          1223.68830	         1.21054e+58
          1224.49460	         7.50283e+57
          1225.30090	         6.96875e+57
          1226.10720	         6.38214e+57
          1226.91350	         5.38325e+57
          1227.71980	         8.88543e+57
          1228.52610	         1.40545e+58
          1229.33240	         7.76763e+57
          1230.13870	         5.33257e+57
          1230.94500	         7.11841e+57
          1231.75130	         5.80922e+57
          1232.55760	         9.74835e+57
          1233.36390	         1.22602e+58
          1234.17020	         8.32089e+57
          1234.97650	         8.73459e+57
          1235.78280	         9.26327e+57
          1236.58910	         8.65202e+57
          1237.39540	         1.09961e+58
          1238.20170	         1.02790e+58
          1239.00800	         1.12561e+58
          1239.81430	         1.73092e+58
          1240.62060	         1.43588e+58
          1241.42690	         1.18174e+58
          1242.23320	         1.00677e+58
          1243.03950	         7.60200e+57
          1243.84580	         7.10989e+57
          1244.65210	         1.06940e+58
          1245.45840	         1.11236e+58
          1246.26470	         9.62221e+57
          1247.07100	         7.63399e+57
          1247.87730	         8.52475e+57
          1248.68360	         5.03873e+57
          1249.48990	         1.09909e+58
          1250.29620	         1.15050e+58
          1251.10250	         6.79990e+57
          1251.90880	         6.79027e+57
          1252.71510	         8.28032e+57
          1253.52140	         7.23129e+57
          1254.32770	         9.77086e+57
          1255.13400	         1.40134e+58
          1255.94030	         1.13907e+58
          1256.74660	         9.65826e+57
          1257.55290	         8.67783e+57
          1258.35920	         6.16584e+57
          1259.16550	         4.51195e+57
          1259.97180	         2.95268e+57
          1260.77810	         6.34649e+57
          1261.58440	         9.47168e+57
          1262.39070	         7.03409e+57
          1263.19700	         7.83197e+57
          1264.00330	         1.03216e+58
          1264.80960	         1.06946e+58
          1265.61590	         1.22876e+58
          1266.42220	         1.28731e+58
          1267.22850	         1.15796e+58
          1268.03480	         1.48868e+58
          1268.84110	         1.53037e+58
          1269.64740	         1.30103e+58
          1270.45370	         1.21948e+58
          1271.26000	         1.02296e+58
          1272.06630	         1.00009e+58
          1272.87260	         1.31620e+58
          1273.67890	         1.48109e+58
          1274.48520	         1.36752e+58
          1275.29150	         1.31842e+58
          1276.09780	         1.02592e+58
          1276.90410	         1.37966e+58
          1277.71040	         1.27356e+58
          1278.51670	         9.36299e+57
          1279.32300	         1.24390e+58
          1280.12930	         1.33549e+58
          1280.93560	         1.01970e+58
          1281.74190	         1.03292e+58
          1282.54820	         1.29430e+58
          1283.35450	         1.05768e+58
          1284.16080	         1.21254e+58
          1284.96710	         1.26652e+58
          1285.77340	         1.12576e+58
          1286.57970	         1.10356e+58
          1287.38600	         1.47570e+58
          1288.19230	         1.89878e+58
          1288.99860	         1.49026e+58
          1289.80490	         9.46807e+57
          1290.61120	         1.30130e+58
          1291.41750	         1.23023e+58
          1292.22380	         9.80162e+57
          1293.03010	         9.77778e+57
          1293.83640	         9.55456e+57
          1294.64270	         8.86623e+57
          1295.44900	         6.22739e+57
          1296.25530	         6.26842e+57
          1297.06160	         8.18086e+57
          1297.86790	         1.00193e+58
          1298.67420	         1.16640e+58
          1299.48050	         1.05068e+58
          1300.28680	         1.01985e+58
          1301.09310	         9.62771e+57
          1301.89940	         4.97159e+57
          1302.70570	         4.21483e+57
          1303.51200	         6.35830e+57
          1304.31830	         1.00517e+58
          1305.12460	         1.17432e+58
          1305.93090	         1.13081e+58
          1306.73720	         1.19745e+58
          1307.54350	         1.46888e+58
          1308.34980	         1.56054e+58
          1309.15610	         1.50623e+58
          1309.96240	         1.47180e+58
          1310.76870	         1.53767e+58
          1311.57500	         1.61249e+58
          1312.38130	         1.23519e+58
          1313.18760	         1.17553e+58
          1313.99390	         1.55516e+58
          1314.80020	         1.65780e+58
          1315.60650	         1.42936e+58
          1316.41280	         1.33783e+58
          1317.21910	         1.10411e+58
          1318.02540	         9.57888e+57
          1318.83170	         1.20138e+58
          1319.63800	         1.21185e+58
          1320.44430	         1.08269e+58
          1321.25060	         1.14634e+58
          1322.05690	         1.34512e+58
          1322.86320	         1.28843e+58
          1323.66950	         1.13845e+58
          1324.47580	         8.65400e+57
          1325.28210	         9.70012e+57
          1326.08840	         1.29618e+58
          1326.89470	         1.34930e+58
          1327.70100	         1.05650e+58
          1328.50730	         7.82786e+57
          1329.31360	         1.00438e+58
          1330.11990	         9.16031e+57
          1330.92620	         6.94822e+57
          1331.73250	         1.03082e+58
          1332.53880	         9.65521e+57
          1333.34510	         7.56085e+57
          1334.15140	         8.37211e+57
          1334.95770	         9.01885e+57
          1335.76400	         1.01108e+58
          1336.57030	         9.92170e+57
          1337.37660	         9.45569e+57
          1338.18290	         9.36341e+57
          1338.98920	         1.13486e+58
          1339.79550	         1.25657e+58
          1340.60180	         1.20703e+58
          1341.40810	         1.23263e+58
          1342.21440	         1.14742e+58
          1343.02070	         1.10646e+58
          1343.82700	         1.32425e+58
          1344.63330	         1.17761e+58
          1345.43960	         1.15313e+58
          1346.24590	         1.16022e+58
          1347.05220	         1.26213e+58
          1347.85850	         9.91546e+57
          1348.66480	         1.05092e+58
          1349.47110	         1.34898e+58
          1350.27740	         1.27101e+58
          1351.08370	         1.16454e+58
          1351.89000	         1.16111e+58
          1352.69630	         1.09464e+58
          1353.50260	         1.11628e+58
          1354.30890	         1.24611e+58
          1355.11520	         1.19502e+58
          1355.92150	         1.01946e+58
          1356.72780	         9.25853e+57
          1357.53410	         1.07219e+58
          1358.34040	         1.21592e+58
          1359.14670	         1.11225e+58
          1359.95300	         1.06458e+58
          1360.75930	         1.01684e+58
          1361.56560	         9.77219e+57
          1362.37190	         1.14118e+58
          1363.17820	         1.12386e+58
          1363.98450	         1.18747e+58
          1364.79080	         1.33980e+58
          1365.59710	         1.26850e+58
          1366.40340	         1.08799e+58
          1367.20970	         9.74012e+57
          1368.01600	         9.23987e+57
          1368.82230	         1.00222e+58
          1369.62860	         1.12494e+58
          1370.43490	         1.09495e+58
          1371.24120	         1.13643e+58
          1372.04750	         9.59229e+57
          1372.85380	         1.09128e+58
          1373.66010	         1.24108e+58
          1374.46640	         1.13833e+58
          1375.27270	         1.16098e+58
          1376.07900	         1.03993e+58
          1376.88530	         9.38623e+57
          1377.69160	         8.82402e+57
          1378.49790	         6.09961e+57
          1379.30420	         7.29126e+57
          1380.11050	         1.05632e+58
          1380.91680	         8.44461e+57
          1381.72310	         7.05449e+57
          1382.52940	         8.14438e+57
          1383.33570	         8.49289e+57
          1384.14200	         9.24039e+57
          1384.94830	         9.48200e+57
          1385.75460	         9.02714e+57
          1386.56090	         9.68533e+57
          1387.36720	         8.76826e+57
          1388.17350	         1.25492e+58
          1388.97980	         1.40011e+58
          1389.78610	         8.94546e+57
          1390.59240	         5.70076e+57
          1391.39870	         6.21080e+57
          1392.20500	         7.14132e+57
          1393.01130	         6.79697e+57
          1393.81760	         7.23121e+57
          1394.62390	         7.67088e+57
          1395.43020	         6.78844e+57
          1396.23650	         6.35018e+57
          1397.04280	         7.09481e+57
          1397.84910	         8.21892e+57
          1398.65540	         8.57480e+57
          1399.46170	         9.34646e+57
          1400.26800	         9.04695e+57
          1401.07430	         8.21179e+57
          1401.88060	         7.43546e+57
          1402.68690	         8.79515e+57
          1403.49320	         1.02751e+58
          1404.29950	         9.51835e+57
          1405.10580	         1.08402e+58
          1405.91210	         1.06302e+58
          1406.71840	         9.97685e+57
          1407.52470	         1.06489e+58
          1408.33100	         1.02933e+58
          1409.13730	         1.05432e+58
          1409.94360	         1.16051e+58
          1410.74990	         1.16332e+58
          1411.55620	         9.50051e+57
          1412.36250	         8.24738e+57
          1413.16880	         9.11417e+57
          1413.97510	         8.83135e+57
          1414.78140	         8.44391e+57
          1415.58770	         9.75985e+57
          1416.39400	         1.01908e+58
          1417.20030	         1.15144e+58
          1418.00660	         1.03497e+58
          1418.81290	         1.00633e+58
          1419.61920	         1.10040e+58
          1420.42550	         1.28378e+58
          1421.23180	         1.28947e+58
          1422.03810	         1.26241e+58
          1422.84440	         1.29812e+58
          1423.65070	         1.28349e+58
          1424.45700	         1.10063e+58
          1425.26330	         9.64017e+57
          1426.06960	         1.00085e+58
          1426.87590	         1.08663e+58
          1427.68220	         9.79336e+57
          1428.48850	         1.04318e+58
          1429.29480	         1.10882e+58
          1430.10110	         1.05789e+58
          1430.90740	         9.14769e+57
          1431.71370	         8.71516e+57
          1432.52000	         8.17138e+57
          1433.32630	         7.62396e+57
          1434.13260	         7.58822e+57
          1434.93890	         8.37622e+57
          1435.74520	         1.01342e+58
          1436.55150	         9.26005e+57
          1437.35780	         8.70837e+57
          1438.16410	         1.03253e+58
          1438.97040	         1.01432e+58
          1439.77670	         8.82843e+57
          1440.58300	         8.76339e+57
          1441.38930	         9.52488e+57
          1442.19560	         9.65004e+57
          1443.00190	         9.25846e+57
          1443.80820	         1.07361e+58
          1444.61450	         1.03823e+58
          1445.42080	         8.92401e+57
          1446.22710	         1.07592e+58
          1447.03340	         1.03614e+58
          1447.83970	         9.84476e+57
          1448.64600	         9.78304e+57
          1449.45230	         9.31164e+57
          1450.25860	         9.93852e+57
          1451.06490	         8.67633e+57
          1451.87120	         7.50457e+57
          1452.67750	         7.84820e+57
          1453.48380	         8.66066e+57
          1454.29010	         7.95520e+57
          1455.09640	         8.11904e+57
          1455.90270	         8.74003e+57
          1456.70900	         8.84488e+57
          1457.51530	         9.72332e+57
          1458.32160	         1.22417e+58
          1459.12790	         1.15969e+58
          1459.93420	         9.40445e+57
          1460.74050	         6.98637e+57
          1461.54680	         7.10603e+57
          1462.35310	         8.14074e+57
          1463.15940	         9.79641e+57
          1463.96570	         1.09502e+58
          1464.77200	         1.15246e+58
          1465.57830	         1.10991e+58
          1466.38460	         8.74393e+57
          1467.19090	         6.68679e+57
          1467.99720	         7.33516e+57
          1468.80350	         9.32819e+57
          1469.60980	         1.05887e+58
          1470.41610	         1.00009e+58
          1471.22240	         8.53369e+57
          1472.02870	         9.30856e+57
          1472.83500	         9.24215e+57
          1473.64130	         8.36656e+57
          1474.44760	         9.68088e+57
          1475.25390	         9.77488e+57
          1476.06020	         9.36814e+57
          1476.86650	         8.79006e+57
          1477.67280	         7.60001e+57
          1478.47910	         7.18728e+57
          1479.28540	         7.14706e+57
          1480.09170	         8.16007e+57
          1480.89800	         8.87021e+57
          1481.70430	         8.38478e+57
          1482.51060	         8.06699e+57
          1483.31690	         7.92320e+57
          1484.12320	         8.29786e+57
          1484.92950	         7.17840e+57
          1485.73580	         7.09922e+57
          1486.54210	         8.82574e+57
          1487.34840	         8.66119e+57
          1488.15470	         8.14082e+57
          1488.96100	         7.99882e+57
          1489.76730	         7.69008e+57
          1490.57360	         7.89460e+57
          1491.37990	         7.87772e+57
          1492.18620	         8.34867e+57
          1492.99250	         8.51266e+57
          1493.79880	         9.28295e+57
          1494.60510	         8.35697e+57
          1495.41140	         6.84660e+57
          1496.21770	         8.37799e+57
          1497.02400	         1.04031e+58
          1497.83030	         8.93570e+57
          1498.63660	         6.59301e+57
          1499.44290	         6.60126e+57
          1500.24920	         7.76767e+57
          1501.05550	         7.69962e+57
          1501.86180	         9.21611e+57
          1502.66810	         1.00821e+58
          1503.47440	         8.98033e+57
          1504.28070	         7.64535e+57
          1505.08700	         8.81202e+57
          1505.89330	         9.31257e+57
          1506.69960	         7.99620e+57
          1507.50590	         8.33791e+57
          1508.31220	         9.06389e+57
          1509.11850	         8.94149e+57
          1509.92480	         9.36895e+57
          1510.73110	         9.38950e+57
          1511.53740	         7.15689e+57
          1512.34370	         7.26775e+57
          1513.15000	         9.17098e+57
          1513.95630	         9.68553e+57
          1514.76260	         8.39965e+57
          1515.56890	         7.25309e+57
          1516.37520	         8.85125e+57
          1517.18150	         9.49256e+57
          1517.98780	         8.08712e+57
          1518.79410	         7.50006e+57
          1519.60040	         8.43540e+57
          1520.40670	         9.36270e+57
          1521.21300	         9.21278e+57
          1522.01930	         7.76301e+57
          1522.82560	         8.55424e+57
          1523.63190	         1.03320e+58
          1524.43820	         8.83517e+57
          1525.24450	         6.29017e+57
          1526.05080	         5.91305e+57
          1526.85710	         5.90754e+57
          1527.66340	         6.29610e+57
          1528.46970	         7.90237e+57
          1529.27600	         7.59322e+57
          1530.08230	         7.22613e+57
          1530.88860	         7.92082e+57
          1531.69490	         8.80718e+57
          1532.50120	         9.04478e+57
          1533.30750	         9.33437e+57
          1534.11380	         1.03449e+58
          1534.92010	         9.78930e+57
          1535.72640	         9.40975e+57
          1536.53270	         9.00727e+57
          1537.33900	         7.70950e+57
          1538.14530	         9.27256e+57
          1538.95160	         9.85388e+57
          1539.75790	         8.57368e+57
          1540.56420	         8.71022e+57
          1541.37050	         7.99217e+57
          1542.17680	         7.13353e+57
          1542.98310	         7.80093e+57
          1543.78940	         8.10521e+57
          1544.59570	         6.87797e+57
          1545.40200	         8.13002e+57
          1546.20830	         9.41408e+57
          1547.01460	         1.04210e+58
          1547.82090	         1.18180e+58
          1548.62720	         1.17072e+58
          1549.43350	         1.22703e+58
          1550.23980	         1.13563e+58
          1551.04610	         1.28693e+58
          1551.85240	         1.26635e+58
          1552.65870	         1.12031e+58
          1553.46500	         1.04267e+58
          1554.27130	         1.00124e+58
          1555.07760	         1.00237e+58
          1555.88390	         8.17523e+57
          1556.69020	         8.06565e+57
          1557.49650	         9.12570e+57
          1558.30280	         8.84593e+57
          1559.10910	         9.16167e+57
          1559.91540	         8.97738e+57
          1560.72170	         8.41697e+57
          1561.52800	         7.92732e+57
          1562.33430	         7.77608e+57
          1563.14060	         8.16039e+57
          1563.94690	         8.36524e+57
          1564.75320	         8.64287e+57
          1565.55950	         7.10441e+57
          1566.36580	         7.43820e+57
          1567.17210	         9.43092e+57
          1567.97840	         8.68795e+57
          1568.78470	         7.96844e+57
          1569.59100	         9.16781e+57
          1570.39730	         8.66565e+57
          1571.20360	         7.12271e+57
          1572.00990	         6.52758e+57
          1572.81620	         8.23473e+57
          1573.62250	         9.88074e+57
          1574.42880	         9.28803e+57
          1575.23510	         7.50259e+57
          1576.04140	         7.73101e+57
          1576.84770	         8.75668e+57
          1577.65400	         9.04371e+57
          1578.46030	         9.85978e+57
          1579.26660	         1.07276e+58
          1580.07290	         9.08170e+57
          1580.87920	         6.86816e+57
          1581.68550	         7.27199e+57
          1582.49180	         8.08399e+57
          1583.29810	         8.06121e+57
          1584.10440	         8.49220e+57
          1584.91070	         8.23311e+57
          1585.71700	         7.96756e+57
          1586.52330	         9.38075e+57
          1587.32960	         9.41113e+57
          1588.13590	         8.47670e+57
          1588.94220	         8.85960e+57
          1589.74850	         9.57914e+57
          1590.55480	         8.91951e+57
          1591.36110	         8.23333e+57
          1592.16740	         8.76116e+57
          1592.97370	         8.66833e+57
          1593.78000	         8.65288e+57
          1594.58630	         9.18094e+57
          1595.39260	         8.59267e+57
          1596.19890	         8.99638e+57
          1597.00520	         9.71307e+57
          1597.81150	         9.01844e+57
          1598.61780	         8.12716e+57
          1599.42410	         7.47001e+57
          1600.23040	         7.22436e+57
          1601.03670	         8.01138e+57
          1601.84300	         6.57275e+57
          1602.64930	         7.56049e+57
          1603.45560	         8.55350e+57
          1604.26190	         8.16272e+57
          1605.06820	         7.74528e+57
          1605.87450	         7.28164e+57
          1606.68080	         6.78343e+57
          1607.48710	         5.72698e+57
          1608.29340	         6.25997e+57
          1609.09970	         8.22512e+57
          1609.90600	         7.43802e+57
          1610.71230	         6.27016e+57
          1611.51860	         6.69314e+57
          1612.32490	         6.44766e+57
          1613.13120	         7.40462e+57
          1613.93750	         8.03828e+57
          1614.74380	         7.82663e+57
          1615.55010	         7.59095e+57
          1616.35640	         8.80304e+57
          1617.16270	         1.06316e+58
          1617.96900	         1.03712e+58
          1618.77530	         9.14060e+57
          1619.58160	         8.20943e+57
          1620.38790	         8.34543e+57
          1621.19420	         9.60436e+57
          1622.00050	         9.18259e+57
          1622.80680	         9.87408e+57
          1623.61310	         9.46757e+57
          1624.41940	         8.84560e+57
          1625.22570	         1.00084e+58
          1626.03200	         9.84747e+57
          1626.83830	         8.96735e+57
          1627.64460	         8.43713e+57
          1628.45090	         7.89720e+57
          1629.25720	         9.11111e+57
          1630.06350	         9.67203e+57
          1630.86980	         7.15160e+57
          1631.67610	         8.29065e+57
          1632.48240	         8.54438e+57
          1633.28870	         8.33544e+57
          1634.09500	         8.93609e+57
          1634.90130	         1.11216e+58
          1635.70760	         1.01514e+58
          1636.51390	         8.49753e+57
          1637.32020	         7.09880e+57
          1638.12650	         8.99666e+57
          1638.93280	         9.73718e+57
          1639.73910	         1.06395e+58
          1640.54540	         1.06504e+58
          1641.35170	         8.11427e+57
          1642.15800	         9.20147e+57
          1642.96430	         8.51716e+57
          1643.77060	         7.99190e+57
          1644.57690	         8.71805e+57
          1645.38320	         8.62106e+57
          1646.18950	         6.88063e+57
          1646.99580	         7.85421e+57
          1647.80210	         7.92366e+57
          1648.60840	         7.64120e+57
          1649.41470	         8.30009e+57
          1650.22100	         7.21364e+57
          1651.02730	         7.25897e+57
          1651.83360	         5.94915e+57
          1652.63990	         7.14657e+57
          1653.44620	         8.70558e+57
          1654.25250	         8.67109e+57
          1655.05880	         8.07027e+57
          1655.86510	         8.50920e+57
          1656.67140	         8.51597e+57
          1657.47770	         8.36917e+57
          1658.28400	         8.48376e+57
          1659.09030	         8.43494e+57
          1659.89660	         8.88941e+57
          1660.70290	         1.03216e+58
          1661.50920	         1.01916e+58
          1662.31550	         8.55937e+57
          1663.12180	         7.97137e+57
          1663.92810	         9.56331e+57
          1664.73440	         1.06592e+58
          1665.54070	         1.15506e+58
          1666.34700	         1.20332e+58
          1667.15330	         1.17921e+58
          1667.95960	         9.85970e+57
          1668.76590	         7.96549e+57
          1669.57220	         6.94159e+57
          1670.37850	         7.35669e+57
          1671.18480	         8.34381e+57
          1671.99110	         8.33670e+57
          1672.79740	         6.86960e+57
          1673.60370	         6.01601e+57
          1674.41000	         7.60653e+57
          1675.21630	         8.20620e+57
          1676.02260	         7.29237e+57
          1676.82890	         6.40213e+57
          1677.63520	         6.49388e+57
          1678.44150	         7.08205e+57
          1679.24780	         8.16743e+57
          1680.05410	         7.85484e+57
          1680.86040	         6.45482e+57
          1681.66670	         7.75034e+57
          1682.47300	         8.38615e+57
          1683.27930	         8.71726e+57
          1684.08560	         9.60434e+57
          1684.89190	         7.90459e+57
          1685.69820	         6.30998e+57
          1686.50450	         5.46171e+57
          1687.31080	         6.70095e+57
          1688.11710	         7.22218e+57
          1688.92340	         6.35357e+57
          1689.72970	         6.27643e+57
          1690.53600	         7.04302e+57
          1691.34230	         7.21988e+57
          1692.14860	         9.14128e+57
          1692.95490	         9.12566e+57
          1693.76120	         7.65424e+57
          1694.56750	         7.22046e+57
          1695.37380	         8.82250e+57
          1696.18010	         9.05670e+57
          1696.98640	         8.64440e+57
          1697.79270	         8.29202e+57
          1698.59900	         7.74718e+57
          1699.40530	         7.03476e+57
          1700.21160	         7.75648e+57
          1701.01790	         9.97012e+57
          1701.82420	         8.81285e+57
          1702.63050	         7.47503e+57
          1703.43680	         7.44222e+57
          1704.24310	         7.58804e+57
          1705.04940	         6.93474e+57
          1705.85570	         8.44286e+57
          1706.66200	         9.29284e+57
          1707.46830	         8.11844e+57
          1708.27460	         7.45760e+57
          1709.08090	         6.42057e+57
          1709.88720	         6.11492e+57
          1710.69350	         7.02552e+57
          1711.49980	         8.53220e+57
          1712.30610	         7.83274e+57
          1713.11240	         9.31529e+57
          1713.91870	         8.46237e+57
          1714.72500	         8.58011e+57
          1715.53130	         9.63220e+57
          1716.33760	         8.36799e+57
          1717.14390	         6.51260e+57
          1717.95020	         8.90557e+57
          1718.75650	         1.01257e+58
          1719.56280	         9.15335e+57
          1720.36910	         6.77586e+57
          1721.17540	         6.62631e+57
          1721.98170	         6.95012e+57
          1722.78800	         7.02023e+57
          1723.59430	         7.83109e+57
          1724.40060	         8.08131e+57
          1725.20690	         8.19802e+57
          1726.01320	         7.76998e+57
          1726.81950	         7.83441e+57
          1727.62580	         7.34491e+57
          1728.43210	         6.73439e+57
          1729.23840	         7.04209e+57
          1730.04470	         7.78860e+57
          1730.85100	         8.42553e+57
          1731.65730	         8.15282e+57
          1732.46360	         7.44004e+57
          1733.26990	         7.25721e+57
          1734.07620	         7.29580e+57
          1734.88250	         7.72803e+57
          1735.68880	         7.36902e+57
          1736.49510	         7.65918e+57
          1737.30140	         8.12561e+57
          1738.10770	         7.20168e+57
          1738.91400	         6.99789e+57
          1739.72030	         7.17652e+57
          1740.52660	         5.97628e+57
          1741.33290	         5.89946e+57
          1742.13920	         6.60614e+57
          1742.94550	         6.95520e+57
          1743.75180	         7.78091e+57
          1744.55810	         7.85869e+57
          1745.36440	         6.95657e+57
          1746.17070	         5.55255e+57
          1746.97700	         5.19029e+57
          1747.78330	         6.75324e+57
          1748.58960	         7.69951e+57
          1749.39590	         7.20177e+57
          1750.20220	         7.30286e+57
          1751.00850	         6.72694e+57
          1751.81480	         6.62209e+57
          1752.62110	         7.72037e+57
          1753.42740	         7.94255e+57
          1754.23370	         7.40668e+57
          1755.04000	         7.29946e+57
          1755.84630	         7.62212e+57
          1756.65260	         8.01160e+57
          1757.45890	         8.57779e+57
          1758.26520	         6.60004e+57
          1759.07150	         7.09628e+57
          1759.87780	         7.34422e+57
          1760.68410	         7.89703e+57
          1761.49040	         8.47860e+57
          1762.29670	         6.03714e+57
          1763.10300	         6.14769e+57
          1763.90930	         8.19139e+57
          1764.71560	         8.11308e+57
          1765.52190	         7.50614e+57
          1766.32820	         7.74913e+57
          1767.13450	         7.40936e+57
          1767.94080	         6.68578e+57
          1768.74710	         6.28068e+57
          1769.55340	         6.73559e+57
          1770.35970	         5.97707e+57
          1771.16600	         7.66112e+57
          1771.97230	         8.46354e+57
          1772.77860	         8.37114e+57
          1773.58490	         7.55252e+57
          1774.39120	         7.44476e+57
          1775.19750	         6.78143e+57
          1776.00380	         6.82040e+57
          1776.81010	         6.86315e+57
          1777.61640	         6.85415e+57
          1778.42270	         6.97043e+57
          1779.22900	         7.36532e+57
          1780.03530	         6.92814e+57
          1780.84160	         7.54627e+57
          1781.64790	         9.18186e+57
          1782.45420	         7.92042e+57
          1783.26050	         6.88183e+57
          1784.06680	         6.53662e+57
          1784.87310	         8.15092e+57
          1785.67940	         8.24660e+57
          1786.48570	         7.38923e+57
          1787.29200	         6.51912e+57
          1788.09830	         5.93863e+57
          1788.90460	         6.28817e+57
          1789.71090	         5.15023e+57
          1790.51720	         4.99105e+57
          1791.32350	         7.33065e+57
          1792.12980	         9.10033e+57
          1792.93610	         8.50491e+57
          1793.74240	         7.55281e+57
          1794.54870	         8.67219e+57
          1795.35500	         8.16129e+57
          1796.16130	         7.51253e+57
          1796.96760	         5.96912e+57
          1797.77390	         6.91486e+57
          1798.58020	         7.54121e+57
          1799.38650	         6.51810e+57
          1800.19280	         6.15718e+57
          1800.99910	         6.89560e+57
          1801.80540	         7.75605e+57
          1802.61170	         8.61671e+57
          1803.41800	         8.18353e+57
          1804.22430	         7.05251e+57
          1805.03060	         6.21962e+57
          1805.83690	         7.66187e+57
          1806.64320	         8.48375e+57
          1807.44950	         8.57406e+57
          1808.25580	         8.09565e+57
          1809.06210	         7.88506e+57
          1809.86840	         7.98109e+57
          1810.67470	         8.05402e+57
          1811.48100	         9.34987e+57
          1812.28730	         8.26663e+57
          1813.09360	         6.30985e+57
          1813.89990	         7.48701e+57
          1814.70620	         7.82155e+57
          1815.51250	         7.66902e+57
          1816.31880	         8.06795e+57
          1817.12510	         7.39466e+57
          1817.93140	         6.20847e+57
          1818.73770	         7.45740e+57
          1819.54400	         8.22168e+57
          1820.35030	         7.49927e+57
          1821.15660	         6.11238e+57
          1821.96290	         6.25950e+57
          1822.76920	         6.81537e+57
          1823.57550	         7.01447e+57
          1824.38180	         7.53649e+57
          1825.18810	         7.79010e+57
          1825.99440	         8.79010e+57
          1826.80070	         8.03928e+57
          1827.60700	         5.85691e+57
          1828.41330	         5.43123e+57
          1829.21960	         6.21493e+57
          1830.02590	         6.79101e+57
          1830.83220	         7.88577e+57
          1831.63850	         7.57191e+57
          1832.44480	         7.15211e+57
          1833.25110	         7.82967e+57
          1834.05740	         8.51345e+57
          1834.86370	         6.83377e+57
          1835.67000	         5.11637e+57
          1836.47630	         6.69594e+57
          1837.28260	         8.74370e+57
          1838.08890	         8.44609e+57
          1838.89520	         8.20737e+57
          1839.70150	         7.72359e+57
          1840.50780	         7.55349e+57
          1841.31410	         7.00287e+57
          1842.12040	         7.00790e+57
          1842.92670	         6.43565e+57
          1843.73300	         6.81659e+57
          1844.53930	         6.83820e+57
          1845.34560	         6.86466e+57
          1846.15190	         7.19230e+57
          1846.95820	         7.87507e+57
          1847.76450	         7.92064e+57
          1848.57080	         6.08119e+57
          1849.37710	         6.16015e+57
          1850.18340	         6.97365e+57
          1850.98970	         7.48875e+57
          1851.79600	         8.57367e+57
          1852.60230	         7.03535e+57
          1853.40860	         6.19395e+57
          1854.21490	         6.45829e+57
          1855.02120	         5.76539e+57
          1855.82750	         4.17951e+57
          1856.63380	         6.19108e+57
          1857.44010	         6.54038e+57
          1858.24640	         7.40344e+57
          1859.05270	         8.01419e+57
          1859.85900	         6.27782e+57
          1860.66530	         7.20606e+57
          1861.47160	         7.35535e+57
          1862.27790	         7.37848e+57
          1863.08420	         8.41578e+57
          1863.89050	         8.39495e+57
          1864.69680	         6.65952e+57
          1865.50310	         7.35360e+57
          1866.30940	         6.82539e+57
          1867.11570	         5.89524e+57
          1867.92200	         6.80309e+57
          1868.72830	         7.02919e+57
          1869.53460	         6.96582e+57
          1870.34090	         7.48152e+57
          1871.14720	         7.55298e+57
          1871.95350	         7.12265e+57
          1872.75980	         6.67274e+57
          1873.56610	         5.86946e+57
          1874.37240	         5.22502e+57
          1875.17870	         5.20236e+57
          1875.98500	         7.83121e+57
          1876.79130	         8.07818e+57
          1877.59760	         7.23022e+57
          1878.40390	         5.77353e+57
          1879.21020	         6.00732e+57
          1880.01650	         7.67330e+57
          1880.82280	         8.70769e+57
          1881.62910	         9.20581e+57
          1882.43540	         9.62580e+57
          1883.24170	         7.78410e+57
          1884.04800	         6.68587e+57
          1884.85430	         6.91798e+57
          1885.66060	         6.91975e+57
          1886.46690	         7.78528e+57
          1887.27320	         7.79768e+57
          1888.07950	         6.61144e+57
          1888.88580	         6.71301e+57
          1889.69210	         7.97769e+57
          1890.49840	         7.51492e+57
          1891.30470	         7.35230e+57
          1892.11100	         8.61296e+57
          1892.91730	         8.67108e+57
          1893.72360	         8.19527e+57
          1894.52990	         7.72563e+57
          1895.33620	         7.64666e+57
          1896.14250	         7.25835e+57
          1896.94880	         6.09240e+57
          1897.75510	         4.02079e+57
          1898.56140	         6.79124e+57
          1899.36770	         8.34168e+57
          1900.17400	         5.65643e+57
          1900.98030	         6.41850e+57
          1901.78660	         7.69874e+57
          1902.59290	         7.31643e+57
          1903.39920	         7.28445e+57
          1904.20550	         8.83796e+57
          1905.01180	         9.03867e+57
          1905.81810	         1.00175e+58
          1906.62440	         1.15939e+58
          1907.43070	         1.42655e+58
          1908.23700	         1.61164e+58
          1909.04330	         1.30382e+58
          1909.84960	         1.08750e+58
          1910.65590	         1.01675e+58
          1911.46220	         9.21108e+57
          1912.26850	         7.17368e+57
          1913.07480	         5.78481e+57
          1913.88110	         5.32613e+57
          1914.68740	         5.43934e+57
          1915.49370	         5.87760e+57
          1916.30000	         5.85342e+57
          1917.10630	         6.78332e+57
          1917.91260	         6.59630e+57
          1918.71890	         6.91562e+57
          1919.52520	         6.76621e+57
          1920.33150	         5.80563e+57
          1921.13780	         6.81009e+57
          1921.94410	         8.08378e+57
          1922.75040	         7.69845e+57
          1923.55670	         7.75065e+57
          1924.36300	         6.89406e+57
          1925.16930	         5.84562e+57
          1925.97560	         4.96376e+57
          1926.78190	         5.02832e+57
          1927.58820	         6.66571e+57
          1928.39450	         6.16292e+57
          1929.20080	         5.94839e+57
          1930.00710	         8.03423e+57
          1930.81340	         8.87855e+57
          1931.61970	         7.52536e+57
          1932.42600	         6.97088e+57
          1933.23230	         7.08306e+57
          1934.03860	         6.58209e+57
          1934.84490	         7.44356e+57
          1935.65120	         7.17885e+57
          1936.45750	         7.02317e+57
          1937.26380	         6.27557e+57
          1938.07010	         6.86280e+57
          1938.87640	         7.70829e+57
          1939.68270	         8.00025e+57
          1940.48900	         8.20904e+57
          1941.29530	         7.14163e+57
          1942.10160	         7.02403e+57
          1942.90790	         6.62085e+57
          1943.71420	         6.13160e+57
          1944.52050	         6.20533e+57
          1945.32680	         6.11459e+57
          1946.13310	         7.90007e+57
          1946.93940	         8.26423e+57
          1947.74570	         7.51820e+57
          1948.55200	         7.01591e+57
          1949.35830	         6.98709e+57
          1950.16460	         5.69064e+57
          1950.97090	         6.87841e+57
          1951.77720	         7.77140e+57
          1952.58350	         7.81689e+57
          1953.38980	         6.28094e+57
          1954.19610	         4.94536e+57
          1955.00240	         4.98483e+57
          1955.80870	         5.86410e+57
          1956.61500	         6.34159e+57
          1957.42130	         6.16792e+57
          1958.22760	         7.33917e+57
          1959.03390	         7.52802e+57
          1959.84020	         7.52423e+57
          1960.64650	         7.14608e+57
          1961.45280	         6.43420e+57
          1962.25910	         6.43770e+57
          1963.06540	         5.27323e+57
          1963.87170	         5.89624e+57
          1964.67800	         5.48335e+57
          1965.48430	         7.37559e+57
          1966.29060	         6.14342e+57
          1967.09690	         6.29067e+57
          1967.90320	         6.85496e+57
          1968.70950	         7.27418e+57
          1969.51580	         5.57857e+57
          1970.32210	         6.32233e+57
          1971.12840	         6.89933e+57
          1971.93470	         4.17196e+57
          1972.74100	         5.12855e+57
          1973.54730	         5.63736e+57
          1974.35360	         7.73783e+57
          1975.15990	         7.89349e+57
          1975.96620	         5.64373e+57
          1976.77250	         6.56246e+57
          1977.57880	         7.33085e+57
          1978.38510	         5.61501e+57
          1979.19140	         6.67819e+57
          1979.99770	         8.34303e+57
          1980.80400	         7.09444e+57
          1981.61030	         7.98778e+57
          1982.41660	         6.32645e+57
          1983.22290	         6.44721e+57
          1984.02920	         5.79958e+57
          1984.83550	         5.36203e+57
          1985.64180	         5.88703e+57
          1986.44810	         6.98966e+57
          1987.25440	         6.03395e+57
          1988.06070	         5.54543e+57
          1988.86700	         6.14993e+57
          1989.67330	         7.20265e+57
          1990.47960	         7.70935e+57
          1991.28590	         7.66583e+57
          1992.09220	         6.64214e+57
          1992.89850	         5.81609e+57
          1993.70480	         4.44161e+57
          1994.51110	         5.10642e+57
          1995.31740	         5.05510e+57
          1996.12370	         5.36221e+57
          1996.93000	         6.39998e+57
          1997.73630	         6.86687e+57
          1998.54260	         7.37703e+57
          1999.34890	         7.47718e+57
          2000.15520	         6.49910e+57
          2000.96150	         7.09365e+57
          2001.76780	         5.11238e+57
          2002.57410	         3.90819e+57
          2003.38040	         5.34920e+57
          2004.18670	         5.85745e+57
          2004.99300	         6.15486e+57
          2005.79930	         6.32671e+57
          2006.60560	         6.55260e+57
          2007.41190	         6.54104e+57
          2008.21820	         5.96444e+57
          2009.02450	         6.58577e+57
          2009.83080	         7.19666e+57
          2010.63710	         6.83880e+57
          2011.44340	         6.14328e+57
          2012.24970	         6.63636e+57
          2013.05600	         7.06357e+57
          2013.86230	         5.61648e+57
          2014.66860	         5.81548e+57
          2015.47490	         7.50902e+57
          2016.28120	         6.33914e+57
          2017.08750	         5.75439e+57
          2017.89380	         6.16084e+57
          2018.70010	         5.75188e+57
          2019.50640	         5.18958e+57
          2020.31270	         5.92417e+57
          2021.11900	         7.39548e+57
          2021.92530	         7.80823e+57
          2022.73160	         6.43792e+57
          2023.53790	         6.32840e+57
          2024.34420	         6.75421e+57
          2025.15050	         5.84499e+57
          2025.95680	         5.62269e+57
          2026.76310	         7.68582e+57
          2027.56940	         6.65614e+57
          2028.37570	         6.66529e+57
          2029.18200	         6.66309e+57
          2029.98830	         4.68318e+57
          2030.79460	         5.42026e+57
          2031.60090	         5.59143e+57
          2032.40720	         5.21912e+57
          2033.21350	         4.75085e+57
          2034.01980	         4.94456e+57
          2034.82610	         4.70822e+57
          2035.63240	         4.82617e+57
          2036.43870	         5.61385e+57
          2037.24500	         5.73137e+57
          2038.05130	         7.18232e+57
          2038.85760	         6.46357e+57
          2039.66390	         5.92198e+57
          2040.47020	         5.97858e+57
          2041.27650	         5.25925e+57
          2042.08280	         4.38535e+57
          2042.88910	         4.72561e+57
          2043.69540	         6.30554e+57
          2044.50170	         6.94512e+57
          2045.30800	         6.72313e+57
          2046.11430	         5.38263e+57
          2046.92060	         5.90863e+57
          2047.72690	         7.09635e+57
          2048.53320	         5.95968e+57
          2049.33950	         4.58515e+57
          2050.14580	         5.31702e+57
          2050.95210	         5.72409e+57
          2051.75840	         6.85108e+57
          2052.56470	         3.79449e+57
          2053.37100	         3.65394e+57
          2054.17730	         4.55838e+57
          2054.98360	         4.57192e+57
          2055.78990	         2.78204e+57
          2056.59620	         3.74250e+57
          2057.40250	         5.60877e+57
          2058.20880	         7.14412e+57
          2059.01510	         5.90568e+57
          2059.82140	         6.14962e+57
          2060.62770	         1.00261e+58
          2061.43400	         1.58247e+58
          2062.24030	         1.08880e+58
          2063.04660	         3.11179e+57
          2063.85290	         2.18502e+57
          2064.65920	         4.24928e+56
          2065.46550	        -8.40082e+57
          2066.27180	        -9.23222e+57
          2067.07810	         3.59400e+57
          2067.88440	         7.67382e+57
          2068.69070	         6.28758e+57
          2069.49700	         5.71369e+57
          2070.30330	         5.61121e+57
          2071.10960	         6.71410e+57
          2071.91590	         6.95485e+57
          2072.72220	         5.31080e+57
          2073.52850	         5.03388e+57
          2074.33480	         4.44533e+57
          2075.14110	         3.30297e+57
          2075.94740	         3.43578e+57
          2076.75370	         4.26434e+57
          2077.56000	         5.14766e+57
          2078.36630	         4.98507e+57
          2079.17260	         4.82590e+57
          2079.97890	         4.65721e+57
          2080.78520	         4.74865e+57
          2081.59150	         4.96473e+57
          2082.39780	         4.90117e+57
          2083.20410	         3.86976e+57
          2084.01040	         3.06385e+57
          2084.81670	         5.31951e+57
          2085.62300	         2.87921e+57
          2086.42930	         4.39038e+57
          2087.23560	         2.55055e+57
          2088.04190	         2.20738e+57
          2088.84820	         5.04792e+57
          2089.65450	         5.05025e+57
          2090.46080	         3.24119e+57
          2091.26710	         4.68665e+57
          2092.07340	         3.91483e+57
          2092.87970	         2.80618e+57
          2093.68600	        -6.61756e+56
          2094.49230	         5.66258e+56
          2095.29860	         2.55054e+57
          2096.10490	         2.77179e+57
          2096.91120	         3.18976e+57
          2097.71750	         1.06183e+57
          2098.52380	         6.99213e+56
          2099.33010	         6.61473e+56
          2100.13640	         2.24653e+57
          2100.94270	         9.93449e+56
          2101.74900	         4.63893e+56
          2102.55530	         9.11976e+56
          2103.36160	         1.72997e+57
          2104.16790	         1.48229e+57
          2104.97420	         1.15288e+57
          2105.78050	         1.00102e+57
          2106.58680	         1.09693e+57
          2107.39310	         7.24010e+56
          2108.19940	         5.43593e+56
          2109.00570	        -1.10356e+57
          2109.81200	         4.87746e+56
          2110.61830	         2.61100e+57
          2111.42460	         4.34058e+56
          2112.23090	        -2.41420e+57
          2113.03720	        -7.86632e+56
          2113.84350	         3.67759e+56
          2114.64980	         2.33604e+57
          2115.45610	        -7.69834e+56
          2116.26240	         1.03251e+57
          2117.06870	         6.28301e+56
          2117.87500	        -1.75706e+57
          2118.68130	         2.49693e+57
          2119.48760	         9.16114e+56
          2120.29390	        -3.79912e+57
          2121.10020	        -6.32122e+57
          2121.90650	        -7.76283e+57
          2122.71280	         3.97804e+56
          2123.51910	         2.79088e+57
          2124.32540	        -1.75831e+57
          2125.13170	        -1.44212e+57
          2125.93800	         2.23027e+57
          2126.74430	         4.61248e+56
          2127.55060	        -6.53878e+57
          2128.35690	        -2.75926e+57
          2129.16320	         1.17420e+57
          2129.96950	         1.33243e+57
          2130.77580	         3.51744e+57
          2131.58210	         1.73156e+57
          2132.38840	        -1.31775e+56
          2133.19470	        -2.08557e+55
          2134.00100	         3.46771e+57
          2134.80730	        -8.60818e+57
          2135.61360	         8.11517e+57
          2136.41990	         9.61343e+57
          2137.22620	         4.73786e+57
          2138.03250	        -2.30792e+57
          2138.83880	        -1.23832e+57
          2139.64510	         3.48222e+57
          2140.45140	        -2.87864e+57
          2141.25770	        -1.34748e+58
          2142.06400	        -1.95383e+57
          2142.87030	         3.01820e+57
          2143.67660	         5.92531e+57
          2144.48290	        -2.02829e+57
          2145.28920	         1.05995e+58
          2146.09550	         5.25463e+57
          2146.90180	        -1.11855e+58
          2147.70810	        -5.44713e+57
          2148.51440	        -9.73055e+56
          2149.32070	        -1.47131e+58
          2150.12700	        -1.72684e+58
          2150.93330	        -7.37966e+57
          2151.73960	        -1.97788e+57
          2152.54590	        -5.01324e+57
          2153.35220	         2.35690e+57
          2154.15850	        -1.64396e+57
          2154.96480	         1.98735e+57
          2155.77110	        -6.13466e+57
          2156.57740	        -1.29265e+58
          2157.38370	        -1.06538e+58
          2158.19000	        -1.98190e+57
          2158.99630	        -5.93342e+57
          2159.80260	        -5.22528e+56
          2160.60890	        -3.16818e+57
          2161.41520	        -3.91141e+57
          2162.22150	        -8.39055e+57
          2163.02780	        -9.89092e+57
          2163.83410	        -1.06186e+58
          2164.64040	        -1.23545e+58
          2165.44670	        -1.29138e+58
          2166.25300	        -1.61489e+58
          2167.05930	        -1.23037e+58
          2167.86560	        -5.41520e+57
          2168.67190	        -2.38104e+57
          2169.47820	         1.39697e+57
          2170.28450	        -8.03531e+57
          2171.09080	         2.33754e+57
          2171.89710	        -2.19362e+56
          2172.70340	         5.55637e+57
          2173.50970	        -4.17786e+57
          2174.31600	        -5.78842e+57
          2175.12230	         3.65427e+56
          2175.92860	        -3.18071e+57
          2176.73490	        -2.68188e+57
          2177.54120	        -5.45070e+57
          2178.34750	        -4.36094e+57
          2179.15380	                 nan
          2179.96010	                 nan
          2180.76640	                 nan
          2181.57270	                 nan
          2182.37900	                 nan
          2183.18530	                 nan
          2183.99160	                 nan
          2184.79790	                 nan
          2185.60420	                 nan
          2186.41050	                 nan
          2187.21680	                 nan
          2188.02310	                 nan
          2188.82940	                 nan
          2189.63570	                 nan
          2190.44200	                 nan
          2191.24830	                 nan
          2192.05460	                 nan
          2192.86090	                 nan
          2193.66720	                 nan
          2194.47350	                 nan
          2195.27980	                 nan
          2196.08610	                 nan
          2196.89240	                 nan
          2197.69870	                 nan
          2198.50500	                 nan
          2199.31130	                 nan
          2200.11760	                 nan
          2200.92390	                 nan
          2201.73020	                 nan
          2202.53650	                 nan
          2203.34280	                 nan
          2204.14910	                 nan
          2204.95540	                 nan
          2205.76170	                 nan
          2206.56800	                 nan
          2207.37430	                 nan
          2208.18060	                 nan
          2208.98690	                 nan
          2209.79320	                 nan
          2210.59950	                 nan
          2211.40580	                 nan
          2212.21210	                 nan
          2213.01840	                 nan
          2213.82470	                 nan
          2214.63100	                 nan
          2215.43730	         0.00000e+00
