#sample_448_stacked_spectrum_rest_UV-bands_median_H-alpha_noDC.txt
#median Lum: 1.69495e+42
#Rest-frame wavelength (A) | Luminosity (erg/s/A)
#
          1110.00000	         0.00000e+00
          1110.80630	        -5.07266e+59
          1111.61260	        -1.77196e+59
          1112.41890	        -5.64412e+58
          1113.22520	         1.32447e+59
          1114.03150	        -1.92956e+59
          1114.83780	         2.77593e+59
          1115.64410	         2.79480e+59
          1116.45040	         1.62547e+59
          1117.25670	        -1.61495e+59
          1118.06300	         1.14519e+59
          1118.86930	        -7.16839e+58
          1119.67560	         8.51193e+58
          1120.48190	         5.73823e+57
          1121.28820	        -1.68687e+59
          1122.09450	        -1.19236e+58
          1122.90080	         4.32051e+58
          1123.70710	         5.34466e+58
          1124.51340	         1.20517e+59
          1125.31970	         7.93318e+58
          1126.12600	        -2.31907e+58
          1126.93230	        -4.25328e+58
          1127.73860	        -8.50600e+58
          1128.54490	         1.28777e+58
          1129.35120	         4.20304e+58
          1130.15750	        -3.15125e+58
          1130.96380	        -4.44794e+57
          1131.77010	         6.14513e+58
          1132.57640	         3.60923e+58
          1133.38270	         4.68034e+57
          1134.18900	         1.06039e+58
          1134.99530	         5.83610e+57
          1135.80160	         7.01782e+57
          1136.60790	         1.02098e+58
          1137.41420	         1.20558e+58
          1138.22050	         4.95794e+58
          1139.02680	         5.34824e+58
          1139.83310	         2.05013e+58
          1140.63940	         1.62285e+58
          1141.44570	        -1.31553e+58
          1142.25200	        -1.35484e+58
          1143.05830	         1.61871e+58
          1143.86460	         1.94552e+58
          1144.67090	         3.41474e+58
          1145.47720	         1.64192e+58
          1146.28350	         6.81897e+57
          1147.08980	         1.10161e+58
          1147.89610	         1.56571e+58
          1148.70240	         2.60549e+58
          1149.50870	         3.28166e+58
          1150.31500	         1.75443e+58
          1151.12130	         4.92033e+57
          1151.92760	         1.15623e+58
          1152.73390	         6.35003e+57
          1153.54020	         6.87433e+57
          1154.34650	         1.35921e+58
          1155.15280	         1.34477e+58
          1155.95910	         2.07671e+58
          1156.76540	        -2.57727e+57
          1157.57170	        -7.47028e+57
          1158.37800	         7.06377e+57
          1159.18430	         9.41844e+56
          1159.99060	         5.33922e+57
          1160.79690	         1.26214e+58
          1161.60320	         1.64877e+58
          1162.40950	         1.50189e+58
          1163.21580	         1.20324e+58
          1164.02210	         1.53500e+58
          1164.82840	         9.11672e+57
          1165.63470	         1.94947e+58
          1166.44100	         2.66662e+58
          1167.24730	         1.18037e+58
          1168.05360	         9.83534e+57
          1168.85990	         7.06761e+57
          1169.66620	         2.91220e+57
          1170.47250	         2.82683e+57
          1171.27880	        -1.02000e+57
          1172.08510	         3.28912e+57
          1172.89140	         4.55252e+57
          1173.69770	         6.72692e+57
          1174.50400	         1.06897e+58
          1175.31030	         1.99673e+58
          1176.11660	         2.56399e+58
          1176.92290	         1.59923e+58
          1177.72920	         1.02292e+58
          1178.53550	         4.92852e+57
          1179.34180	         4.29091e+57
          1180.14810	         1.26293e+58
          1180.95440	         1.43030e+58
          1181.76070	         9.01792e+57
          1182.56700	         6.29532e+57
          1183.37330	         3.36045e+57
          1184.17960	         1.24824e+58
          1184.98590	         1.03260e+58
          1185.79220	         5.35592e+57
          1186.59850	         1.05783e+58
          1187.40480	         1.14016e+58
          1188.21110	         9.96939e+57
          1189.01740	         7.00290e+57
          1189.82370	         8.71959e+57
          1190.63000	         1.37121e+58
          1191.43630	         1.77932e+58
          1192.24260	         9.53014e+57
          1193.04890	         1.53638e+58
          1193.85520	         1.70860e+58
          1194.66150	         7.22579e+57
          1195.46780	         1.15197e+58
          1196.27410	         1.68652e+58
          1197.08040	         1.19552e+58
          1197.88670	         1.81223e+58
          1198.69300	         1.65844e+58
          1199.49930	         1.31071e+58
          1200.30560	         9.20463e+57
          1201.11190	         1.22212e+58
          1201.91820	         9.01202e+57
          1202.72450	         6.17209e+57
          1203.53080	         1.37695e+58
          1204.33710	         1.08698e+58
          1205.14340	         6.85910e+57
          1205.94970	         4.95238e+57
          1206.75600	         6.76906e+57
          1207.56230	         4.80354e+57
          1208.36860	         1.01414e+58
          1209.17490	         9.50937e+57
          1209.98120	         1.17281e+58
          1210.78750	         1.11466e+58
          1211.59380	         1.25484e+58
          1212.40010	         1.65793e+58
          1213.20640	         2.15636e+58
          1214.01270	         2.15271e+58
          1214.81900	         2.72641e+58
          1215.62530	         4.39389e+58
          1216.43160	         8.69321e+58
          1217.23790	         1.50890e+59
          1218.04420	         1.15885e+59
          1218.85050	         8.58634e+58
          1219.65680	         6.12580e+58
          1220.46310	         3.66074e+58
          1221.26940	         2.33301e+58
          1222.07570	         1.55689e+58
          1222.88200	         1.12202e+58
          1223.68830	         8.57705e+57
          1224.49460	         8.79503e+57
          1225.30090	         9.17754e+57
          1226.10720	         9.22192e+57
          1226.91350	         8.62628e+57
          1227.71980	         1.19247e+58
          1228.52610	         1.26180e+58
          1229.33240	         1.18849e+58
          1230.13870	         1.12753e+58
          1230.94500	         9.85464e+57
          1231.75130	         8.81785e+57
          1232.55760	         8.88194e+57
          1233.36390	         8.87927e+57
          1234.17020	         8.18870e+57
          1234.97650	         6.28337e+57
          1235.78280	         9.16835e+57
          1236.58910	         9.73521e+57
          1237.39540	         1.25442e+58
          1238.20170	         1.12325e+58
          1239.00800	         1.27106e+58
          1239.81430	         1.63380e+58
          1240.62060	         1.17002e+58
          1241.42690	         9.94791e+57
          1242.23320	         1.12904e+58
          1243.03950	         6.84411e+57
          1243.84580	         7.89357e+57
          1244.65210	         1.01412e+58
          1245.45840	         8.92118e+57
          1246.26470	         7.77578e+57
          1247.07100	         8.44120e+57
          1247.87730	         8.02515e+57
          1248.68360	         4.35963e+57
          1249.48990	         9.11430e+57
          1250.29620	         9.65782e+57
          1251.10250	         7.43014e+57
          1251.90880	         7.19404e+57
          1252.71510	         5.97396e+57
          1253.52140	         4.55119e+57
          1254.32770	         1.00812e+58
          1255.13400	         1.45915e+58
          1255.94030	         1.18215e+58
          1256.74660	         9.97503e+57
          1257.55290	         1.04303e+58
          1258.35920	         7.10958e+57
          1259.16550	         4.04410e+57
          1259.97180	         4.39182e+57
          1260.77810	         6.68484e+57
          1261.58440	         1.00799e+58
          1262.39070	         7.17337e+57
          1263.19700	         9.75098e+57
          1264.00330	         1.16884e+58
          1264.80960	         1.10183e+58
          1265.61590	         1.20087e+58
          1266.42220	         1.13550e+58
          1267.22850	         9.43856e+57
          1268.03480	         1.31232e+58
          1268.84110	         1.48784e+58
          1269.64740	         1.34687e+58
          1270.45370	         1.37561e+58
          1271.26000	         1.29177e+58
          1272.06630	         1.22860e+58
          1272.87260	         1.41500e+58
          1273.67890	         1.33953e+58
          1274.48520	         1.35079e+58
          1275.29150	         1.40050e+58
          1276.09780	         1.26542e+58
          1276.90410	         1.43921e+58
          1277.71040	         1.23320e+58
          1278.51670	         1.22547e+58
          1279.32300	         1.29396e+58
          1280.12930	         1.28675e+58
          1280.93560	         1.14468e+58
          1281.74190	         1.17461e+58
          1282.54820	         1.31814e+58
          1283.35450	         1.14860e+58
          1284.16080	         1.13385e+58
          1284.96710	         1.30973e+58
          1285.77340	         1.15095e+58
          1286.57970	         1.02193e+58
          1287.38600	         1.41247e+58
          1288.19230	         1.60668e+58
          1288.99860	         1.52453e+58
          1289.80490	         1.29678e+58
          1290.61120	         1.36641e+58
          1291.41750	         1.37007e+58
          1292.22380	         1.24955e+58
          1293.03010	         1.10961e+58
          1293.83640	         1.12381e+58
          1294.64270	         1.01909e+58
          1295.44900	         7.16451e+57
          1296.25530	         5.69077e+57
          1297.06160	         8.25882e+57
          1297.86790	         1.23664e+58
          1298.67420	         1.16603e+58
          1299.48050	         9.68786e+57
          1300.28680	         9.32544e+57
          1301.09310	         7.11949e+57
          1301.89940	         4.64976e+57
          1302.70570	         6.03212e+57
          1303.51200	         7.11655e+57
          1304.31830	         9.57482e+57
          1305.12460	         1.07429e+58
          1305.93090	         1.02290e+58
          1306.73720	         1.19188e+58
          1307.54350	         1.45619e+58
          1308.34980	         1.53164e+58
          1309.15610	         1.52166e+58
          1309.96240	         1.45183e+58
          1310.76870	         1.35661e+58
          1311.57500	         1.16939e+58
          1312.38130	         9.47922e+57
          1313.18760	         1.23288e+58
          1313.99390	         1.68260e+58
          1314.80020	         1.74603e+58
          1315.60650	         1.53051e+58
          1316.41280	         1.38003e+58
          1317.21910	         1.01211e+58
          1318.02540	         1.18326e+58
          1318.83170	         1.35309e+58
          1319.63800	         1.27994e+58
          1320.44430	         1.17730e+58
          1321.25060	         1.25788e+58
          1322.05690	         1.23119e+58
          1322.86320	         1.19945e+58
          1323.66950	         1.14883e+58
          1324.47580	         9.75646e+57
          1325.28210	         1.05795e+58
          1326.08840	         1.12578e+58
          1326.89470	         1.16904e+58
          1327.70100	         1.02213e+58
          1328.50730	         8.53015e+57
          1329.31360	         1.00600e+58
          1330.11990	         9.81943e+57
          1330.92620	         9.76193e+57
          1331.73250	         1.18877e+58
          1332.53880	         1.03226e+58
          1333.34510	         1.04012e+58
          1334.15140	         1.11335e+58
          1334.95770	         9.29584e+57
          1335.76400	         1.04707e+58
          1336.57030	         1.08971e+58
          1337.37660	         1.03066e+58
          1338.18290	         1.07721e+58
          1338.98920	         1.21256e+58
          1339.79550	         1.06844e+58
          1340.60180	         1.17670e+58
          1341.40810	         1.38443e+58
          1342.21440	         1.27422e+58
          1343.02070	         1.15956e+58
          1343.82700	         1.19130e+58
          1344.63330	         1.28603e+58
          1345.43960	         1.38441e+58
          1346.24590	         1.12281e+58
          1347.05220	         1.24294e+58
          1347.85850	         1.32615e+58
          1348.66480	         1.24092e+58
          1349.47110	         1.20914e+58
          1350.27740	         1.06295e+58
          1351.08370	         1.20197e+58
          1351.89000	         1.30081e+58
          1352.69630	         1.25290e+58
          1353.50260	         1.19311e+58
          1354.30890	         1.09716e+58
          1355.11520	         1.08058e+58
          1355.92150	         1.02248e+58
          1356.72780	         1.05433e+58
          1357.53410	         1.06248e+58
          1358.34040	         1.03789e+58
          1359.14670	         8.98994e+57
          1359.95300	         9.08506e+57
          1360.75930	         1.14444e+58
          1361.56560	         1.02297e+58
          1362.37190	         1.04299e+58
          1363.17820	         1.12550e+58
          1363.98450	         1.19244e+58
          1364.79080	         1.26645e+58
          1365.59710	         1.06554e+58
          1366.40340	         1.02693e+58
          1367.20970	         9.75548e+57
          1368.01600	         9.04665e+57
          1368.82230	         9.31710e+57
          1369.62860	         9.65040e+57
          1370.43490	         9.30350e+57
          1371.24120	         9.81615e+57
          1372.04750	         9.62641e+57
          1372.85380	         9.27419e+57
          1373.66010	         9.59948e+57
          1374.46640	         1.10545e+58
          1375.27270	         1.19925e+58
          1376.07900	         9.45581e+57
          1376.88530	         7.49869e+57
          1377.69160	         7.81609e+57
          1378.49790	         7.10997e+57
          1379.30420	         8.07119e+57
          1380.11050	         8.75790e+57
          1380.91680	         8.28183e+57
          1381.72310	         8.02856e+57
          1382.52940	         9.30001e+57
          1383.33570	         1.00136e+58
          1384.14200	         9.63425e+57
          1384.94830	         1.17094e+58
          1385.75460	         1.18540e+58
          1386.56090	         1.15214e+58
          1387.36720	         1.08930e+58
          1388.17350	         1.26188e+58
          1388.97980	         1.25624e+58
          1389.78610	         1.06423e+58
          1390.59240	         7.99835e+57
          1391.39870	         5.94616e+57
          1392.20500	         7.37145e+57
          1393.01130	         7.29524e+57
          1393.81760	         6.59814e+57
          1394.62390	         7.40722e+57
          1395.43020	         7.69789e+57
          1396.23650	         7.78841e+57
          1397.04280	         7.81975e+57
          1397.84910	         7.11073e+57
          1398.65540	         7.38544e+57
          1399.46170	         8.75737e+57
          1400.26800	         7.75982e+57
          1401.07430	         7.34664e+57
          1401.88060	         8.71006e+57
          1402.68690	         9.23983e+57
          1403.49320	         9.73807e+57
          1404.29950	         9.79773e+57
          1405.10580	         1.15532e+58
          1405.91210	         1.19849e+58
          1406.71840	         1.02728e+58
          1407.52470	         9.77081e+57
          1408.33100	         1.02294e+58
          1409.13730	         1.04633e+58
          1409.94360	         1.02558e+58
          1410.74990	         1.04653e+58
          1411.55620	         8.89557e+57
          1412.36250	         8.90125e+57
          1413.16880	         1.01619e+58
          1413.97510	         8.82900e+57
          1414.78140	         8.65705e+57
          1415.58770	         1.06289e+58
          1416.39400	         1.01882e+58
          1417.20030	         1.08447e+58
          1418.00660	         1.06809e+58
          1418.81290	         1.06795e+58
          1419.61920	         1.00921e+58
          1420.42550	         1.25301e+58
          1421.23180	         1.36198e+58
          1422.03810	         1.25962e+58
          1422.84440	         1.28399e+58
          1423.65070	         1.32756e+58
          1424.45700	         1.23703e+58
          1425.26330	         9.75998e+57
          1426.06960	         9.78784e+57
          1426.87590	         1.04562e+58
          1427.68220	         9.54281e+57
          1428.48850	         1.01284e+58
          1429.29480	         1.03844e+58
          1430.10110	         1.01761e+58
          1430.90740	         8.56216e+57
          1431.71370	         9.40303e+57
          1432.52000	         9.84858e+57
          1433.32630	         8.02720e+57
          1434.13260	         7.59577e+57
          1434.93890	         8.62800e+57
          1435.74520	         9.60727e+57
          1436.55150	         9.49728e+57
          1437.35780	         8.55511e+57
          1438.16410	         9.13484e+57
          1438.97040	         9.75111e+57
          1439.77670	         9.18399e+57
          1440.58300	         9.46514e+57
          1441.38930	         1.00420e+58
          1442.19560	         1.01382e+58
          1443.00190	         9.06257e+57
          1443.80820	         9.60264e+57
          1444.61450	         8.88087e+57
          1445.42080	         8.89995e+57
          1446.22710	         1.10790e+58
          1447.03340	         1.03315e+58
          1447.83970	         1.12512e+58
          1448.64600	         9.96309e+57
          1449.45230	         9.42494e+57
          1450.25860	         1.05960e+58
          1451.06490	         9.39104e+57
          1451.87120	         8.13407e+57
          1452.67750	         8.22017e+57
          1453.48380	         9.59408e+57
          1454.29010	         8.63862e+57
          1455.09640	         7.69163e+57
          1455.90270	         8.35651e+57
          1456.70900	         9.08228e+57
          1457.51530	         9.91846e+57
          1458.32160	         1.09034e+58
          1459.12790	         1.07184e+58
          1459.93420	         1.10598e+58
          1460.74050	         9.30729e+57
          1461.54680	         7.77497e+57
          1462.35310	         7.43417e+57
          1463.15940	         9.40833e+57
          1463.96570	         1.17950e+58
          1464.77200	         1.21616e+58
          1465.57830	         1.12013e+58
          1466.38460	         1.00287e+58
          1467.19090	         8.43706e+57
          1467.99720	         7.76639e+57
          1468.80350	         8.35141e+57
          1469.60980	         1.04185e+58
          1470.41610	         1.10421e+58
          1471.22240	         9.15601e+57
          1472.02870	         9.32373e+57
          1472.83500	         1.08527e+58
          1473.64130	         1.07352e+58
          1474.44760	         9.36747e+57
          1475.25390	         9.47280e+57
          1476.06020	         8.84728e+57
          1476.86650	         7.63420e+57
          1477.67280	         7.59514e+57
          1478.47910	         6.45488e+57
          1479.28540	         7.80674e+57
          1480.09170	         8.03795e+57
          1480.89800	         8.53203e+57
          1481.70430	         9.00499e+57
          1482.51060	         8.11909e+57
          1483.31690	         6.21037e+57
          1484.12320	         6.54946e+57
          1484.92950	         7.05637e+57
          1485.73580	         7.81420e+57
          1486.54210	         8.41535e+57
          1487.34840	         8.34295e+57
          1488.15470	         8.58318e+57
          1488.96100	         9.34443e+57
          1489.76730	         9.13589e+57
          1490.57360	         8.64322e+57
          1491.37990	         8.30355e+57
          1492.18620	         7.94740e+57
          1492.99250	         7.63593e+57
          1493.79880	         7.80062e+57
          1494.60510	         8.64368e+57
          1495.41140	         8.39377e+57
          1496.21770	         7.89525e+57
          1497.02400	         1.00340e+58
          1497.83030	         8.41150e+57
          1498.63660	         6.16246e+57
          1499.44290	         6.93273e+57
          1500.24920	         8.43887e+57
          1501.05550	         9.54231e+57
          1501.86180	         8.29702e+57
          1502.66810	         8.73682e+57
          1503.47440	         9.47099e+57
          1504.28070	         8.44231e+57
          1505.08700	         9.42602e+57
          1505.89330	         1.00035e+58
          1506.69960	         9.10462e+57
          1507.50590	         8.61357e+57
          1508.31220	         8.63786e+57
          1509.11850	         8.08663e+57
          1509.92480	         9.49196e+57
          1510.73110	         9.82974e+57
          1511.53740	         8.08580e+57
          1512.34370	         7.38068e+57
          1513.15000	         8.77008e+57
          1513.95630	         1.01600e+58
          1514.76260	         1.04799e+58
          1515.56890	         9.34911e+57
          1516.37520	         9.09289e+57
          1517.18150	         7.58712e+57
          1517.98780	         7.08973e+57
          1518.79410	         6.70802e+57
          1519.60040	         7.76144e+57
          1520.40670	         8.35090e+57
          1521.21300	         9.04037e+57
          1522.01930	         9.24494e+57
          1522.82560	         8.51299e+57
          1523.63190	         9.69883e+57
          1524.43820	         9.16589e+57
          1525.24450	         7.22597e+57
          1526.05080	         5.52563e+57
          1526.85710	         4.81876e+57
          1527.66340	         6.91156e+57
          1528.46970	         8.97310e+57
          1529.27600	         8.92112e+57
          1530.08230	         8.20894e+57
          1530.88860	         7.46130e+57
          1531.69490	         8.74145e+57
          1532.50120	         9.40602e+57
          1533.30750	         9.53337e+57
          1534.11380	         9.76500e+57
          1534.92010	         9.14686e+57
          1535.72640	         9.02807e+57
          1536.53270	         1.02464e+58
          1537.33900	         1.03063e+58
          1538.14530	         9.55368e+57
          1538.95160	         1.06130e+58
          1539.75790	         9.43378e+57
          1540.56420	         9.17583e+57
          1541.37050	         9.07694e+57
          1542.17680	         7.96189e+57
          1542.98310	         7.43644e+57
          1543.78940	         7.39940e+57
          1544.59570	         7.52255e+57
          1545.40200	         8.10754e+57
          1546.20830	         9.27279e+57
          1547.01460	         1.10496e+58
          1547.82090	         1.12786e+58
          1548.62720	         1.20756e+58
          1549.43350	         1.14777e+58
          1550.23980	         1.03440e+58
          1551.04610	         1.15065e+58
          1551.85240	         1.21067e+58
          1552.65870	         1.22784e+58
          1553.46500	         1.06781e+58
          1554.27130	         9.26105e+57
          1555.07760	         8.95452e+57
          1555.88390	         8.52055e+57
          1556.69020	         9.08429e+57
          1557.49650	         8.38135e+57
          1558.30280	         7.62783e+57
          1559.10910	         8.38442e+57
          1559.91540	         9.22565e+57
          1560.72170	         8.62304e+57
          1561.52800	         8.39213e+57
          1562.33430	         9.25873e+57
          1563.14060	         9.27164e+57
          1563.94690	         8.20359e+57
          1564.75320	         7.80829e+57
          1565.55950	         7.40937e+57
          1566.36580	         8.19932e+57
          1567.17210	         9.93744e+57
          1567.97840	         1.01702e+58
          1568.78470	         9.12366e+57
          1569.59100	         9.19339e+57
          1570.39730	         8.26686e+57
          1571.20360	         6.95039e+57
          1572.00990	         7.20746e+57
          1572.81620	         8.50184e+57
          1573.62250	         1.10783e+58
          1574.42880	         1.01441e+58
          1575.23510	         7.56133e+57
          1576.04140	         8.41259e+57
          1576.84770	         8.87269e+57
          1577.65400	         8.75092e+57
          1578.46030	         1.02037e+58
          1579.26660	         1.09060e+58
          1580.07290	         9.57245e+57
          1580.87920	         6.97460e+57
          1581.68550	         7.08873e+57
          1582.49180	         7.81126e+57
          1583.29810	         7.84577e+57
          1584.10440	         8.82215e+57
          1584.91070	         9.00524e+57
          1585.71700	         9.15439e+57
          1586.52330	         8.69935e+57
          1587.32960	         8.76018e+57
          1588.13590	         8.40744e+57
          1588.94220	         8.80475e+57
          1589.74850	         8.86816e+57
          1590.55480	         9.39411e+57
          1591.36110	         8.93805e+57
          1592.16740	         8.37473e+57
          1592.97370	         8.48156e+57
          1593.78000	         9.23135e+57
          1594.58630	         9.49697e+57
          1595.39260	         8.61762e+57
          1596.19890	         8.23927e+57
          1597.00520	         8.11125e+57
          1597.81150	         8.76358e+57
          1598.61780	         8.09557e+57
          1599.42410	         7.70307e+57
          1600.23040	         7.77843e+57
          1601.03670	         8.05206e+57
          1601.84300	         6.61081e+57
          1602.64930	         6.56681e+57
          1603.45560	         7.65313e+57
          1604.26190	         7.81817e+57
          1605.06820	         7.79934e+57
          1605.87450	         7.91919e+57
          1606.68080	         7.10298e+57
          1607.48710	         6.43523e+57
          1608.29340	         6.47569e+57
          1609.09970	         8.56379e+57
          1609.90600	         9.29149e+57
          1610.71230	         8.67593e+57
          1611.51860	         8.17369e+57
          1612.32490	         6.25449e+57
          1613.13120	         7.78086e+57
          1613.93750	         8.94410e+57
          1614.74380	         8.43670e+57
          1615.55010	         8.24211e+57
          1616.35640	         9.40984e+57
          1617.16270	         1.08961e+58
          1617.96900	         1.02161e+58
          1618.77530	         8.31780e+57
          1619.58160	         8.89765e+57
          1620.38790	         8.39553e+57
          1621.19420	         8.38879e+57
          1622.00050	         8.31384e+57
          1622.80680	         7.99484e+57
          1623.61310	         9.09780e+57
          1624.41940	         9.13307e+57
          1625.22570	         9.68881e+57
          1626.03200	         9.07510e+57
          1626.83830	         8.05101e+57
          1627.64460	         8.17319e+57
          1628.45090	         7.01944e+57
          1629.25720	         8.27745e+57
          1630.06350	         9.50913e+57
          1630.86980	         7.44039e+57
          1631.67610	         7.75004e+57
          1632.48240	         9.43948e+57
          1633.28870	         9.45522e+57
          1634.09500	         9.68665e+57
          1634.90130	         1.09353e+58
          1635.70760	         9.52035e+57
          1636.51390	         7.94875e+57
          1637.32020	         7.51758e+57
          1638.12650	         8.80174e+57
          1638.93280	         8.54643e+57
          1639.73910	         1.00585e+58
          1640.54540	         1.07197e+58
          1641.35170	         8.84246e+57
          1642.15800	         1.00596e+58
          1642.96430	         9.36628e+57
          1643.77060	         9.13549e+57
          1644.57690	         9.31070e+57
          1645.38320	         9.25561e+57
          1646.18950	         7.80133e+57
          1646.99580	         8.76345e+57
          1647.80210	         8.09262e+57
          1648.60840	         7.38123e+57
          1649.41470	         8.77100e+57
          1650.22100	         7.00603e+57
          1651.02730	         6.61273e+57
          1651.83360	         7.63915e+57
          1652.63990	         7.94350e+57
          1653.44620	         8.72641e+57
          1654.25250	         8.68503e+57
          1655.05880	         8.19341e+57
          1655.86510	         7.95933e+57
          1656.67140	         7.75343e+57
          1657.47770	         8.12931e+57
          1658.28400	         8.87756e+57
          1659.09030	         9.50605e+57
          1659.89660	         9.93513e+57
          1660.70290	         1.05319e+58
          1661.50920	         9.79324e+57
          1662.31550	         8.81243e+57
          1663.12180	         9.52869e+57
          1663.92810	         1.01318e+58
          1664.73440	         1.04498e+58
          1665.54070	         1.09968e+58
          1666.34700	         1.32089e+58
          1667.15330	         1.25720e+58
          1667.95960	         9.54569e+57
          1668.76590	         7.10392e+57
          1669.57220	         7.36009e+57
          1670.37850	         7.75346e+57
          1671.18480	         8.02569e+57
          1671.99110	         8.60699e+57
          1672.79740	         7.53323e+57
          1673.60370	         7.09929e+57
          1674.41000	         7.85506e+57
          1675.21630	         7.17782e+57
          1676.02260	         6.09449e+57
          1676.82890	         5.58793e+57
          1677.63520	         6.25319e+57
          1678.44150	         6.57386e+57
          1679.24780	         7.10566e+57
          1680.05410	         6.73635e+57
          1680.86040	         6.86756e+57
          1681.66670	         7.77960e+57
          1682.47300	         8.13465e+57
          1683.27930	         8.54240e+57
          1684.08560	         9.09226e+57
          1684.89190	         8.96765e+57
          1685.69820	         6.42450e+57
          1686.50450	         4.88605e+57
          1687.31080	         6.56221e+57
          1688.11710	         7.93507e+57
          1688.92340	         6.91614e+57
          1689.72970	         5.73757e+57
          1690.53600	         6.23274e+57
          1691.34230	         7.03584e+57
          1692.14860	         8.36162e+57
          1692.95490	         8.17282e+57
          1693.76120	         7.39178e+57
          1694.56750	         7.41208e+57
          1695.37380	         8.62026e+57
          1696.18010	         9.96447e+57
          1696.98640	         9.36268e+57
          1697.79270	         7.67068e+57
          1698.59900	         7.73013e+57
          1699.40530	         6.80279e+57
          1700.21160	         7.38319e+57
          1701.01790	         8.46569e+57
          1701.82420	         6.46160e+57
          1702.63050	         7.36607e+57
          1703.43680	         9.38160e+57
          1704.24310	         9.44217e+57
          1705.04940	         7.82933e+57
          1705.85570	         8.02711e+57
          1706.66200	         8.60927e+57
          1707.46830	         8.02373e+57
          1708.27460	         8.09207e+57
          1709.08090	         7.52494e+57
          1709.88720	         6.43585e+57
          1710.69350	         6.24369e+57
          1711.49980	         6.68466e+57
          1712.30610	         7.29972e+57
          1713.11240	         8.34517e+57
          1713.91870	         7.66871e+57
          1714.72500	         7.69694e+57
          1715.53130	         9.01625e+57
          1716.33760	         7.21241e+57
          1717.14390	         7.22035e+57
          1717.95020	         7.84555e+57
          1718.75650	         8.44887e+57
          1719.56280	         9.42041e+57
          1720.36910	         7.97927e+57
          1721.17540	         7.07589e+57
          1721.98170	         6.48630e+57
          1722.78800	         6.54752e+57
          1723.59430	         7.06294e+57
          1724.40060	         7.84507e+57
          1725.20690	         8.47833e+57
          1726.01320	         8.51935e+57
          1726.81950	         8.13223e+57
          1727.62580	         7.13871e+57
          1728.43210	         7.06837e+57
          1729.23840	         8.21667e+57
          1730.04470	         7.84758e+57
          1730.85100	         8.30024e+57
          1731.65730	         8.19896e+57
          1732.46360	         8.52667e+57
          1733.26990	         7.85319e+57
          1734.07620	         7.13124e+57
          1734.88250	         7.63589e+57
          1735.68880	         8.21453e+57
          1736.49510	         8.52453e+57
          1737.30140	         8.18026e+57
          1738.10770	         7.35654e+57
          1738.91400	         7.38215e+57
          1739.72030	         6.41798e+57
          1740.52660	         5.06986e+57
          1741.33290	         6.20916e+57
          1742.13920	         6.20806e+57
          1742.94550	         7.20531e+57
          1743.75180	         8.09239e+57
          1744.55810	         7.13619e+57
          1745.36440	         7.16820e+57
          1746.17070	         6.79342e+57
          1746.97700	         6.32479e+57
          1747.78330	         6.26106e+57
          1748.58960	         6.19251e+57
          1749.39590	         6.58355e+57
          1750.20220	         6.75252e+57
          1751.00850	         6.01635e+57
          1751.81480	         5.83377e+57
          1752.62110	         7.55865e+57
          1753.42740	         8.94696e+57
          1754.23370	         6.79050e+57
          1755.04000	         7.03489e+57
          1755.84630	         8.72096e+57
          1756.65260	         8.91042e+57
          1757.45890	         9.06403e+57
          1758.26520	         7.35562e+57
          1759.07150	         9.00201e+57
          1759.87780	         9.01415e+57
          1760.68410	         8.94481e+57
          1761.49040	         9.31510e+57
          1762.29670	         7.60319e+57
          1763.10300	         7.87423e+57
          1763.90930	         7.76801e+57
          1764.71560	         7.90177e+57
          1765.52190	         8.11857e+57
          1766.32820	         9.29023e+57
          1767.13450	         8.68336e+57
          1767.94080	         6.90741e+57
          1768.74710	         7.48300e+57
          1769.55340	         7.55685e+57
          1770.35970	         6.50663e+57
          1771.16600	         7.67789e+57
          1771.97230	         8.75348e+57
          1772.77860	         9.62800e+57
          1773.58490	         7.67273e+57
          1774.39120	         6.14844e+57
          1775.19750	         6.93830e+57
          1776.00380	         7.36006e+57
          1776.81010	         6.30351e+57
          1777.61640	         5.55597e+57
          1778.42270	         6.67556e+57
          1779.22900	         6.87642e+57
          1780.03530	         6.21067e+57
          1780.84160	         7.98205e+57
          1781.64790	         9.09275e+57
          1782.45420	         7.44865e+57
          1783.26050	         6.85676e+57
          1784.06680	         7.75586e+57
          1784.87310	         7.46111e+57
          1785.67940	         7.90259e+57
          1786.48570	         7.20996e+57
          1787.29200	         5.77718e+57
          1788.09830	         5.91791e+57
          1788.90460	         5.63207e+57
          1789.71090	         4.64382e+57
          1790.51720	         4.83715e+57
          1791.32350	         7.96665e+57
          1792.12980	         9.72120e+57
          1792.93610	         8.20084e+57
          1793.74240	         7.78198e+57
          1794.54870	         8.32416e+57
          1795.35500	         7.07060e+57
          1796.16130	         6.43294e+57
          1796.96760	         6.43148e+57
          1797.77390	         7.26467e+57
          1798.58020	         7.83200e+57
          1799.38650	         7.83206e+57
          1800.19280	         8.43397e+57
          1800.99910	         8.38693e+57
          1801.80540	         7.97953e+57
          1802.61170	         8.73220e+57
          1803.41800	         8.61504e+57
          1804.22430	         7.07247e+57
          1805.03060	         7.03207e+57
          1805.83690	         7.92160e+57
          1806.64320	         9.06047e+57
          1807.44950	         9.01419e+57
          1808.25580	         7.39757e+57
          1809.06210	         7.00569e+57
          1809.86840	         6.21255e+57
          1810.67470	         6.04501e+57
          1811.48100	         7.39795e+57
          1812.28730	         8.05991e+57
          1813.09360	         7.70619e+57
          1813.89990	         7.02844e+57
          1814.70620	         6.58550e+57
          1815.51250	         8.26658e+57
          1816.31880	         8.20304e+57
          1817.12510	         6.66053e+57
          1817.93140	         6.43347e+57
          1818.73770	         6.69968e+57
          1819.54400	         8.96553e+57
          1820.35030	         8.87931e+57
          1821.15660	         5.73917e+57
          1821.96290	         5.99558e+57
          1822.76920	         7.37362e+57
          1823.57550	         7.78435e+57
          1824.38180	         7.84340e+57
          1825.18810	         7.69172e+57
          1825.99440	         8.38135e+57
          1826.80070	         7.49001e+57
          1827.60700	         6.77851e+57
          1828.41330	         6.85265e+57
          1829.21960	         6.75777e+57
          1830.02590	         6.96042e+57
          1830.83220	         7.20214e+57
          1831.63850	         6.67846e+57
          1832.44480	         6.74660e+57
          1833.25110	         7.90284e+57
          1834.05740	         8.88519e+57
          1834.86370	         7.67911e+57
          1835.67000	         5.44815e+57
          1836.47630	         6.84088e+57
          1837.28260	         8.61984e+57
          1838.08890	         8.21868e+57
          1838.89520	         8.50634e+57
          1839.70150	         7.96473e+57
          1840.50780	         7.24641e+57
          1841.31410	         6.90041e+57
          1842.12040	         6.54355e+57
          1842.92670	         6.81648e+57
          1843.73300	         6.36242e+57
          1844.53930	         6.82435e+57
          1845.34560	         7.14551e+57
          1846.15190	         7.20400e+57
          1846.95820	         7.30859e+57
          1847.76450	         7.41433e+57
          1848.57080	         6.61974e+57
          1849.37710	         6.22770e+57
          1850.18340	         7.70105e+57
          1850.98970	         8.04407e+57
          1851.79600	         8.17787e+57
          1852.60230	         7.35662e+57
          1853.40860	         6.46946e+57
          1854.21490	         8.08772e+57
          1855.02120	         7.29365e+57
          1855.82750	         4.86867e+57
          1856.63380	         5.13382e+57
          1857.44010	         6.71088e+57
          1858.24640	         7.63951e+57
          1859.05270	         6.62722e+57
          1859.85900	         6.02373e+57
          1860.66530	         6.36177e+57
          1861.47160	         6.47503e+57
          1862.27790	         6.95357e+57
          1863.08420	         7.49298e+57
          1863.89050	         7.54424e+57
          1864.69680	         7.70985e+57
          1865.50310	         7.70318e+57
          1866.30940	         6.45339e+57
          1867.11570	         6.39754e+57
          1867.92200	         6.92024e+57
          1868.72830	         7.80215e+57
          1869.53460	         7.34425e+57
          1870.34090	         6.85857e+57
          1871.14720	         6.80772e+57
          1871.95350	         6.27692e+57
          1872.75980	         7.54513e+57
          1873.56610	         6.95267e+57
          1874.37240	         6.25054e+57
          1875.17870	         6.00729e+57
          1875.98500	         6.92825e+57
          1876.79130	         7.70635e+57
          1877.59760	         7.29175e+57
          1878.40390	         5.46567e+57
          1879.21020	         5.53716e+57
          1880.01650	         5.98319e+57
          1880.82280	         7.68485e+57
          1881.62910	         8.46697e+57
          1882.43540	         9.91970e+57
          1883.24170	         8.28142e+57
          1884.04800	         5.80385e+57
          1884.85430	         7.26803e+57
          1885.66060	         9.07857e+57
          1886.46690	         8.15988e+57
          1887.27320	         7.83246e+57
          1888.07950	         6.26354e+57
          1888.88580	         6.58114e+57
          1889.69210	         8.86654e+57
          1890.49840	         8.80306e+57
          1891.30470	         7.40405e+57
          1892.11100	         7.90715e+57
          1892.91730	         8.03372e+57
          1893.72360	         7.65334e+57
          1894.52990	         6.28616e+57
          1895.33620	         7.32695e+57
          1896.14250	         7.05607e+57
          1896.94880	         5.88701e+57
          1897.75510	         4.68402e+57
          1898.56140	         6.49235e+57
          1899.36770	         8.70087e+57
          1900.17400	         7.31736e+57
          1900.98030	         6.13487e+57
          1901.78660	         6.54598e+57
          1902.59290	         7.76113e+57
          1903.39920	         8.67553e+57
          1904.20550	         9.16346e+57
          1905.01180	         9.04282e+57
          1905.81810	         9.39218e+57
          1906.62440	         1.20050e+58
          1907.43070	         1.56166e+58
          1908.23700	         1.66381e+58
          1909.04330	         1.36602e+58
          1909.84960	         1.22171e+58
          1910.65590	         1.08000e+58
          1911.46220	         9.51642e+57
          1912.26850	         7.97638e+57
          1913.07480	         5.98241e+57
          1913.88110	         5.12201e+57
          1914.68740	         6.03335e+57
          1915.49370	         5.78570e+57
          1916.30000	         6.32794e+57
          1917.10630	         6.80177e+57
          1917.91260	         6.22916e+57
          1918.71890	         5.87804e+57
          1919.52520	         6.16600e+57
          1920.33150	         6.21917e+57
          1921.13780	         6.89210e+57
          1921.94410	         7.82046e+57
          1922.75040	         8.52089e+57
          1923.55670	         8.51734e+57
          1924.36300	         8.39794e+57
          1925.16930	         7.14676e+57
          1925.97560	         5.91274e+57
          1926.78190	         4.78746e+57
          1927.58820	         4.78862e+57
          1928.39450	         5.26300e+57
          1929.20080	         4.74959e+57
          1930.00710	         6.35062e+57
          1930.81340	         6.73031e+57
          1931.61970	         6.51050e+57
          1932.42600	         8.65246e+57
          1933.23230	         8.82035e+57
          1934.03860	         6.64429e+57
          1934.84490	         6.94322e+57
          1935.65120	         7.97129e+57
          1936.45750	         9.31705e+57
          1937.26380	         6.92369e+57
          1938.07010	         6.89214e+57
          1938.87640	         7.33735e+57
          1939.68270	         7.28491e+57
          1940.48900	         8.04086e+57
          1941.29530	         9.52258e+57
          1942.10160	         8.33990e+57
          1942.90790	         6.93653e+57
          1943.71420	         7.11690e+57
          1944.52050	         7.00450e+57
          1945.32680	         6.48959e+57
          1946.13310	         7.71564e+57
          1946.93940	         7.12335e+57
          1947.74570	         6.87003e+57
          1948.55200	         7.19174e+57
          1949.35830	         6.65122e+57
          1950.16460	         5.85694e+57
          1950.97090	         5.90374e+57
          1951.77720	         7.47333e+57
          1952.58350	         8.63737e+57
          1953.38980	         6.90837e+57
          1954.19610	         4.94810e+57
          1955.00240	         5.55598e+57
          1955.80870	         5.99409e+57
          1956.61500	         5.92555e+57
          1957.42130	         6.50530e+57
          1958.22760	         6.15822e+57
          1959.03390	         7.09377e+57
          1959.84020	         6.65230e+57
          1960.64650	         6.54522e+57
          1961.45280	         5.86340e+57
          1962.25910	         5.62121e+57
          1963.06540	         6.66368e+57
          1963.87170	         7.55030e+57
          1964.67800	         7.40217e+57
          1965.48430	         4.76740e+57
          1966.29060	         5.02088e+57
          1967.09690	         7.33186e+57
          1967.90320	         6.20846e+57
          1968.70950	         6.85019e+57
          1969.51580	         6.52507e+57
          1970.32210	         6.67442e+57
          1971.12840	         6.80977e+57
          1971.93470	         5.03425e+57
          1972.74100	         4.83139e+57
          1973.54730	         7.52788e+57
          1974.35360	         7.68139e+57
          1975.15990	         7.62621e+57
          1975.96620	         5.99337e+57
          1976.77250	         7.36406e+57
          1977.57880	         7.52493e+57
          1978.38510	         6.21217e+57
          1979.19140	         6.74268e+57
          1979.99770	         7.61544e+57
          1980.80400	         7.61090e+57
          1981.61030	         7.33099e+57
          1982.41660	         5.27869e+57
          1983.22290	         5.94819e+57
          1984.02920	         5.32717e+57
          1984.83550	         5.16859e+57
          1985.64180	         6.57558e+57
          1986.44810	         7.45390e+57
          1987.25440	         7.22341e+57
          1988.06070	         6.21756e+57
          1988.86700	         5.74633e+57
          1989.67330	         6.65977e+57
          1990.47960	         5.81993e+57
          1991.28590	         6.34032e+57
          1992.09220	         6.58989e+57
          1992.89850	         6.30774e+57
          1993.70480	         7.24083e+57
          1994.51110	         6.67843e+57
          1995.31740	         4.70947e+57
          1996.12370	         4.77857e+57
          1996.93000	         6.01751e+57
          1997.73630	         7.80676e+57
          1998.54260	         8.08479e+57
          1999.34890	         7.23262e+57
          2000.15520	         6.12604e+57
          2000.96150	         6.28269e+57
          2001.76780	         5.71220e+57
          2002.57410	         4.48774e+57
          2003.38040	         6.08453e+57
          2004.18670	         6.79752e+57
          2004.99300	         6.51881e+57
          2005.79930	         8.71688e+57
          2006.60560	         7.18529e+57
          2007.41190	         5.49843e+57
          2008.21820	         6.06447e+57
          2009.02450	         7.45014e+57
          2009.83080	         6.86529e+57
          2010.63710	         6.56512e+57
          2011.44340	         6.76728e+57
          2012.24970	         6.71571e+57
          2013.05600	         7.31487e+57
          2013.86230	         6.73086e+57
          2014.66860	         5.42967e+57
          2015.47490	         6.61734e+57
          2016.28120	         6.69552e+57
          2017.08750	         5.16252e+57
          2017.89380	         6.33822e+57
          2018.70010	         7.15171e+57
          2019.50640	         6.66526e+57
          2020.31270	         7.12019e+57
          2021.11900	         6.35034e+57
          2021.92530	         6.32323e+57
          2022.73160	         7.00265e+57
          2023.53790	         7.51628e+57
          2024.34420	         6.80796e+57
          2025.15050	         6.07539e+57
          2025.95680	         6.06413e+57
          2026.76310	         6.28001e+57
          2027.56940	         7.21560e+57
          2028.37570	         6.69614e+57
          2029.18200	         5.18073e+57
          2029.98830	         5.94553e+57
          2030.79460	         6.13219e+57
          2031.60090	         6.99037e+57
          2032.40720	         6.22109e+57
          2033.21350	         5.13544e+57
          2034.01980	         5.36143e+57
          2034.82610	         4.87127e+57
          2035.63240	         5.33749e+57
          2036.43870	         6.15847e+57
          2037.24500	         7.39599e+57
          2038.05130	         6.19712e+57
          2038.85760	         5.35685e+57
          2039.66390	         6.52779e+57
          2040.47020	         5.62735e+57
          2041.27650	         5.17619e+57
          2042.08280	         5.61913e+57
          2042.88910	         6.86122e+57
          2043.69540	         5.29864e+57
          2044.50170	         6.00524e+57
          2045.30800	         7.17310e+57
          2046.11430	         4.83056e+57
          2046.92060	         5.22943e+57
          2047.72690	         5.51445e+57
          2048.53320	         4.38806e+57
          2049.33950	         4.07562e+57
          2050.14580	         5.18661e+57
          2050.95210	         5.85858e+57
          2051.75840	         7.36211e+57
          2052.56470	         6.42203e+57
          2053.37100	         4.95321e+57
          2054.17730	         4.39114e+57
          2054.98360	         3.30004e+57
          2055.78990	         2.82096e+57
          2056.59620	         2.77878e+57
          2057.40250	         4.70735e+57
          2058.20880	         6.89445e+57
          2059.01510	         6.68196e+57
          2059.82140	         6.54108e+57
          2060.62770	         1.05100e+58
          2061.43400	         1.90193e+58
          2062.24030	         1.60303e+58
          2063.04660	         3.89688e+57
          2063.85290	         1.87395e+57
          2064.65920	        -3.79537e+57
          2065.46550	        -1.12750e+58
          2066.27180	        -9.51515e+57
          2067.07810	         3.26912e+57
          2067.88440	         4.68110e+57
          2068.69070	         5.58448e+57
          2069.49700	         6.66663e+57
          2070.30330	         5.77525e+57
          2071.10960	         6.47308e+57
          2071.91590	         6.17997e+57
          2072.72220	         4.00789e+57
          2073.52850	         4.49601e+57
          2074.33480	         4.95382e+57
          2075.14110	         5.23862e+57
          2075.94740	         6.57976e+57
          2076.75370	         6.00012e+57
          2077.56000	         4.90585e+57
          2078.36630	         5.53986e+57
          2079.17260	         5.35384e+57
          2079.97890	         7.96156e+57
          2080.78520	         4.64238e+57
          2081.59150	         3.58329e+57
          2082.39780	         3.84545e+57
          2083.20410	         2.40379e+57
          2084.01040	         2.62661e+57
          2084.81670	         2.81824e+57
          2085.62300	         3.87048e+57
          2086.42930	         4.13442e+57
          2087.23560	         3.89170e+57
          2088.04190	         2.99465e+57
          2088.84820	         2.75849e+57
          2089.65450	         3.17617e+57
          2090.46080	         2.68790e+57
          2091.26710	         1.98536e+57
          2092.07340	         1.91429e+57
          2092.87970	         1.94891e+57
          2093.68600	        -2.69895e+56
          2094.49230	         5.99561e+56
          2095.29860	         3.59846e+57
          2096.10490	         2.78334e+57
          2096.91120	         2.56692e+57
          2097.71750	         1.90496e+57
          2098.52380	        -4.10466e+56
          2099.33010	        -1.88823e+57
          2100.13640	        -1.23960e+57
          2100.94270	         2.11851e+56
          2101.74900	         2.58126e+57
          2102.55530	         3.33531e+57
          2103.36160	         1.83563e+57
          2104.16790	         3.37617e+57
          2104.97420	         4.13275e+57
          2105.78050	         3.16939e+57
          2106.58680	         1.82904e+57
          2107.39310	        -2.95787e+57
          2108.19940	         3.69966e+56
          2109.00570	         1.99783e+57
          2109.81200	         1.13239e+57
          2110.61830	         1.42619e+57
          2111.42460	         2.42183e+57
          2112.23090	         1.60884e+57
          2113.03720	         9.32786e+56
          2113.84350	         2.00053e+57
          2114.64980	         3.72613e+57
          2115.45610	        -1.53604e+57
          2116.26240	        -1.94458e+57
          2117.06870	         1.06427e+57
          2117.87500	         1.24674e+57
          2118.68130	        -3.16306e+56
          2119.48760	        -8.28065e+56
          2120.29390	        -2.64684e+57
          2121.10020	        -1.44059e+57
          2121.90650	        -2.17305e+57
          2122.71280	        -4.61366e+56
          2123.51910	         2.47843e+57
          2124.32540	        -2.49477e+57
          2125.13170	         1.02264e+57
          2125.93800	         4.15025e+57
          2126.74430	        -1.51457e+56
          2127.55060	        -5.71114e+57
          2128.35690	        -4.99522e+56
          2129.16320	         1.50395e+57
          2129.96950	        -2.97259e+57
          2130.77580	         1.91553e+57
          2131.58210	         6.08894e+57
          2132.38840	        -1.61555e+57
          2133.19470	         3.62111e+57
          2134.00100	         9.08905e+56
          2134.80730	        -2.20433e+57
          2135.61360	         9.97184e+57
          2136.41990	         4.36191e+57
          2137.22620	         1.02004e+58
          2138.03250	         6.13139e+57
          2138.83880	        -2.55319e+57
          2139.64510	        -4.52235e+57
          2140.45140	        -8.13868e+57
          2141.25770	        -1.50771e+58
          2142.06400	         1.72672e+57
          2142.87030	         4.94500e+57
          2143.67660	         1.13022e+58
          2144.48290	         1.37980e+58
          2145.28920	         4.41029e+57
          2146.09550	        -7.08358e+57
          2146.90180	        -8.69286e+57
          2147.70810	         1.16594e+56
          2148.51440	        -7.05704e+57
          2149.32070	        -1.14894e+58
          2150.12700	        -1.18604e+58
          2150.93330	        -4.32001e+57
          2151.73960	         1.20616e+57
          2152.54590	        -6.42518e+57
          2153.35220	        -4.66400e+57
          2154.15850	        -8.35819e+57
          2154.96480	        -1.43652e+57
          2155.77110	        -6.48925e+57
          2156.57740	        -1.31369e+57
          2157.38370	         6.85259e+57
          2158.19000	        -9.45767e+56
          2158.99630	        -2.86110e+57
          2159.80260	        -1.52274e+58
          2160.60890	         2.89325e+56
          2161.41520	        -6.76983e+57
          2162.22150	        -1.29427e+57
          2163.02780	         4.36931e+57
          2163.83410	        -1.37247e+58
          2164.64040	        -9.24191e+57
          2165.44670	        -1.25666e+58
          2166.25300	        -1.17236e+58
          2167.05930	        -1.14375e+58
          2167.86560	        -7.97703e+57
          2168.67190	        -9.99625e+57
          2169.47820	        -1.16446e+58
          2170.28450	        -1.91606e+58
          2171.09080	         1.21032e+57
          2171.89710	        -1.52402e+57
          2172.70340	         3.15687e+57
          2173.50970	        -9.86498e+57
          2174.31600	        -5.97600e+57
          2175.12230	        -7.54723e+57
          2175.92860	        -6.96304e+57
          2176.73490	        -4.64617e+57
          2177.54120	        -6.74714e+57
          2178.34750	        -5.76240e+57
          2179.15380	                 nan
          2179.96010	                 nan
          2180.76640	                 nan
          2181.57270	                 nan
          2182.37900	                 nan
          2183.18530	                 nan
          2183.99160	                 nan
          2184.79790	                 nan
          2185.60420	                 nan
          2186.41050	                 nan
          2187.21680	                 nan
          2188.02310	                 nan
          2188.82940	                 nan
          2189.63570	                 nan
          2190.44200	                 nan
          2191.24830	                 nan
          2192.05460	                 nan
          2192.86090	                 nan
          2193.66720	                 nan
          2194.47350	                 nan
          2195.27980	                 nan
          2196.08610	                 nan
          2196.89240	                 nan
          2197.69870	                 nan
          2198.50500	                 nan
          2199.31130	                 nan
          2200.11760	                 nan
          2200.92390	                 nan
          2201.73020	                 nan
          2202.53650	                 nan
          2203.34280	                 nan
          2204.14910	                 nan
          2204.95540	                 nan
          2205.76170	                 nan
          2206.56800	                 nan
          2207.37430	                 nan
          2208.18060	                 nan
          2208.98690	                 nan
          2209.79320	                 nan
          2210.59950	                 nan
          2211.40580	                 nan
          2212.21210	                 nan
          2213.01840	                 nan
          2213.82470	                 nan
          2214.63100	                 nan
          2215.43730	         0.00000e+00
