#sample_490_stacked_spectrum_rest_UV-bands_median_H-alpha_noDC.txt
#median Lum: 1.71717e+42
#Rest-frame wavelength (A) | Luminosity (erg/s/A)
#
          1110.00000	         0.00000e+00
          1110.80630	        -1.69873e+59
          1111.61260	         1.54801e+59
          1112.41890	         2.19178e+59
          1113.22520	         4.35630e+58
          1114.03150	         3.59241e+58
          1114.83780	         1.90338e+59
          1115.64410	         6.62655e+58
          1116.45040	         1.97035e+59
          1117.25670	        -1.95941e+58
          1118.06300	        -6.92459e+57
          1118.86930	        -4.88045e+58
          1119.67560	         5.20217e+58
          1120.48190	        -1.79094e+58
          1121.28820	        -5.72159e+58
          1122.09450	        -6.31140e+58
          1122.90080	         3.27831e+58
          1123.70710	         9.51661e+58
          1124.51340	         7.57469e+58
          1125.31970	        -4.31413e+58
          1126.12600	        -1.64868e+58
          1126.93230	        -2.45600e+58
          1127.73860	        -2.58273e+58
          1128.54490	         2.29628e+58
          1129.35120	        -3.91803e+57
          1130.15750	        -8.21503e+58
          1130.96380	        -4.99732e+58
          1131.77010	         2.95200e+58
          1132.57640	        -1.73931e+57
          1133.38270	         4.60307e+58
          1134.18900	         1.93556e+58
          1134.99530	         4.00107e+57
          1135.80160	         1.94832e+58
          1136.60790	         1.16082e+58
          1137.41420	        -1.15891e+58
          1138.22050	         1.78340e+58
          1139.02680	         3.38757e+58
          1139.83310	         1.79516e+58
          1140.63940	         2.45170e+58
          1141.44570	        -3.47507e+57
          1142.25200	        -2.22359e+57
          1143.05830	         2.07107e+58
          1143.86460	         2.33090e+58
          1144.67090	         2.75213e+58
          1145.47720	         1.76365e+58
          1146.28350	         2.09595e+58
          1147.08980	         1.89021e+58
          1147.89610	         2.14174e+58
          1148.70240	         2.94436e+58
          1149.50870	         2.73769e+58
          1150.31500	         1.56670e+58
          1151.12130	         1.46470e+58
          1151.92760	         5.15005e+57
          1152.73390	         2.42215e+57
          1153.54020	        -8.21316e+57
          1154.34650	         1.40888e+58
          1155.15280	         2.02958e+58
          1155.95910	         4.87635e+57
          1156.76540	         3.76514e+56
          1157.57170	        -5.18596e+57
          1158.37800	        -4.15248e+56
          1159.18430	        -5.29025e+57
          1159.99060	         8.35466e+57
          1160.79690	         1.47755e+58
          1161.60320	         1.30274e+58
          1162.40950	         1.04353e+58
          1163.21580	         1.57297e+58
          1164.02210	         1.32710e+58
          1164.82840	         6.67290e+57
          1165.63470	         1.51749e+58
          1166.44100	         2.96843e+58
          1167.24730	         2.21341e+58
          1168.05360	         7.11660e+57
          1168.85990	         3.55250e+57
          1169.66620	         8.22441e+57
          1170.47250	         8.15696e+57
          1171.27880	         1.02953e+58
          1172.08510	         1.51328e+58
          1172.89140	         1.44607e+58
          1173.69770	         5.57629e+57
          1174.50400	         7.50840e+57
          1175.31030	         1.56170e+58
          1176.11660	         1.91408e+58
          1176.92290	         1.31303e+58
          1177.72920	         9.85961e+57
          1178.53550	         4.75669e+57
          1179.34180	        -9.81526e+56
          1180.14810	         3.00454e+57
          1180.95440	         1.50073e+58
          1181.76070	         1.18519e+58
          1182.56700	         5.83516e+57
          1183.37330	         3.54751e+57
          1184.17960	         1.00105e+58
          1184.98590	         7.90829e+57
          1185.79220	         4.64140e+57
          1186.59850	         1.09699e+58
          1187.40480	         1.11503e+58
          1188.21110	         1.26958e+58
          1189.01740	         1.15063e+58
          1189.82370	         1.69791e+58
          1190.63000	         1.22537e+58
          1191.43630	         1.16893e+58
          1192.24260	         8.99473e+57
          1193.04890	         1.28677e+58
          1193.85520	         1.15441e+58
          1194.66150	         6.43010e+57
          1195.46780	         1.40723e+58
          1196.27410	         1.65908e+58
          1197.08040	         1.32044e+58
          1197.88670	         1.41064e+58
          1198.69300	         1.48367e+58
          1199.49930	         1.95652e+58
          1200.30560	         1.26406e+58
          1201.11190	         4.81437e+57
          1201.91820	         6.80739e+57
          1202.72450	         8.62931e+57
          1203.53080	         1.58462e+58
          1204.33710	         8.40622e+57
          1205.14340	         6.47428e+57
          1205.94970	         9.08430e+57
          1206.75600	         7.38563e+57
          1207.56230	         4.79555e+57
          1208.36860	         6.76545e+57
          1209.17490	         5.13517e+57
          1209.98120	         7.57286e+57
          1210.78750	         8.70268e+57
          1211.59380	         8.73105e+57
          1212.40010	         1.58576e+58
          1213.20640	         2.16491e+58
          1214.01270	         1.99861e+58
          1214.81900	         2.68473e+58
          1215.62530	         4.94771e+58
          1216.43160	         9.56153e+58
          1217.23790	         1.57647e+59
          1218.04420	         1.11594e+59
          1218.85050	         8.16877e+58
          1219.65680	         5.72908e+58
          1220.46310	         3.28332e+58
          1221.26940	         2.20983e+58
          1222.07570	         1.29425e+58
          1222.88200	         8.75068e+57
          1223.68830	         1.16041e+58
          1224.49460	         9.30114e+57
          1225.30090	         8.50234e+57
          1226.10720	         9.74271e+57
          1226.91350	         6.76699e+57
          1227.71980	         8.76441e+57
          1228.52610	         1.09823e+58
          1229.33240	         8.28370e+57
          1230.13870	         5.48841e+57
          1230.94500	         6.96310e+57
          1231.75130	         7.05147e+57
          1232.55760	         9.07583e+57
          1233.36390	         7.72341e+57
          1234.17020	         8.72780e+57
          1234.97650	         8.38836e+57
          1235.78280	         8.00576e+57
          1236.58910	         8.68458e+57
          1237.39540	         1.15191e+58
          1238.20170	         1.21669e+58
          1239.00800	         1.13010e+58
          1239.81430	         1.30975e+58
          1240.62060	         1.14074e+58
          1241.42690	         1.15512e+58
          1242.23320	         1.42162e+58
          1243.03950	         9.51779e+57
          1243.84580	         8.31393e+57
          1244.65210	         1.00240e+58
          1245.45840	         9.28004e+57
          1246.26470	         6.71935e+57
          1247.07100	         5.03764e+57
          1247.87730	         5.06037e+57
          1248.68360	         4.30755e+57
          1249.48990	         6.41041e+57
          1250.29620	         8.51737e+57
          1251.10250	         6.46091e+57
          1251.90880	         3.29115e+57
          1252.71510	         6.90859e+57
          1253.52140	         1.25448e+58
          1254.32770	         1.18042e+58
          1255.13400	         1.16248e+58
          1255.94030	         1.04524e+58
          1256.74660	         7.87227e+57
          1257.55290	         8.93333e+57
          1258.35920	         8.97249e+57
          1259.16550	         7.57157e+57
          1259.97180	         6.16472e+57
          1260.77810	         7.90615e+57
          1261.58440	         9.88868e+57
          1262.39070	         7.76909e+57
          1263.19700	         7.41641e+57
          1264.00330	         9.06396e+57
          1264.80960	         1.07606e+58
          1265.61590	         1.17750e+58
          1266.42220	         1.17343e+58
          1267.22850	         1.21735e+58
          1268.03480	         1.48327e+58
          1268.84110	         1.47091e+58
          1269.64740	         1.40153e+58
          1270.45370	         1.65211e+58
          1271.26000	         1.42624e+58
          1272.06630	         1.28503e+58
          1272.87260	         1.18317e+58
          1273.67890	         1.08234e+58
          1274.48520	         1.17087e+58
          1275.29150	         1.25990e+58
          1276.09780	         1.10777e+58
          1276.90410	         1.41335e+58
          1277.71040	         1.27763e+58
          1278.51670	         1.00461e+58
          1279.32300	         1.37737e+58
          1280.12930	         1.40457e+58
          1280.93560	         1.09981e+58
          1281.74190	         1.16062e+58
          1282.54820	         1.37474e+58
          1283.35450	         1.15250e+58
          1284.16080	         1.12970e+58
          1284.96710	         1.30713e+58
          1285.77340	         1.14292e+58
          1286.57970	         1.03886e+58
          1287.38600	         1.25209e+58
          1288.19230	         1.62670e+58
          1288.99860	         1.59861e+58
          1289.80490	         1.25951e+58
          1290.61120	         1.45256e+58
          1291.41750	         1.39957e+58
          1292.22380	         1.10290e+58
          1293.03010	         1.18584e+58
          1293.83640	         1.24427e+58
          1294.64270	         1.00935e+58
          1295.44900	         7.03083e+57
          1296.25530	         7.29860e+57
          1297.06160	         1.03334e+58
          1297.86790	         1.10320e+58
          1298.67420	         1.04317e+58
          1299.48050	         9.54253e+57
          1300.28680	         9.13189e+57
          1301.09310	         5.84233e+57
          1301.89940	         3.53842e+57
          1302.70570	         5.13794e+57
          1303.51200	         6.99142e+57
          1304.31830	         9.68148e+57
          1305.12460	         1.06210e+58
          1305.93090	         1.03271e+58
          1306.73720	         1.31327e+58
          1307.54350	         1.59516e+58
          1308.34980	         1.45894e+58
          1309.15610	         1.49298e+58
          1309.96240	         1.59039e+58
          1310.76870	         1.37672e+58
          1311.57500	         1.08175e+58
          1312.38130	         1.19499e+58
          1313.18760	         1.37105e+58
          1313.99390	         1.50034e+58
          1314.80020	         1.58700e+58
          1315.60650	         1.34249e+58
          1316.41280	         1.27200e+58
          1317.21910	         1.25759e+58
          1318.02540	         1.16704e+58
          1318.83170	         1.25041e+58
          1319.63800	         1.19000e+58
          1320.44430	         1.00540e+58
          1321.25060	         1.12724e+58
          1322.05690	         1.29715e+58
          1322.86320	         1.29158e+58
          1323.66950	         1.10009e+58
          1324.47580	         8.66486e+57
          1325.28210	         9.07583e+57
          1326.08840	         1.12117e+58
          1326.89470	         1.28572e+58
          1327.70100	         1.16092e+58
          1328.50730	         8.80622e+57
          1329.31360	         9.02879e+57
          1330.11990	         9.14281e+57
          1330.92620	         9.58694e+57
          1331.73250	         1.10922e+58
          1332.53880	         1.02367e+58
          1333.34510	         9.00472e+57
          1334.15140	         9.86537e+57
          1334.95770	         9.90131e+57
          1335.76400	         1.03389e+58
          1336.57030	         1.15939e+58
          1337.37660	         1.09431e+58
          1338.18290	         9.31083e+57
          1338.98920	         1.21446e+58
          1339.79550	         1.28501e+58
          1340.60180	         1.26228e+58
          1341.40810	         1.22961e+58
          1342.21440	         9.89905e+57
          1343.02070	         1.19052e+58
          1343.82700	         1.45648e+58
          1344.63330	         1.40332e+58
          1345.43960	         1.41093e+58
          1346.24590	         1.23186e+58
          1347.05220	         1.10907e+58
          1347.85850	         9.95902e+57
          1348.66480	         1.15274e+58
          1349.47110	         1.26897e+58
          1350.27740	         1.17856e+58
          1351.08370	         1.16312e+58
          1351.89000	         1.16275e+58
          1352.69630	         1.07779e+58
          1353.50260	         1.15159e+58
          1354.30890	         1.23887e+58
          1355.11520	         1.29118e+58
          1355.92150	         1.13879e+58
          1356.72780	         9.13047e+57
          1357.53410	         9.29579e+57
          1358.34040	         9.84833e+57
          1359.14670	         1.17983e+58
          1359.95300	         1.23229e+58
          1360.75930	         1.25751e+58
          1361.56560	         1.17977e+58
          1362.37190	         1.08616e+58
          1363.17820	         1.12047e+58
          1363.98450	         1.29962e+58
          1364.79080	         1.38072e+58
          1365.59710	         1.28327e+58
          1366.40340	         1.10701e+58
          1367.20970	         8.63785e+57
          1368.01600	         8.86981e+57
          1368.82230	         9.63314e+57
          1369.62860	         1.05186e+58
          1370.43490	         7.80907e+57
          1371.24120	         9.04257e+57
          1372.04750	         9.58617e+57
          1372.85380	         1.08171e+58
          1373.66010	         1.11344e+58
          1374.46640	         1.04393e+58
          1375.27270	         1.11724e+58
          1376.07900	         9.57176e+57
          1376.88530	         8.48382e+57
          1377.69160	         8.42356e+57
          1378.49790	         8.38243e+57
          1379.30420	         8.71420e+57
          1380.11050	         9.68764e+57
          1380.91680	         1.08671e+58
          1381.72310	         9.41091e+57
          1382.52940	         8.32299e+57
          1383.33570	         9.84625e+57
          1384.14200	         1.09653e+58
          1384.94830	         1.02448e+58
          1385.75460	         9.28756e+57
          1386.56090	         1.02190e+58
          1387.36720	         1.04414e+58
          1388.17350	         1.36003e+58
          1388.97980	         1.04292e+58
          1389.78610	         7.91753e+57
          1390.59240	         7.16680e+57
          1391.39870	         6.98746e+57
          1392.20500	         7.20826e+57
          1393.01130	         7.58276e+57
          1393.81760	         8.04968e+57
          1394.62390	         7.72281e+57
          1395.43020	         5.86372e+57
          1396.23650	         5.28751e+57
          1397.04280	         6.82276e+57
          1397.84910	         8.51505e+57
          1398.65540	         8.85181e+57
          1399.46170	         1.05539e+58
          1400.26800	         9.57471e+57
          1401.07430	         8.59131e+57
          1401.88060	         7.89581e+57
          1402.68690	         7.74475e+57
          1403.49320	         9.61977e+57
          1404.29950	         1.02372e+58
          1405.10580	         1.07233e+58
          1405.91210	         1.10824e+58
          1406.71840	         1.08437e+58
          1407.52470	         1.01619e+58
          1408.33100	         1.01396e+58
          1409.13730	         1.05694e+58
          1409.94360	         1.19516e+58
          1410.74990	         1.25315e+58
          1411.55620	         1.12131e+58
          1412.36250	         1.02074e+58
          1413.16880	         9.30557e+57
          1413.97510	         7.18817e+57
          1414.78140	         7.48679e+57
          1415.58770	         1.08800e+58
          1416.39400	         1.19887e+58
          1417.20030	         9.83071e+57
          1418.00660	         8.55974e+57
          1418.81290	         8.61011e+57
          1419.61920	         9.65397e+57
          1420.42550	         1.18075e+58
          1421.23180	         1.32230e+58
          1422.03810	         1.19307e+58
          1422.84440	         9.74097e+57
          1423.65070	         1.25889e+58
          1424.45700	         1.23794e+58
          1425.26330	         8.51336e+57
          1426.06960	         7.52921e+57
          1426.87590	         9.98231e+57
          1427.68220	         9.91610e+57
          1428.48850	         1.10673e+58
          1429.29480	         1.17681e+58
          1430.10110	         9.94380e+57
          1430.90740	         7.80933e+57
          1431.71370	         7.91678e+57
          1432.52000	         8.67149e+57
          1433.32630	         7.91117e+57
          1434.13260	         8.00951e+57
          1434.93890	         8.56149e+57
          1435.74520	         9.56968e+57
          1436.55150	         9.41076e+57
          1437.35780	         8.33588e+57
          1438.16410	         9.67050e+57
          1438.97040	         9.45873e+57
          1439.77670	         8.93187e+57
          1440.58300	         9.75848e+57
          1441.38930	         9.79856e+57
          1442.19560	         9.48566e+57
          1443.00190	         8.57646e+57
          1443.80820	         1.00526e+58
          1444.61450	         9.47573e+57
          1445.42080	         7.41519e+57
          1446.22710	         9.04059e+57
          1447.03340	         1.04801e+58
          1447.83970	         1.15254e+58
          1448.64600	         1.11483e+58
          1449.45230	         1.03037e+58
          1450.25860	         1.04322e+58
          1451.06490	         9.24925e+57
          1451.87120	         7.30035e+57
          1452.67750	         6.20063e+57
          1453.48380	         7.52738e+57
          1454.29010	         8.22603e+57
          1455.09640	         8.60819e+57
          1455.90270	         8.79151e+57
          1456.70900	         9.20537e+57
          1457.51530	         9.51496e+57
          1458.32160	         1.24962e+58
          1459.12790	         1.25720e+58
          1459.93420	         1.01311e+58
          1460.74050	         8.77656e+57
          1461.54680	         8.04253e+57
          1462.35310	         8.06845e+57
          1463.15940	         9.32069e+57
          1463.96570	         9.31413e+57
          1464.77200	         1.03052e+58
          1465.57830	         9.59791e+57
          1466.38460	         8.61533e+57
          1467.19090	         8.62197e+57
          1467.99720	         8.62184e+57
          1468.80350	         9.87567e+57
          1469.60980	         9.40974e+57
          1470.41610	         9.50993e+57
          1471.22240	         1.04991e+58
          1472.02870	         1.02700e+58
          1472.83500	         9.29345e+57
          1473.64130	         9.46227e+57
          1474.44760	         9.48562e+57
          1475.25390	         9.62563e+57
          1476.06020	         8.52391e+57
          1476.86650	         6.70069e+57
          1477.67280	         5.53643e+57
          1478.47910	         6.40256e+57
          1479.28540	         7.55543e+57
          1480.09170	         7.74746e+57
          1480.89800	         8.09715e+57
          1481.70430	         7.72913e+57
          1482.51060	         7.78882e+57
          1483.31690	         7.51474e+57
          1484.12320	         7.07053e+57
          1484.92950	         7.82388e+57
          1485.73580	         8.66086e+57
          1486.54210	         8.58341e+57
          1487.34840	         8.53959e+57
          1488.15470	         9.16935e+57
          1488.96100	         9.36914e+57
          1489.76730	         9.71051e+57
          1490.57360	         9.12081e+57
          1491.37990	         8.12007e+57
          1492.18620	         8.89276e+57
          1492.99250	         8.61335e+57
          1493.79880	         7.84815e+57
          1494.60510	         9.01206e+57
          1495.41140	         7.86394e+57
          1496.21770	         8.45145e+57
          1497.02400	         9.90446e+57
          1497.83030	         7.67288e+57
          1498.63660	         6.86567e+57
          1499.44290	         7.62416e+57
          1500.24920	         7.89206e+57
          1501.05550	         7.52823e+57
          1501.86180	         7.37492e+57
          1502.66810	         8.24065e+57
          1503.47440	         8.10829e+57
          1504.28070	         8.78929e+57
          1505.08700	         9.47099e+57
          1505.89330	         8.76059e+57
          1506.69960	         8.22124e+57
          1507.50590	         9.37658e+57
          1508.31220	         9.66953e+57
          1509.11850	         9.95722e+57
          1509.92480	         9.47481e+57
          1510.73110	         9.18022e+57
          1511.53740	         6.82526e+57
          1512.34370	         7.17244e+57
          1513.15000	         9.30699e+57
          1513.95630	         1.04915e+58
          1514.76260	         9.97573e+57
          1515.56890	         8.37761e+57
          1516.37520	         8.00760e+57
          1517.18150	         8.29111e+57
          1517.98780	         7.37773e+57
          1518.79410	         6.19233e+57
          1519.60040	         7.97367e+57
          1520.40670	         9.95399e+57
          1521.21300	         9.68336e+57
          1522.01930	         8.62971e+57
          1522.82560	         8.95344e+57
          1523.63190	         1.05873e+58
          1524.43820	         9.48711e+57
          1525.24450	         7.09961e+57
          1526.05080	         6.88360e+57
          1526.85710	         6.86307e+57
          1527.66340	         7.16824e+57
          1528.46970	         8.58188e+57
          1529.27600	         7.84354e+57
          1530.08230	         7.23760e+57
          1530.88860	         7.66964e+57
          1531.69490	         8.73379e+57
          1532.50120	         9.83070e+57
          1533.30750	         1.01898e+58
          1534.11380	         9.65211e+57
          1534.92010	         8.74709e+57
          1535.72640	         8.47988e+57
          1536.53270	         8.79323e+57
          1537.33900	         9.05200e+57
          1538.14530	         9.16124e+57
          1538.95160	         8.78248e+57
          1539.75790	         8.85890e+57
          1540.56420	         7.72792e+57
          1541.37050	         7.28916e+57
          1542.17680	         6.44342e+57
          1542.98310	         6.58706e+57
          1543.78940	         7.78404e+57
          1544.59570	         7.35220e+57
          1545.40200	         7.73669e+57
          1546.20830	         9.55240e+57
          1547.01460	         1.05670e+58
          1547.82090	         1.15514e+58
          1548.62720	         1.23615e+58
          1549.43350	         1.25098e+58
          1550.23980	         1.14236e+58
          1551.04610	         1.27048e+58
          1551.85240	         1.36716e+58
          1552.65870	         1.27163e+58
          1553.46500	         9.66496e+57
          1554.27130	         8.95481e+57
          1555.07760	         9.22404e+57
          1555.88390	         9.21396e+57
          1556.69020	         9.66901e+57
          1557.49650	         9.35723e+57
          1558.30280	         7.85499e+57
          1559.10910	         8.37966e+57
          1559.91540	         9.42482e+57
          1560.72170	         8.74615e+57
          1561.52800	         7.55958e+57
          1562.33430	         7.93780e+57
          1563.14060	         7.88021e+57
          1563.94690	         7.82419e+57
          1564.75320	         7.83663e+57
          1565.55950	         6.66699e+57
          1566.36580	         7.52912e+57
          1567.17210	         9.72085e+57
          1567.97840	         8.99677e+57
          1568.78470	         7.40709e+57
          1569.59100	         8.71026e+57
          1570.39730	         9.34283e+57
          1571.20360	         7.91596e+57
          1572.00990	         7.24592e+57
          1572.81620	         8.79493e+57
          1573.62250	         1.00913e+58
          1574.42880	         9.16538e+57
          1575.23510	         7.81750e+57
          1576.04140	         8.20891e+57
          1576.84770	         8.65072e+57
          1577.65400	         8.98525e+57
          1578.46030	         9.75686e+57
          1579.26660	         1.01680e+58
          1580.07290	         8.85334e+57
          1580.87920	         7.90890e+57
          1581.68550	         7.84137e+57
          1582.49180	         7.87990e+57
          1583.29810	         7.48931e+57
          1584.10440	         8.86525e+57
          1584.91070	         8.73642e+57
          1585.71700	         7.91521e+57
          1586.52330	         8.47879e+57
          1587.32960	         8.32707e+57
          1588.13590	         8.19963e+57
          1588.94220	         7.81922e+57
          1589.74850	         9.12256e+57
          1590.55480	         9.15095e+57
          1591.36110	         8.47271e+57
          1592.16740	         8.76181e+57
          1592.97370	         7.71377e+57
          1593.78000	         7.84457e+57
          1594.58630	         8.57435e+57
          1595.39260	         7.96578e+57
          1596.19890	         8.62311e+57
          1597.00520	         9.45846e+57
          1597.81150	         8.39514e+57
          1598.61780	         6.66696e+57
          1599.42410	         6.81597e+57
          1600.23040	         6.73448e+57
          1601.03670	         7.42008e+57
          1601.84300	         8.22690e+57
          1602.64930	         9.31015e+57
          1603.45560	         9.35534e+57
          1604.26190	         9.07907e+57
          1605.06820	         8.82430e+57
          1605.87450	         7.08870e+57
          1606.68080	         6.19344e+57
          1607.48710	         5.97728e+57
          1608.29340	         6.33146e+57
          1609.09970	         7.61781e+57
          1609.90600	         8.53196e+57
          1610.71230	         7.19937e+57
          1611.51860	         6.99575e+57
          1612.32490	         7.08203e+57
          1613.13120	         8.49857e+57
          1613.93750	         8.23342e+57
          1614.74380	         7.59600e+57
          1615.55010	         8.82333e+57
          1616.35640	         9.99994e+57
          1617.16270	         1.06757e+58
          1617.96900	         1.00941e+58
          1618.77530	         9.00604e+57
          1619.58160	         9.04883e+57
          1620.38790	         9.06686e+57
          1621.19420	         8.93938e+57
          1622.00050	         7.51736e+57
          1622.80680	         8.21959e+57
          1623.61310	         8.87490e+57
          1624.41940	         8.06872e+57
          1625.22570	         9.85259e+57
          1626.03200	         9.60396e+57
          1626.83830	         8.54914e+57
          1627.64460	         7.90538e+57
          1628.45090	         7.91081e+57
          1629.25720	         9.75104e+57
          1630.06350	         9.97570e+57
          1630.86980	         7.37504e+57
          1631.67610	         7.81597e+57
          1632.48240	         6.90990e+57
          1633.28870	         6.56510e+57
          1634.09500	         8.66178e+57
          1634.90130	         9.61229e+57
          1635.70760	         7.92491e+57
          1636.51390	         6.83087e+57
          1637.32020	         6.89770e+57
          1638.12650	         7.89340e+57
          1638.93280	         9.43055e+57
          1639.73910	         1.02952e+58
          1640.54540	         9.73798e+57
          1641.35170	         8.27513e+57
          1642.15800	         8.10940e+57
          1642.96430	         8.54656e+57
          1643.77060	         7.56637e+57
          1644.57690	         7.37833e+57
          1645.38320	         8.16701e+57
          1646.18950	         7.65703e+57
          1646.99580	         9.30474e+57
          1647.80210	         8.63792e+57
          1648.60840	         7.66747e+57
          1649.41470	         8.67728e+57
          1650.22100	         7.23172e+57
          1651.02730	         6.60287e+57
          1651.83360	         7.43089e+57
          1652.63990	         8.16348e+57
          1653.44620	         8.87238e+57
          1654.25250	         8.57831e+57
          1655.05880	         8.24851e+57
          1655.86510	         8.33679e+57
          1656.67140	         7.63325e+57
          1657.47770	         7.81351e+57
          1658.28400	         8.67098e+57
          1659.09030	         9.11380e+57
          1659.89660	         8.80036e+57
          1660.70290	         9.31291e+57
          1661.50920	         9.82596e+57
          1662.31550	         8.66063e+57
          1663.12180	         8.42934e+57
          1663.92810	         9.32002e+57
          1664.73440	         1.14221e+58
          1665.54070	         1.31371e+58
          1666.34700	         1.30766e+58
          1667.15330	         1.17715e+58
          1667.95960	         9.36074e+57
          1668.76590	         6.90620e+57
          1669.57220	         6.43029e+57
          1670.37850	         7.61313e+57
          1671.18480	         7.74245e+57
          1671.99110	         7.40850e+57
          1672.79740	         7.09415e+57
          1673.60370	         7.30556e+57
          1674.41000	         6.55687e+57
          1675.21630	         7.23402e+57
          1676.02260	         7.48662e+57
          1676.82890	         6.68476e+57
          1677.63520	         5.95431e+57
          1678.44150	         6.72273e+57
          1679.24780	         8.66626e+57
          1680.05410	         8.41619e+57
          1680.86040	         7.26803e+57
          1681.66670	         7.70778e+57
          1682.47300	         8.02691e+57
          1683.27930	         7.92654e+57
          1684.08560	         8.82828e+57
          1684.89190	         8.43026e+57
          1685.69820	         6.23197e+57
          1686.50450	         5.07978e+57
          1687.31080	         6.69364e+57
          1688.11710	         8.11447e+57
          1688.92340	         6.77282e+57
          1689.72970	         6.24314e+57
          1690.53600	         7.24302e+57
          1691.34230	         7.46986e+57
          1692.14860	         8.12188e+57
          1692.95490	         7.76797e+57
          1693.76120	         6.63004e+57
          1694.56750	         6.36156e+57
          1695.37380	         7.37536e+57
          1696.18010	         8.41351e+57
          1696.98640	         8.56061e+57
          1697.79270	         8.37123e+57
          1698.59900	         7.81804e+57
          1699.40530	         7.63411e+57
          1700.21160	         7.92669e+57
          1701.01790	         8.93198e+57
          1701.82420	         8.20536e+57
          1702.63050	         8.00579e+57
          1703.43680	         8.18799e+57
          1704.24310	         7.67929e+57
          1705.04940	         7.15022e+57
          1705.85570	         7.32776e+57
          1706.66200	         8.93730e+57
          1707.46830	         8.62117e+57
          1708.27460	         7.88487e+57
          1709.08090	         6.75776e+57
          1709.88720	         5.91503e+57
          1710.69350	         5.85312e+57
          1711.49980	         6.33759e+57
          1712.30610	         7.10291e+57
          1713.11240	         8.86440e+57
          1713.91870	         7.96863e+57
          1714.72500	         8.35154e+57
          1715.53130	         9.42964e+57
          1716.33760	         7.77851e+57
          1717.14390	         7.80072e+57
          1717.95020	         9.24190e+57
          1718.75650	         8.79163e+57
          1719.56280	         8.83372e+57
          1720.36910	         8.23450e+57
          1721.17540	         7.75437e+57
          1721.98170	         6.49072e+57
          1722.78800	         6.89823e+57
          1723.59430	         7.12643e+57
          1724.40060	         8.08037e+57
          1725.20690	         8.63224e+57
          1726.01320	         8.57083e+57
          1726.81950	         7.61973e+57
          1727.62580	         7.67295e+57
          1728.43210	         8.21865e+57
          1729.23840	         7.75203e+57
          1730.04470	         7.93703e+57
          1730.85100	         8.53190e+57
          1731.65730	         7.80483e+57
          1732.46360	         8.01912e+57
          1733.26990	         8.40636e+57
          1734.07620	         8.29285e+57
          1734.88250	         7.56760e+57
          1735.68880	         7.29524e+57
          1736.49510	         8.56272e+57
          1737.30140	         9.33837e+57
          1738.10770	         7.37615e+57
          1738.91400	         7.29280e+57
          1739.72030	         7.29515e+57
          1740.52660	         6.15067e+57
          1741.33290	         5.97173e+57
          1742.13920	         5.79137e+57
          1742.94550	         7.34585e+57
          1743.75180	         8.13254e+57
          1744.55810	         7.74458e+57
          1745.36440	         6.95138e+57
          1746.17070	         4.82824e+57
          1746.97700	         4.06279e+57
          1747.78330	         6.34283e+57
          1748.58960	         7.30342e+57
          1749.39590	         6.55321e+57
          1750.20220	         6.47036e+57
          1751.00850	         6.59979e+57
          1751.81480	         6.39712e+57
          1752.62110	         6.18069e+57
          1753.42740	         7.46369e+57
          1754.23370	         6.93811e+57
          1755.04000	         7.47328e+57
          1755.84630	         8.15019e+57
          1756.65260	         8.33431e+57
          1757.45890	         8.26183e+57
          1758.26520	         8.17083e+57
          1759.07150	         9.54539e+57
          1759.87780	         8.70738e+57
          1760.68410	         7.32227e+57
          1761.49040	         7.88242e+57
          1762.29670	         7.67957e+57
          1763.10300	         7.27235e+57
          1763.90930	         7.66387e+57
          1764.71560	         7.28683e+57
          1765.52190	         7.40432e+57
          1766.32820	         9.13344e+57
          1767.13450	         8.59818e+57
          1767.94080	         6.56727e+57
          1768.74710	         6.69265e+57
          1769.55340	         7.08788e+57
          1770.35970	         6.03032e+57
          1771.16600	         7.36167e+57
          1771.97230	         8.64652e+57
          1772.77860	         8.29401e+57
          1773.58490	         6.79280e+57
          1774.39120	         5.56675e+57
          1775.19750	         6.24575e+57
          1776.00380	         7.07600e+57
          1776.81010	         7.51094e+57
          1777.61640	         6.49410e+57
          1778.42270	         6.63101e+57
          1779.22900	         6.29836e+57
          1780.03530	         6.66386e+57
          1780.84160	         7.42171e+57
          1781.64790	         8.82829e+57
          1782.45420	         7.60444e+57
          1783.26050	         6.96696e+57
          1784.06680	         7.30592e+57
          1784.87310	         8.10545e+57
          1785.67940	         7.99750e+57
          1786.48570	         6.54817e+57
          1787.29200	         6.26161e+57
          1788.09830	         5.98873e+57
          1788.90460	         5.39769e+57
          1789.71090	         5.44450e+57
          1790.51720	         5.21666e+57
          1791.32350	         6.67829e+57
          1792.12980	         8.19521e+57
          1792.93610	         7.72703e+57
          1793.74240	         8.23012e+57
          1794.54870	         9.35254e+57
          1795.35500	         8.80434e+57
          1796.16130	         8.68932e+57
          1796.96760	         7.83494e+57
          1797.77390	         7.94051e+57
          1798.58020	         7.56124e+57
          1799.38650	         6.72616e+57
          1800.19280	         7.04014e+57
          1800.99910	         7.89983e+57
          1801.80540	         7.38240e+57
          1802.61170	         7.24978e+57
          1803.41800	         7.62760e+57
          1804.22430	         7.24389e+57
          1805.03060	         6.89916e+57
          1805.83690	         7.60435e+57
          1806.64320	         7.77497e+57
          1807.44950	         6.79359e+57
          1808.25580	         7.42265e+57
          1809.06210	         8.47973e+57
          1809.86840	         6.78859e+57
          1810.67470	         7.65743e+57
          1811.48100	         8.42323e+57
          1812.28730	         9.31921e+57
          1813.09360	         7.99833e+57
          1813.89990	         8.10433e+57
          1814.70620	         8.42488e+57
          1815.51250	         8.25061e+57
          1816.31880	         8.52994e+57
          1817.12510	         7.60052e+57
          1817.93140	         6.86561e+57
          1818.73770	         7.22541e+57
          1819.54400	         8.92374e+57
          1820.35030	         8.31075e+57
          1821.15660	         6.01610e+57
          1821.96290	         5.84575e+57
          1822.76920	         6.80397e+57
          1823.57550	         6.77097e+57
          1824.38180	         6.84649e+57
          1825.18810	         7.14624e+57
          1825.99440	         8.04706e+57
          1826.80070	         7.28348e+57
          1827.60700	         6.37653e+57
          1828.41330	         6.00908e+57
          1829.21960	         6.83946e+57
          1830.02590	         6.35290e+57
          1830.83220	         7.44916e+57
          1831.63850	         7.17786e+57
          1832.44480	         6.51025e+57
          1833.25110	         8.74440e+57
          1834.05740	         1.01048e+58
          1834.86370	         8.35469e+57
          1835.67000	         6.28246e+57
          1836.47630	         7.31255e+57
          1837.28260	         8.94398e+57
          1838.08890	         9.12008e+57
          1838.89520	         8.38727e+57
          1839.70150	         6.96227e+57
          1840.50780	         7.61912e+57
          1841.31410	         6.59419e+57
          1842.12040	         6.36407e+57
          1842.92670	         6.41018e+57
          1843.73300	         5.87326e+57
          1844.53930	         6.98557e+57
          1845.34560	         7.26368e+57
          1846.15190	         7.41166e+57
          1846.95820	         7.92605e+57
          1847.76450	         7.49336e+57
          1848.57080	         5.10698e+57
          1849.37710	         5.09557e+57
          1850.18340	         6.07187e+57
          1850.98970	         7.05255e+57
          1851.79600	         7.62777e+57
          1852.60230	         6.68506e+57
          1853.40860	         7.90132e+57
          1854.21490	         7.39338e+57
          1855.02120	         6.48292e+57
          1855.82750	         6.51172e+57
          1856.63380	         6.51120e+57
          1857.44010	         6.08944e+57
          1858.24640	         7.00395e+57
          1859.05270	         7.26378e+57
          1859.85900	         6.47715e+57
          1860.66530	         7.02710e+57
          1861.47160	         6.33108e+57
          1862.27790	         6.24710e+57
          1863.08420	         7.06337e+57
          1863.89050	         7.43582e+57
          1864.69680	         7.74401e+57
          1865.50310	         7.22907e+57
          1866.30940	         5.93249e+57
          1867.11570	         6.63055e+57
          1867.92200	         7.53918e+57
          1868.72830	         7.52559e+57
          1869.53460	         7.50795e+57
          1870.34090	         7.76163e+57
          1871.14720	         7.88156e+57
          1871.95350	         6.59135e+57
          1872.75980	         6.94920e+57
          1873.56610	         6.70171e+57
          1874.37240	         5.60492e+57
          1875.17870	         5.64407e+57
          1875.98500	         6.86062e+57
          1876.79130	         8.04997e+57
          1877.59760	         6.92874e+57
          1878.40390	         6.02798e+57
          1879.21020	         5.94287e+57
          1880.01650	         6.69391e+57
          1880.82280	         7.92348e+57
          1881.62910	         8.46683e+57
          1882.43540	         9.65227e+57
          1883.24170	         7.29672e+57
          1884.04800	         6.48995e+57
          1884.85430	         7.39581e+57
          1885.66060	         7.76669e+57
          1886.46690	         8.14332e+57
          1887.27320	         6.95618e+57
          1888.07950	         6.13995e+57
          1888.88580	         7.18999e+57
          1889.69210	         9.13884e+57
          1890.49840	         8.83642e+57
          1891.30470	         7.52716e+57
          1892.11100	         8.40922e+57
          1892.91730	         7.13758e+57
          1893.72360	         7.02587e+57
          1894.52990	         6.61738e+57
          1895.33620	         7.47434e+57
          1896.14250	         7.37429e+57
          1896.94880	         5.77220e+57
          1897.75510	         5.10432e+57
          1898.56140	         7.68916e+57
          1899.36770	         8.31997e+57
          1900.17400	         5.86075e+57
          1900.98030	         5.40324e+57
          1901.78660	         7.06173e+57
          1902.59290	         7.66579e+57
          1903.39920	         7.95592e+57
          1904.20550	         9.12210e+57
          1905.01180	         8.58096e+57
          1905.81810	         1.05912e+58
          1906.62440	         1.28056e+58
          1907.43070	         1.54697e+58
          1908.23700	         1.45140e+58
          1909.04330	         1.32531e+58
          1909.84960	         1.13159e+58
          1910.65590	         1.03954e+58
          1911.46220	         1.00105e+58
          1912.26850	         7.81433e+57
          1913.07480	         6.02165e+57
          1913.88110	         5.95103e+57
          1914.68740	         5.62038e+57
          1915.49370	         5.48470e+57
          1916.30000	         6.07079e+57
          1917.10630	         6.82507e+57
          1917.91260	         6.86771e+57
          1918.71890	         6.96394e+57
          1919.52520	         6.56036e+57
          1920.33150	         6.49609e+57
          1921.13780	         6.71603e+57
          1921.94410	         8.40503e+57
          1922.75040	         8.58057e+57
          1923.55670	         8.18766e+57
          1924.36300	         8.03748e+57
          1925.16930	         6.47059e+57
          1925.97560	         6.08787e+57
          1926.78190	         5.24103e+57
          1927.58820	         5.63563e+57
          1928.39450	         5.33038e+57
          1929.20080	         5.24971e+57
          1930.00710	         6.54848e+57
          1930.81340	         7.64257e+57
          1931.61970	         6.81810e+57
          1932.42600	         7.35733e+57
          1933.23230	         7.92152e+57
          1934.03860	         7.46367e+57
          1934.84490	         7.18649e+57
          1935.65120	         7.81756e+57
          1936.45750	         7.79953e+57
          1937.26380	         6.91109e+57
          1938.07010	         7.73250e+57
          1938.87640	         6.61665e+57
          1939.68270	         6.27359e+57
          1940.48900	         7.40596e+57
          1941.29530	         8.13160e+57
          1942.10160	         6.86471e+57
          1942.90790	         7.19393e+57
          1943.71420	         6.30531e+57
          1944.52050	         5.61001e+57
          1945.32680	         5.56579e+57
          1946.13310	         6.86514e+57
          1946.93940	         8.39967e+57
          1947.74570	         7.99440e+57
          1948.55200	         6.78138e+57
          1949.35830	         6.15479e+57
          1950.16460	         5.36154e+57
          1950.97090	         6.48828e+57
          1951.77720	         7.22578e+57
          1952.58350	         7.21528e+57
          1953.38980	         6.94592e+57
          1954.19610	         4.78376e+57
          1955.00240	         4.08287e+57
          1955.80870	         5.95002e+57
          1956.61500	         7.24326e+57
          1957.42130	         6.64115e+57
          1958.22760	         6.48691e+57
          1959.03390	         7.51612e+57
          1959.84020	         8.38562e+57
          1960.64650	         7.38620e+57
          1961.45280	         5.55196e+57
          1962.25910	         5.64165e+57
          1963.06540	         6.58178e+57
          1963.87170	         6.35963e+57
          1964.67800	         7.75579e+57
          1965.48430	         7.21055e+57
          1966.29060	         6.68982e+57
          1967.09690	         7.48409e+57
          1967.90320	         7.47187e+57
          1968.70950	         7.61362e+57
          1969.51580	         7.13125e+57
          1970.32210	         7.65963e+57
          1971.12840	         7.07196e+57
          1971.93470	         5.06447e+57
          1972.74100	         4.54429e+57
          1973.54730	         7.48511e+57
          1974.35360	         7.86225e+57
          1975.15990	         7.71415e+57
          1975.96620	         6.36109e+57
          1976.77250	         6.68681e+57
          1977.57880	         6.93319e+57
          1978.38510	         6.59536e+57
          1979.19140	         7.24004e+57
          1979.99770	         7.88404e+57
          1980.80400	         8.54210e+57
          1981.61030	         7.85023e+57
          1982.41660	         5.44273e+57
          1983.22290	         5.68469e+57
          1984.02920	         6.37691e+57
          1984.83550	         6.03314e+57
          1985.64180	         6.13857e+57
          1986.44810	         6.18389e+57
          1987.25440	         6.46874e+57
          1988.06070	         5.66171e+57
          1988.86700	         5.00586e+57
          1989.67330	         6.14516e+57
          1990.47960	         6.65532e+57
          1991.28590	         6.67205e+57
          1992.09220	         6.60287e+57
          1992.89850	         6.44055e+57
          1993.70480	         5.42916e+57
          1994.51110	         4.79773e+57
          1995.31740	         3.86136e+57
          1996.12370	         5.56208e+57
          1996.93000	         7.05894e+57
          1997.73630	         8.66303e+57
          1998.54260	         7.71148e+57
          1999.34890	         6.40205e+57
          2000.15520	         5.47197e+57
          2000.96150	         7.14874e+57
          2001.76780	         5.99407e+57
          2002.57410	         5.14684e+57
          2003.38040	         7.40944e+57
          2004.18670	         6.54547e+57
          2004.99300	         7.03027e+57
          2005.79930	         7.92287e+57
          2006.60560	         7.94364e+57
          2007.41190	         7.04073e+57
          2008.21820	         5.87436e+57
          2009.02450	         6.60069e+57
          2009.83080	         5.96824e+57
          2010.63710	         6.80656e+57
          2011.44340	         8.04192e+57
          2012.24970	         8.70836e+57
          2013.05600	         7.59814e+57
          2013.86230	         6.39299e+57
          2014.66860	         5.92253e+57
          2015.47490	         6.21553e+57
          2016.28120	         6.19188e+57
          2017.08750	         6.90392e+57
          2017.89380	         6.09744e+57
          2018.70010	         5.73151e+57
          2019.50640	         5.99011e+57
          2020.31270	         6.58661e+57
          2021.11900	         7.42181e+57
          2021.92530	         7.28706e+57
          2022.73160	         6.84039e+57
          2023.53790	         6.14328e+57
          2024.34420	         5.85823e+57
          2025.15050	         4.92274e+57
          2025.95680	         5.19734e+57
          2026.76310	         5.35478e+57
          2027.56940	         6.37271e+57
          2028.37570	         7.08266e+57
          2029.18200	         7.13757e+57
          2029.98830	         6.08864e+57
          2030.79460	         7.32283e+57
          2031.60090	         5.54716e+57
          2032.40720	         6.11658e+57
          2033.21350	         5.98798e+57
          2034.01980	         4.96978e+57
          2034.82610	         4.12256e+57
          2035.63240	         4.73823e+57
          2036.43870	         5.03398e+57
          2037.24500	         6.16072e+57
          2038.05130	         6.56737e+57
          2038.85760	         6.84077e+57
          2039.66390	         7.31868e+57
          2040.47020	         6.79140e+57
          2041.27650	         5.33817e+57
          2042.08280	         5.18414e+57
          2042.88910	         6.47714e+57
          2043.69540	         6.46530e+57
          2044.50170	         5.66057e+57
          2045.30800	         4.18651e+57
          2046.11430	         4.19990e+57
          2046.92060	         5.97471e+57
          2047.72690	         7.45013e+57
          2048.53320	         6.23496e+57
          2049.33950	         4.34024e+57
          2050.14580	         4.73213e+57
          2050.95210	         6.27796e+57
          2051.75840	         6.67508e+57
          2052.56470	         4.82702e+57
          2053.37100	         3.75795e+57
          2054.17730	         4.03236e+57
          2054.98360	         4.20006e+57
          2055.78990	         3.89397e+57
          2056.59620	         3.48931e+57
          2057.40250	         6.43979e+57
          2058.20880	         7.82845e+57
          2059.01510	         6.99133e+57
          2059.82140	         6.05261e+57
          2060.62770	         1.16495e+58
          2061.43400	         1.74600e+58
          2062.24030	         1.53243e+58
          2063.04660	         2.80327e+57
          2063.85290	         7.57639e+56
          2064.65920	        -3.49200e+57
          2065.46550	        -7.39762e+57
          2066.27180	        -8.18078e+57
          2067.07810	         3.66963e+57
          2067.88440	         5.67670e+57
          2068.69070	         6.34937e+57
          2069.49700	         5.02158e+57
          2070.30330	         4.06691e+57
          2071.10960	         7.04009e+57
          2071.91590	         6.88572e+57
          2072.72220	         4.38840e+57
          2073.52850	         5.27818e+57
          2074.33480	         5.40353e+57
          2075.14110	         4.55322e+57
          2075.94740	         4.83446e+57
          2076.75370	         4.55042e+57
          2077.56000	         4.97714e+57
          2078.36630	         5.58389e+57
          2079.17260	         5.10482e+57
          2079.97890	         4.58410e+57
          2080.78520	         5.52507e+57
          2081.59150	         5.78567e+57
          2082.39780	         5.97804e+57
          2083.20410	         3.64596e+57
          2084.01040	         2.42670e+57
          2084.81670	         2.67632e+57
          2085.62300	         3.43996e+57
          2086.42930	         3.41121e+57
          2087.23560	         2.83916e+57
          2088.04190	         3.19756e+57
          2088.84820	         4.07592e+57
          2089.65450	         3.88600e+57
          2090.46080	         3.43956e+57
          2091.26710	         4.30479e+57
          2092.07340	         4.43299e+57
          2092.87970	         3.03433e+57
          2093.68600	        -1.33282e+57
          2094.49230	        -8.37359e+56
          2095.29860	         5.17674e+57
          2096.10490	         5.23785e+57
          2096.91120	         2.68326e+57
          2097.71750	         7.46084e+56
          2098.52380	         5.67453e+56
          2099.33010	         9.89752e+56
          2100.13640	         2.77035e+57
          2100.94270	         1.64325e+57
          2101.74900	         4.72910e+57
          2102.55530	         3.62038e+57
          2103.36160	         2.43515e+57
          2104.16790	         2.45620e+57
          2104.97420	         1.65739e+57
          2105.78050	         9.94526e+56
          2106.58680	         2.36408e+57
          2107.39310	        -1.16491e+57
          2108.19940	        -8.92922e+56
          2109.00570	         8.69096e+56
          2109.81200	        -7.20300e+56
          2110.61830	        -3.99286e+56
          2111.42460	         1.20087e+57
          2112.23090	         5.77619e+56
          2113.03720	         2.01122e+57
          2113.84350	        -2.80468e+57
          2114.64980	         9.47677e+56
          2115.45610	         1.84364e+57
          2116.26240	        -3.10987e+57
          2117.06870	         4.10023e+56
          2117.87500	        -1.08983e+57
          2118.68130	        -1.23868e+57
          2119.48760	         1.88638e+57
          2120.29390	        -1.76334e+56
          2121.10020	        -4.93010e+57
          2121.90650	         5.41579e+56
          2122.71280	         3.71243e+57
          2123.51910	         6.22747e+57
          2124.32540	         1.55207e+56
          2125.13170	        -7.30095e+57
          2125.93800	         5.31491e+56
          2126.74430	        -9.74479e+56
          2127.55060	        -4.39935e+57
          2128.35690	        -6.91101e+57
          2129.16320	        -1.86359e+57
          2129.96950	        -4.71621e+55
          2130.77580	         2.00232e+57
          2131.58210	         3.41465e+56
          2132.38840	         3.47474e+57
          2133.19470	         5.03971e+57
          2134.00100	         3.04615e+57
          2134.80730	        -1.01829e+58
          2135.61360	         4.65807e+57
          2136.41990	         9.57028e+57
          2137.22620	         8.87080e+57
          2138.03250	        -4.84251e+57
          2138.83880	        -7.35409e+57
          2139.64510	        -3.99975e+57
          2140.45140	        -6.38010e+57
          2141.25770	        -8.74332e+57
          2142.06400	        -9.26849e+57
          2142.87030	         4.48246e+57
          2143.67660	         8.84950e+57
          2144.48290	         8.43894e+57
          2145.28920	        -4.72399e+57
          2146.09550	        -1.05327e+58
          2146.90180	        -4.03725e+57
          2147.70810	         9.48816e+55
          2148.51440	        -1.70333e+57
          2149.32070	        -5.40923e+57
          2150.12700	        -1.63830e+58
          2150.93330	        -5.38554e+57
          2151.73960	        -3.60141e+57
          2152.54590	        -5.79022e+57
          2153.35220	        -3.76703e+57
          2154.15850	        -2.15860e+57
          2154.96480	         5.50176e+57
          2155.77110	         2.35906e+57
          2156.57740	        -2.82302e+57
          2157.38370	         2.90759e+57
          2158.19000	         3.85836e+57
          2158.99630	        -3.46054e+57
          2159.80260	        -3.20660e+57
          2160.60890	         4.26750e+57
          2161.41520	        -1.10466e+58
          2162.22150	         4.35025e+56
          2163.02780	        -3.33134e+57
          2163.83410	        -7.22723e+57
          2164.64040	        -1.51735e+58
          2165.44670	        -1.59199e+58
          2166.25300	        -1.05385e+58
          2167.05930	         2.66996e+57
          2167.86560	        -4.29650e+57
          2168.67190	         4.44543e+57
          2169.47820	         1.14235e+57
          2170.28450	        -6.40085e+57
          2171.09080	         1.32915e+57
          2171.89710	         1.56756e+57
          2172.70340	         4.46460e+57
          2173.50970	        -6.94159e+57
          2174.31600	        -4.89494e+57
          2175.12230	        -5.43313e+57
          2175.92860	        -7.28242e+57
          2176.73490	        -1.07666e+58
          2177.54120	        -7.55282e+57
          2178.34750	        -7.22853e+55
          2179.15380	                 nan
          2179.96010	                 nan
          2180.76640	                 nan
          2181.57270	                 nan
          2182.37900	                 nan
          2183.18530	                 nan
          2183.99160	                 nan
          2184.79790	                 nan
          2185.60420	                 nan
          2186.41050	                 nan
          2187.21680	                 nan
          2188.02310	                 nan
          2188.82940	                 nan
          2189.63570	                 nan
          2190.44200	                 nan
          2191.24830	                 nan
          2192.05460	                 nan
          2192.86090	                 nan
          2193.66720	                 nan
          2194.47350	                 nan
          2195.27980	                 nan
          2196.08610	                 nan
          2196.89240	                 nan
          2197.69870	                 nan
          2198.50500	                 nan
          2199.31130	                 nan
          2200.11760	                 nan
          2200.92390	                 nan
          2201.73020	                 nan
          2202.53650	                 nan
          2203.34280	                 nan
          2204.14910	                 nan
          2204.95540	                 nan
          2205.76170	                 nan
          2206.56800	                 nan
          2207.37430	                 nan
          2208.18060	                 nan
          2208.98690	                 nan
          2209.79320	                 nan
          2210.59950	                 nan
          2211.40580	                 nan
          2212.21210	                 nan
          2213.01840	                 nan
          2213.82470	                 nan
          2214.63100	                 nan
          2215.43730	         0.00000e+00
