#sample_98_stacked_spectrum_rest_UV-bands_median_H-alpha_noDC.txt
#median Lum: 1.70003e+42
#Rest-frame wavelength (A) | Luminosity (erg/s/A)
#
          1110.00000	         0.00000e+00
          1110.80630	        -7.94149e+59
          1111.61260	        -2.12444e+59
          1112.41890	         9.13552e+57
          1113.22520	         6.54478e+58
          1114.03150	         5.93823e+58
          1114.83780	         4.08907e+59
          1115.64410	         2.06318e+59
          1116.45040	         4.51569e+58
          1117.25670	         7.36404e+58
          1118.06300	        -2.00805e+58
          1118.86930	        -1.51689e+59
          1119.67560	         3.96207e+58
          1120.48190	        -7.67916e+58
          1121.28820	        -1.27367e+59
          1122.09450	         4.02608e+58
          1122.90080	         6.75321e+58
          1123.70710	         3.08555e+58
          1124.51340	         9.02682e+58
          1125.31970	        -4.59570e+58
          1126.12600	        -1.25406e+58
          1126.93230	        -3.10222e+58
          1127.73860	        -3.54323e+58
          1128.54490	        -5.02100e+58
          1129.35120	         1.80691e+58
          1130.15750	        -1.43370e+58
          1130.96380	        -2.67526e+58
          1131.77010	         1.79327e+58
          1132.57640	         4.43006e+58
          1133.38270	         4.09089e+58
          1134.18900	         2.50550e+58
          1134.99530	         2.39848e+58
          1135.80160	         9.49650e+57
          1136.60790	        -2.30338e+57
          1137.41420	         1.87728e+57
          1138.22050	         4.63829e+58
          1139.02680	         3.80471e+58
          1139.83310	         2.18857e+58
          1140.63940	        -6.98753e+57
          1141.44570	        -3.39829e+58
          1142.25200	        -1.07859e+57
          1143.05830	         1.95209e+58
          1143.86460	         2.04780e+58
          1144.67090	         6.39733e+57
          1145.47720	         1.05883e+58
          1146.28350	         1.42638e+58
          1147.08980	         1.74619e+58
          1147.89610	         1.29902e+58
          1148.70240	         1.77261e+58
          1149.50870	         3.25071e+58
          1150.31500	         1.26646e+58
          1151.12130	         7.00924e+56
          1151.92760	         2.23004e+57
          1152.73390	         6.63437e+57
          1153.54020	         5.28874e+57
          1154.34650	         2.24886e+58
          1155.15280	         2.44018e+58
          1155.95910	         9.37122e+57
          1156.76540	         8.25907e+57
          1157.57170	         6.95327e+57
          1158.37800	        -5.76834e+57
          1159.18430	        -5.64645e+57
          1159.99060	         4.97210e+57
          1160.79690	         7.67587e+57
          1161.60320	         1.64056e+58
          1162.40950	         2.17823e+58
          1163.21580	         2.25300e+58
          1164.02210	         1.03665e+58
          1164.82840	         1.67547e+58
          1165.63470	         2.57220e+58
          1166.44100	         2.67328e+58
          1167.24730	         2.13217e+58
          1168.05360	         1.46909e+58
          1168.85990	         6.01053e+57
          1169.66620	         1.08603e+58
          1170.47250	         1.17109e+58
          1171.27880	         6.68735e+57
          1172.08510	         1.14099e+58
          1172.89140	         1.04643e+58
          1173.69770	         5.78883e+57
          1174.50400	         1.24411e+58
          1175.31030	         1.60929e+58
          1176.11660	         1.96988e+58
          1176.92290	         1.58838e+58
          1177.72920	         1.18723e+58
          1178.53550	         5.23440e+57
          1179.34180	         5.58348e+57
          1180.14810	         1.02806e+58
          1180.95440	         1.26384e+58
          1181.76070	         1.31215e+58
          1182.56700	         8.11143e+57
          1183.37330	         1.92882e+57
          1184.17960	         8.71993e+57
          1184.98590	         1.23100e+58
          1185.79220	         5.85012e+57
          1186.59850	         1.11847e+58
          1187.40480	         1.46599e+58
          1188.21110	         2.22422e+58
          1189.01740	         1.01169e+58
          1189.82370	         6.51707e+57
          1190.63000	         1.07583e+58
          1191.43630	         1.32304e+58
          1192.24260	         9.50469e+57
          1193.04890	         1.25669e+58
          1193.85520	         1.33000e+58
          1194.66150	         1.08364e+58
          1195.46780	         1.72878e+58
          1196.27410	         1.54842e+58
          1197.08040	         8.39948e+57
          1197.88670	         1.26842e+58
          1198.69300	         1.42591e+58
          1199.49930	         1.35633e+58
          1200.30560	         8.42938e+57
          1201.11190	         8.44785e+57
          1201.91820	         1.14210e+58
          1202.72450	         6.98690e+57
          1203.53080	         1.41250e+58
          1204.33710	         1.04605e+58
          1205.14340	         2.94062e+57
          1205.94970	         4.97447e+57
          1206.75600	         1.08152e+58
          1207.56230	         5.68948e+57
          1208.36860	         9.66253e+57
          1209.17490	         6.25995e+57
          1209.98120	         7.87276e+57
          1210.78750	         7.55989e+57
          1211.59380	         1.20893e+58
          1212.40010	         1.83974e+58
          1213.20640	         2.14846e+58
          1214.01270	         1.94401e+58
          1214.81900	         2.29237e+58
          1215.62530	         4.58524e+58
          1216.43160	         8.87863e+58
          1217.23790	         1.47706e+59
          1218.04420	         1.16131e+59
          1218.85050	         9.03184e+58
          1219.65680	         5.82817e+58
          1220.46310	         2.87723e+58
          1221.26940	         2.02732e+58
          1222.07570	         1.14282e+58
          1222.88200	         9.55926e+57
          1223.68830	         9.97844e+57
          1224.49460	         7.21956e+57
          1225.30090	         9.02170e+57
          1226.10720	         9.01174e+57
          1226.91350	         6.04296e+57
          1227.71980	         8.86157e+57
          1228.52610	         1.25051e+58
          1229.33240	         9.38353e+57
          1230.13870	         9.73791e+57
          1230.94500	         8.30818e+57
          1231.75130	         6.28809e+57
          1232.55760	         9.52553e+57
          1233.36390	         9.71224e+57
          1234.17020	         9.81283e+57
          1234.97650	         7.93725e+57
          1235.78280	         6.21885e+57
          1236.58910	         6.41263e+57
          1237.39540	         1.08730e+58
          1238.20170	         1.11206e+58
          1239.00800	         1.20945e+58
          1239.81430	         1.32591e+58
          1240.62060	         1.14291e+58
          1241.42690	         9.69204e+57
          1242.23320	         1.08984e+58
          1243.03950	         9.45286e+57
          1243.84580	         6.64778e+57
          1244.65210	         8.53440e+57
          1245.45840	         9.89153e+57
          1246.26470	         9.20791e+57
          1247.07100	         1.08166e+58
          1247.87730	         7.99546e+57
          1248.68360	         5.06311e+57
          1249.48990	         1.06667e+58
          1250.29620	         1.02054e+58
          1251.10250	         4.15591e+57
          1251.90880	         5.56615e+57
          1252.71510	         8.69862e+57
          1253.52140	         6.03671e+57
          1254.32770	         4.55119e+57
          1255.13400	         1.20726e+58
          1255.94030	         1.36827e+58
          1256.74660	         9.97059e+57
          1257.55290	         1.14081e+58
          1258.35920	         1.00609e+58
          1259.16550	         5.90997e+57
          1259.97180	         5.15510e+57
          1260.77810	         9.32551e+57
          1261.58440	         1.16052e+58
          1262.39070	         9.87568e+57
          1263.19700	         1.06229e+58
          1264.00330	         1.17018e+58
          1264.80960	         1.24348e+58
          1265.61590	         1.30795e+58
          1266.42220	         1.17696e+58
          1267.22850	         7.02443e+57
          1268.03480	         1.12865e+58
          1268.84110	         1.60665e+58
          1269.64740	         1.45075e+58
          1270.45370	         1.44271e+58
          1271.26000	         1.13613e+58
          1272.06630	         1.06834e+58
          1272.87260	         1.13197e+58
          1273.67890	         1.28078e+58
          1274.48520	         1.52039e+58
          1275.29150	         1.51825e+58
          1276.09780	         1.21726e+58
          1276.90410	         1.44160e+58
          1277.71040	         1.41334e+58
          1278.51670	         1.14421e+58
          1279.32300	         1.34958e+58
          1280.12930	         1.41201e+58
          1280.93560	         1.17569e+58
          1281.74190	         1.33803e+58
          1282.54820	         1.53682e+58
          1283.35450	         1.07205e+58
          1284.16080	         1.19499e+58
          1284.96710	         1.44172e+58
          1285.77340	         1.02484e+58
          1286.57970	         1.00273e+58
          1287.38600	         1.50929e+58
          1288.19230	         1.76963e+58
          1288.99860	         1.42532e+58
          1289.80490	         9.75405e+57
          1290.61120	         1.27385e+58
          1291.41750	         1.46174e+58
          1292.22380	         1.08990e+58
          1293.03010	         8.06062e+57
          1293.83640	         1.01427e+58
          1294.64270	         9.29444e+57
          1295.44900	         6.78289e+57
          1296.25530	         9.46246e+57
          1297.06160	         1.03218e+58
          1297.86790	         9.93200e+57
          1298.67420	         9.21751e+57
          1299.48050	         1.01810e+58
          1300.28680	         1.13610e+58
          1301.09310	         7.54053e+57
          1301.89940	         3.19074e+57
          1302.70570	         5.70609e+57
          1303.51200	         8.71346e+57
          1304.31830	         9.20853e+57
          1305.12460	         9.92976e+57
          1305.93090	         1.10504e+58
          1306.73720	         1.32434e+58
          1307.54350	         1.51359e+58
          1308.34980	         1.52248e+58
          1309.15610	         1.57812e+58
          1309.96240	         1.56114e+58
          1310.76870	         1.53302e+58
          1311.57500	         1.37311e+58
          1312.38130	         1.14506e+58
          1313.18760	         1.28620e+58
          1313.99390	         1.47505e+58
          1314.80020	         1.73870e+58
          1315.60650	         1.49290e+58
          1316.41280	         1.20983e+58
          1317.21910	         1.01714e+58
          1318.02540	         1.03737e+58
          1318.83170	         1.15627e+58
          1319.63800	         1.24243e+58
          1320.44430	         1.16215e+58
          1321.25060	         1.30905e+58
          1322.05690	         1.28569e+58
          1322.86320	         1.11005e+58
          1323.66950	         1.03819e+58
          1324.47580	         8.82739e+57
          1325.28210	         9.98706e+57
          1326.08840	         1.02602e+58
          1326.89470	         1.13416e+58
          1327.70100	         9.68207e+57
          1328.50730	         7.31204e+57
          1329.31360	         9.04529e+57
          1330.11990	         1.03336e+58
          1330.92620	         8.88267e+57
          1331.73250	         1.00868e+58
          1332.53880	         1.10595e+58
          1333.34510	         1.03400e+58
          1334.15140	         9.63562e+57
          1334.95770	         9.47016e+57
          1335.76400	         1.02338e+58
          1336.57030	         1.04238e+58
          1337.37660	         1.09493e+58
          1338.18290	         1.08975e+58
          1338.98920	         1.16917e+58
          1339.79550	         1.15038e+58
          1340.60180	         1.20033e+58
          1341.40810	         1.39411e+58
          1342.21440	         1.15155e+58
          1343.02070	         9.94035e+57
          1343.82700	         1.22183e+58
          1344.63330	         1.19811e+58
          1345.43960	         1.33041e+58
          1346.24590	         1.14036e+58
          1347.05220	         1.02128e+58
          1347.85850	         1.03245e+58
          1348.66480	         1.22531e+58
          1349.47110	         1.28526e+58
          1350.27740	         1.24815e+58
          1351.08370	         1.22152e+58
          1351.89000	         1.05375e+58
          1352.69630	         1.11027e+58
          1353.50260	         1.13183e+58
          1354.30890	         1.20246e+58
          1355.11520	         1.20658e+58
          1355.92150	         1.07570e+58
          1356.72780	         9.89765e+57
          1357.53410	         9.81934e+57
          1358.34040	         1.09064e+58
          1359.14670	         1.11444e+58
          1359.95300	         1.08886e+58
          1360.75930	         1.16797e+58
          1361.56560	         1.08875e+58
          1362.37190	         1.11343e+58
          1363.17820	         1.14463e+58
          1363.98450	         1.10953e+58
          1364.79080	         1.21357e+58
          1365.59710	         1.18257e+58
          1366.40340	         1.27402e+58
          1367.20970	         1.16977e+58
          1368.01600	         9.89915e+57
          1368.82230	         1.01402e+58
          1369.62860	         1.12017e+58
          1370.43490	         1.10066e+58
          1371.24120	         1.04861e+58
          1372.04750	         9.49854e+57
          1372.85380	         1.01633e+58
          1373.66010	         1.13763e+58
          1374.46640	         1.19075e+58
          1375.27270	         1.19950e+58
          1376.07900	         1.02126e+58
          1376.88530	         9.18715e+57
          1377.69160	         8.21902e+57
          1378.49790	         7.69577e+57
          1379.30420	         8.85952e+57
          1380.11050	         9.39489e+57
          1380.91680	         8.39880e+57
          1381.72310	         8.18971e+57
          1382.52940	         8.19675e+57
          1383.33570	         7.60624e+57
          1384.14200	         8.40647e+57
          1384.94830	         9.82877e+57
          1385.75460	         1.04463e+58
          1386.56090	         1.24151e+58
          1387.36720	         1.09231e+58
          1388.17350	         1.17313e+58
          1388.97980	         1.15472e+58
          1389.78610	         8.70090e+57
          1390.59240	         8.30459e+57
          1391.39870	         7.61367e+57
          1392.20500	         7.53446e+57
          1393.01130	         6.44742e+57
          1393.81760	         7.04098e+57
          1394.62390	         8.03439e+57
          1395.43020	         6.99451e+57
          1396.23650	         7.09320e+57
          1397.04280	         8.30317e+57
          1397.84910	         7.82459e+57
          1398.65540	         7.56556e+57
          1399.46170	         8.58337e+57
          1400.26800	         8.36026e+57
          1401.07430	         6.42671e+57
          1401.88060	         6.95718e+57
          1402.68690	         8.45706e+57
          1403.49320	         8.89380e+57
          1404.29950	         1.03200e+58
          1405.10580	         1.20586e+58
          1405.91210	         1.18300e+58
          1406.71840	         9.67031e+57
          1407.52470	         8.70088e+57
          1408.33100	         9.66828e+57
          1409.13730	         1.12487e+58
          1409.94360	         1.17157e+58
          1410.74990	         1.13797e+58
          1411.55620	         9.53050e+57
          1412.36250	         9.25013e+57
          1413.16880	         9.47492e+57
          1413.97510	         8.23745e+57
          1414.78140	         7.95151e+57
          1415.58770	         9.07499e+57
          1416.39400	         8.86108e+57
          1417.20030	         9.85849e+57
          1418.00660	         9.84640e+57
          1418.81290	         9.25220e+57
          1419.61920	         9.04096e+57
          1420.42550	         1.14144e+58
          1421.23180	         1.29273e+58
          1422.03810	         1.19830e+58
          1422.84440	         1.09947e+58
          1423.65070	         1.32476e+58
          1424.45700	         1.18756e+58
          1425.26330	         9.56922e+57
          1426.06960	         1.01550e+58
          1426.87590	         1.04396e+58
          1427.68220	         1.03213e+58
          1428.48850	         1.02849e+58
          1429.29480	         1.11563e+58
          1430.10110	         1.02262e+58
          1430.90740	         8.84105e+57
          1431.71370	         9.15479e+57
          1432.52000	         8.65789e+57
          1433.32630	         7.48026e+57
          1434.13260	         7.84083e+57
          1434.93890	         8.09563e+57
          1435.74520	         8.08746e+57
          1436.55150	         8.61612e+57
          1437.35780	         8.66486e+57
          1438.16410	         9.07205e+57
          1438.97040	         9.28475e+57
          1439.77670	         9.46301e+57
          1440.58300	         9.64619e+57
          1441.38930	         9.02818e+57
          1442.19560	         9.69838e+57
          1443.00190	         9.91281e+57
          1443.80820	         1.09534e+58
          1444.61450	         9.51400e+57
          1445.42080	         7.52008e+57
          1446.22710	         9.17424e+57
          1447.03340	         9.75271e+57
          1447.83970	         9.88910e+57
          1448.64600	         1.10286e+58
          1449.45230	         1.12531e+58
          1450.25860	         9.94186e+57
          1451.06490	         8.38564e+57
          1451.87120	         7.23915e+57
          1452.67750	         6.73271e+57
          1453.48380	         7.98071e+57
          1454.29010	         8.35635e+57
          1455.09640	         8.20592e+57
          1455.90270	         9.09449e+57
          1456.70900	         9.40546e+57
          1457.51530	         9.90718e+57
          1458.32160	         1.29683e+58
          1459.12790	         1.21222e+58
          1459.93420	         9.88176e+57
          1460.74050	         8.89256e+57
          1461.54680	         8.46397e+57
          1462.35310	         8.55255e+57
          1463.15940	         9.44738e+57
          1463.96570	         1.09329e+58
          1464.77200	         1.09351e+58
          1465.57830	         1.00548e+58
          1466.38460	         1.01264e+58
          1467.19090	         9.46115e+57
          1467.99720	         9.32373e+57
          1468.80350	         9.36938e+57
          1469.60980	         8.97259e+57
          1470.41610	         9.87930e+57
          1471.22240	         8.39143e+57
          1472.02870	         8.40462e+57
          1472.83500	         9.54044e+57
          1473.64130	         1.00245e+58
          1474.44760	         9.48911e+57
          1475.25390	         9.59581e+57
          1476.06020	         1.00661e+58
          1476.86650	         8.43835e+57
          1477.67280	         8.25967e+57
          1478.47910	         7.39297e+57
          1479.28540	         7.16517e+57
          1480.09170	         9.03042e+57
          1480.89800	         8.58563e+57
          1481.70430	         8.40603e+57
          1482.51060	         7.88906e+57
          1483.31690	         7.20640e+57
          1484.12320	         6.76354e+57
          1484.92950	         6.67801e+57
          1485.73580	         8.51917e+57
          1486.54210	         8.58900e+57
          1487.34840	         7.77332e+57
          1488.15470	         8.68384e+57
          1488.96100	         8.65241e+57
          1489.76730	         8.99751e+57
          1490.57360	         9.33289e+57
          1491.37990	         7.89914e+57
          1492.18620	         7.37919e+57
          1492.99250	         8.63845e+57
          1493.79880	         8.94814e+57
          1494.60510	         8.72048e+57
          1495.41140	         8.28645e+57
          1496.21770	         8.44713e+57
          1497.02400	         1.08521e+58
          1497.83030	         1.01530e+58
          1498.63660	         7.26413e+57
          1499.44290	         7.05840e+57
          1500.24920	         7.76840e+57
          1501.05550	         8.13637e+57
          1501.86180	         8.51085e+57
          1502.66810	         8.84498e+57
          1503.47440	         9.18810e+57
          1504.28070	         9.33692e+57
          1505.08700	         1.02626e+58
          1505.89330	         8.98399e+57
          1506.69960	         7.42062e+57
          1507.50590	         7.05360e+57
          1508.31220	         7.61184e+57
          1509.11850	         8.85849e+57
          1509.92480	         9.20690e+57
          1510.73110	         8.06466e+57
          1511.53740	         7.27512e+57
          1512.34370	         7.41708e+57
          1513.15000	         8.65600e+57
          1513.95630	         1.09661e+58
          1514.76260	         1.00732e+58
          1515.56890	         8.92087e+57
          1516.37520	         8.99094e+57
          1517.18150	         8.24209e+57
          1517.98780	         7.09853e+57
          1518.79410	         6.64089e+57
          1519.60040	         7.98404e+57
          1520.40670	         9.23393e+57
          1521.21300	         9.21292e+57
          1522.01930	         8.06900e+57
          1522.82560	         9.30984e+57
          1523.63190	         9.99666e+57
          1524.43820	         8.40451e+57
          1525.24450	         6.83453e+57
          1526.05080	         5.87103e+57
          1526.85710	         5.96890e+57
          1527.66340	         7.18541e+57
          1528.46970	         8.30653e+57
          1529.27600	         8.62006e+57
          1530.08230	         8.23474e+57
          1530.88860	         7.95571e+57
          1531.69490	         8.60854e+57
          1532.50120	         8.90469e+57
          1533.30750	         9.73959e+57
          1534.11380	         9.70361e+57
          1534.92010	         9.04561e+57
          1535.72640	         9.40662e+57
          1536.53270	         9.06032e+57
          1537.33900	         8.08608e+57
          1538.14530	         9.24720e+57
          1538.95160	         9.65229e+57
          1539.75790	         7.92321e+57
          1540.56420	         8.76937e+57
          1541.37050	         8.88577e+57
          1542.17680	         7.38512e+57
          1542.98310	         7.27311e+57
          1543.78940	         7.13461e+57
          1544.59570	         6.58468e+57
          1545.40200	         7.12132e+57
          1546.20830	         9.09327e+57
          1547.01460	         1.09012e+58
          1547.82090	         1.08585e+58
          1548.62720	         1.16009e+58
          1549.43350	         1.07108e+58
          1550.23980	         1.03778e+58
          1551.04610	         1.19563e+58
          1551.85240	         1.21344e+58
          1552.65870	         1.09913e+58
          1553.46500	         1.07879e+58
          1554.27130	         1.05321e+58
          1555.07760	         9.25291e+57
          1555.88390	         8.54316e+57
          1556.69020	         9.29476e+57
          1557.49650	         9.70964e+57
          1558.30280	         8.51165e+57
          1559.10910	         8.32885e+57
          1559.91540	         9.01392e+57
          1560.72170	         8.54664e+57
          1561.52800	         8.04951e+57
          1562.33430	         8.15487e+57
          1563.14060	         7.84413e+57
          1563.94690	         7.95069e+57
          1564.75320	         7.69176e+57
          1565.55950	         6.45654e+57
          1566.36580	         7.11243e+57
          1567.17210	         9.59681e+57
          1567.97840	         9.57153e+57
          1568.78470	         8.63939e+57
          1569.59100	         8.66898e+57
          1570.39730	         8.56266e+57
          1571.20360	         7.81553e+57
          1572.00990	         8.17211e+57
          1572.81620	         9.53873e+57
          1573.62250	         1.05673e+58
          1574.42880	         9.90288e+57
          1575.23510	         8.55738e+57
          1576.04140	         9.02647e+57
          1576.84770	         8.82855e+57
          1577.65400	         9.10342e+57
          1578.46030	         1.04721e+58
          1579.26660	         1.05091e+58
          1580.07290	         9.21846e+57
          1580.87920	         8.14550e+57
          1581.68550	         8.43336e+57
          1582.49180	         8.64261e+57
          1583.29810	         8.48205e+57
          1584.10440	         8.98603e+57
          1584.91070	         8.37642e+57
          1585.71700	         8.28551e+57
          1586.52330	         8.94017e+57
          1587.32960	         8.99827e+57
          1588.13590	         8.33999e+57
          1588.94220	         8.16632e+57
          1589.74850	         9.10684e+57
          1590.55480	         9.37821e+57
          1591.36110	         7.95983e+57
          1592.16740	         8.21520e+57
          1592.97370	         8.42829e+57
          1593.78000	         8.71960e+57
          1594.58630	         8.68534e+57
          1595.39260	         8.44100e+57
          1596.19890	         8.38512e+57
          1597.00520	         8.17401e+57
          1597.81150	         8.32238e+57
          1598.61780	         7.10140e+57
          1599.42410	         6.40319e+57
          1600.23040	         6.63777e+57
          1601.03670	         7.37495e+57
          1601.84300	         7.27134e+57
          1602.64930	         8.41555e+57
          1603.45560	         8.43035e+57
          1604.26190	         8.09594e+57
          1605.06820	         8.12107e+57
          1605.87450	         7.37169e+57
          1606.68080	         6.23973e+57
          1607.48710	         5.26366e+57
          1608.29340	         5.72846e+57
          1609.09970	         7.16694e+57
          1609.90600	         7.71392e+57
          1610.71230	         7.21458e+57
          1611.51860	         7.99108e+57
          1612.32490	         8.13170e+57
          1613.13120	         8.12067e+57
          1613.93750	         8.50957e+57
          1614.74380	         7.90774e+57
          1615.55010	         8.37663e+57
          1616.35640	         8.58805e+57
          1617.16270	         9.01428e+57
          1617.96900	         9.86528e+57
          1618.77530	         8.76243e+57
          1619.58160	         7.60308e+57
          1620.38790	         8.04364e+57
          1621.19420	         9.32502e+57
          1622.00050	         8.27394e+57
          1622.80680	         8.33224e+57
          1623.61310	         8.24558e+57
          1624.41940	         8.02900e+57
          1625.22570	         9.27031e+57
          1626.03200	         9.12065e+57
          1626.83830	         9.07131e+57
          1627.64460	         7.95108e+57
          1628.45090	         6.46249e+57
          1629.25720	         8.32540e+57
          1630.06350	         8.90723e+57
          1630.86980	         6.98834e+57
          1631.67610	         7.93618e+57
          1632.48240	         9.25403e+57
          1633.28870	         9.50570e+57
          1634.09500	         1.07268e+58
          1634.90130	         1.15530e+58
          1635.70760	         9.28090e+57
          1636.51390	         7.76348e+57
          1637.32020	         7.12843e+57
          1638.12650	         8.89605e+57
          1638.93280	         9.75757e+57
          1639.73910	         1.07564e+58
          1640.54540	         1.14125e+58
          1641.35170	         9.56699e+57
          1642.15800	         9.87582e+57
          1642.96430	         9.50981e+57
          1643.77060	         8.90173e+57
          1644.57690	         7.76283e+57
          1645.38320	         7.59187e+57
          1646.18950	         7.47995e+57
          1646.99580	         8.11066e+57
          1647.80210	         7.56434e+57
          1648.60840	         6.61512e+57
          1649.41470	         7.13081e+57
          1650.22100	         6.10072e+57
          1651.02730	         6.40020e+57
          1651.83360	         6.52658e+57
          1652.63990	         7.49657e+57
          1653.44620	         8.98596e+57
          1654.25250	         8.95138e+57
          1655.05880	         8.52258e+57
          1655.86510	         8.81851e+57
          1656.67140	         8.98397e+57
          1657.47770	         8.09001e+57
          1658.28400	         8.05120e+57
          1659.09030	         8.87486e+57
          1659.89660	         9.83539e+57
          1660.70290	         9.86436e+57
          1661.50920	         9.77855e+57
          1662.31550	         8.63417e+57
          1663.12180	         8.63008e+57
          1663.92810	         1.00369e+58
          1664.73440	         1.04654e+58
          1665.54070	         1.10781e+58
          1666.34700	         1.14591e+58
          1667.15330	         1.05963e+58
          1667.95960	         9.78982e+57
          1668.76590	         8.11756e+57
          1669.57220	         6.81372e+57
          1670.37850	         7.36543e+57
          1671.18480	         8.88230e+57
          1671.99110	         8.47050e+57
          1672.79740	         7.42219e+57
          1673.60370	         6.87921e+57
          1674.41000	         7.47478e+57
          1675.21630	         7.23443e+57
          1676.02260	         6.66729e+57
          1676.82890	         6.43947e+57
          1677.63520	         7.05147e+57
          1678.44150	         6.52303e+57
          1679.24780	         7.88642e+57
          1680.05410	         7.79132e+57
          1680.86040	         5.88008e+57
          1681.66670	         7.15500e+57
          1682.47300	         7.81591e+57
          1683.27930	         8.52665e+57
          1684.08560	         9.07662e+57
          1684.89190	         8.41469e+57
          1685.69820	         6.03582e+57
          1686.50450	         5.04307e+57
          1687.31080	         6.25776e+57
          1688.11710	         7.10012e+57
          1688.92340	         5.88797e+57
          1689.72970	         6.63444e+57
          1690.53600	         7.25744e+57
          1691.34230	         7.31867e+57
          1692.14860	         6.97255e+57
          1692.95490	         7.34801e+57
          1693.76120	         8.11696e+57
          1694.56750	         7.81951e+57
          1695.37380	         8.59680e+57
          1696.18010	         9.22876e+57
          1696.98640	         9.34061e+57
          1697.79270	         8.47499e+57
          1698.59900	         7.87621e+57
          1699.40530	         7.76526e+57
          1700.21160	         7.99579e+57
          1701.01790	         1.00215e+58
          1701.82420	         7.91671e+57
          1702.63050	         7.36969e+57
          1703.43680	         8.00057e+57
          1704.24310	         7.77651e+57
          1705.04940	         7.86857e+57
          1705.85570	         6.50010e+57
          1706.66200	         7.44342e+57
          1707.46830	         8.35550e+57
          1708.27460	         8.20966e+57
          1709.08090	         7.48393e+57
          1709.88720	         6.74799e+57
          1710.69350	         7.27749e+57
          1711.49980	         7.13562e+57
          1712.30610	         8.21548e+57
          1713.11240	         9.79986e+57
          1713.91870	         8.66713e+57
          1714.72500	         9.05964e+57
          1715.53130	         8.54991e+57
          1716.33760	         7.30853e+57
          1717.14390	         7.95926e+57
          1717.95020	         8.57244e+57
          1718.75650	         7.83821e+57
          1719.56280	         8.01182e+57
          1720.36910	         7.25893e+57
          1721.17540	         6.94649e+57
          1721.98170	         6.62015e+57
          1722.78800	         5.95602e+57
          1723.59430	         6.30968e+57
          1724.40060	         8.02359e+57
          1725.20690	         8.43525e+57
          1726.01320	         8.26660e+57
          1726.81950	         8.76878e+57
          1727.62580	         7.66533e+57
          1728.43210	         6.61472e+57
          1729.23840	         7.77848e+57
          1730.04470	         8.83262e+57
          1730.85100	         8.68902e+57
          1731.65730	         8.16735e+57
          1732.46360	         7.82855e+57
          1733.26990	         7.25967e+57
          1734.07620	         7.43753e+57
          1734.88250	         7.96709e+57
          1735.68880	         7.75782e+57
          1736.49510	         7.63753e+57
          1737.30140	         7.83723e+57
          1738.10770	         6.90508e+57
          1738.91400	         7.12101e+57
          1739.72030	         7.08392e+57
          1740.52660	         6.24352e+57
          1741.33290	         6.08146e+57
          1742.13920	         6.57721e+57
          1742.94550	         7.04020e+57
          1743.75180	         7.10996e+57
          1744.55810	         8.42787e+57
          1745.36440	         8.42795e+57
          1746.17070	         6.78247e+57
          1746.97700	         6.18193e+57
          1747.78330	         7.19109e+57
          1748.58960	         6.79251e+57
          1749.39590	         6.44751e+57
          1750.20220	         6.94698e+57
          1751.00850	         6.08710e+57
          1751.81480	         5.56741e+57
          1752.62110	         6.45434e+57
          1753.42740	         7.95032e+57
          1754.23370	         7.58762e+57
          1755.04000	         7.67186e+57
          1755.84630	         8.20984e+57
          1756.65260	         8.92260e+57
          1757.45890	         9.30963e+57
          1758.26520	         7.36712e+57
          1759.07150	         7.51653e+57
          1759.87780	         7.38437e+57
          1760.68410	         7.19733e+57
          1761.49040	         7.11767e+57
          1762.29670	         6.48146e+57
          1763.10300	         7.87261e+57
          1763.90930	         8.74390e+57
          1764.71560	         7.56359e+57
          1765.52190	         7.73853e+57
          1766.32820	         8.51829e+57
          1767.13450	         8.04056e+57
          1767.94080	         7.17047e+57
          1768.74710	         7.05484e+57
          1769.55340	         6.88461e+57
          1770.35970	         6.24894e+57
          1771.16600	         7.88993e+57
          1771.97230	         8.82667e+57
          1772.77860	         7.91649e+57
          1773.58490	         7.33158e+57
          1774.39120	         6.70946e+57
          1775.19750	         6.99305e+57
          1776.00380	         6.62161e+57
          1776.81010	         7.20602e+57
          1777.61640	         6.74146e+57
          1778.42270	         6.65063e+57
          1779.22900	         7.12753e+57
          1780.03530	         6.49073e+57
          1780.84160	         7.01054e+57
          1781.64790	         7.78933e+57
          1782.45420	         7.41546e+57
          1783.26050	         6.77129e+57
          1784.06680	         6.50644e+57
          1784.87310	         7.70057e+57
          1785.67940	         6.81033e+57
          1786.48570	         6.56274e+57
          1787.29200	         6.28624e+57
          1788.09830	         6.31937e+57
          1788.90460	         5.53234e+57
          1789.71090	         5.81701e+57
          1790.51720	         6.02173e+57
          1791.32350	         6.72054e+57
          1792.12980	         8.89110e+57
          1792.93610	         7.95259e+57
          1793.74240	         7.44933e+57
          1794.54870	         8.30485e+57
          1795.35500	         8.18389e+57
          1796.16130	         7.45530e+57
          1796.96760	         6.20104e+57
          1797.77390	         6.97483e+57
          1798.58020	         7.57691e+57
          1799.38650	         6.76383e+57
          1800.19280	         6.99036e+57
          1800.99910	         7.31325e+57
          1801.80540	         7.11514e+57
          1802.61170	         8.65556e+57
          1803.41800	         8.71552e+57
          1804.22430	         7.30856e+57
          1805.03060	         6.71626e+57
          1805.83690	         7.19886e+57
          1806.64320	         7.17902e+57
          1807.44950	         7.41167e+57
          1808.25580	         6.89952e+57
          1809.06210	         6.55727e+57
          1809.86840	         6.24317e+57
          1810.67470	         7.98560e+57
          1811.48100	         9.42468e+57
          1812.28730	         8.49735e+57
          1813.09360	         7.14098e+57
          1813.89990	         7.59314e+57
          1814.70620	         7.82706e+57
          1815.51250	         8.62862e+57
          1816.31880	         8.58983e+57
          1817.12510	         7.75116e+57
          1817.93140	         6.54309e+57
          1818.73770	         6.87841e+57
          1819.54400	         7.95313e+57
          1820.35030	         8.37513e+57
          1821.15660	         7.03368e+57
          1821.96290	         7.64582e+57
          1822.76920	         8.06495e+57
          1823.57550	         6.97189e+57
          1824.38180	         6.65855e+57
          1825.18810	         7.75607e+57
          1825.99440	         8.23768e+57
          1826.80070	         7.17133e+57
          1827.60700	         6.32157e+57
          1828.41330	         6.00798e+57
          1829.21960	         6.89433e+57
          1830.02590	         7.73239e+57
          1830.83220	         8.16675e+57
          1831.63850	         8.05965e+57
          1832.44480	         7.70367e+57
          1833.25110	         8.03537e+57
          1834.05740	         7.83199e+57
          1834.86370	         6.66388e+57
          1835.67000	         5.60187e+57
          1836.47630	         6.95197e+57
          1837.28260	         9.17738e+57
          1838.08890	         9.68528e+57
          1838.89520	         8.90691e+57
          1839.70150	         7.74678e+57
          1840.50780	         6.95425e+57
          1841.31410	         6.64642e+57
          1842.12040	         6.95682e+57
          1842.92670	         7.69313e+57
          1843.73300	         7.62321e+57
          1844.53930	         6.93756e+57
          1845.34560	         6.29258e+57
          1846.15190	         7.20999e+57
          1846.95820	         8.00228e+57
          1847.76450	         7.11307e+57
          1848.57080	         4.84510e+57
          1849.37710	         5.88139e+57
          1850.18340	         7.44317e+57
          1850.98970	         8.25240e+57
          1851.79600	         8.75108e+57
          1852.60230	         8.26303e+57
          1853.40860	         7.66144e+57
          1854.21490	         7.83822e+57
          1855.02120	         6.33483e+57
          1855.82750	         4.55442e+57
          1856.63380	         4.84746e+57
          1857.44010	         7.21280e+57
          1858.24640	         7.41313e+57
          1859.05270	         6.75480e+57
          1859.85900	         4.40433e+57
          1860.66530	         4.61398e+57
          1861.47160	         6.93413e+57
          1862.27790	         7.58902e+57
          1863.08420	         6.85573e+57
          1863.89050	         7.65168e+57
          1864.69680	         7.15214e+57
          1865.50310	         7.21516e+57
          1866.30940	         6.47680e+57
          1867.11570	         6.19843e+57
          1867.92200	         7.57529e+57
          1868.72830	         7.14774e+57
          1869.53460	         6.70648e+57
          1870.34090	         7.77818e+57
          1871.14720	         8.25554e+57
          1871.95350	         7.34779e+57
          1872.75980	         8.04831e+57
          1873.56610	         6.79598e+57
          1874.37240	         5.38715e+57
          1875.17870	         6.11380e+57
          1875.98500	         7.29619e+57
          1876.79130	         7.56380e+57
          1877.59760	         7.10211e+57
          1878.40390	         6.47592e+57
          1879.21020	         5.53249e+57
          1880.01650	         6.92386e+57
          1880.82280	         9.19064e+57
          1881.62910	         9.27983e+57
          1882.43540	         9.43437e+57
          1883.24170	         7.88687e+57
          1884.04800	         7.68073e+57
          1884.85430	         8.42840e+57
          1885.66060	         8.27221e+57
          1886.46690	         8.47490e+57
          1887.27320	         7.58217e+57
          1888.07950	         5.65851e+57
          1888.88580	         6.86907e+57
          1889.69210	         8.14824e+57
          1890.49840	         7.75325e+57
          1891.30470	         7.05743e+57
          1892.11100	         7.46598e+57
          1892.91730	         6.68539e+57
          1893.72360	         6.21580e+57
          1894.52990	         6.87838e+57
          1895.33620	         8.09456e+57
          1896.14250	         7.12514e+57
          1896.94880	         6.54669e+57
          1897.75510	         5.02391e+57
          1898.56140	         5.80169e+57
          1899.36770	         7.68761e+57
          1900.17400	         6.28056e+57
          1900.98030	         5.89163e+57
          1901.78660	         6.71443e+57
          1902.59290	         6.62767e+57
          1903.39920	         8.74812e+57
          1904.20550	         8.87980e+57
          1905.01180	         7.99773e+57
          1905.81810	         9.25670e+57
          1906.62440	         1.20274e+58
          1907.43070	         1.43018e+58
          1908.23700	         1.51904e+58
          1909.04330	         1.28941e+58
          1909.84960	         1.20478e+58
          1910.65590	         1.00464e+58
          1911.46220	         9.74292e+57
          1912.26850	         8.00595e+57
          1913.07480	         5.48400e+57
          1913.88110	         5.06825e+57
          1914.68740	         6.20652e+57
          1915.49370	         6.01853e+57
          1916.30000	         5.86823e+57
          1917.10630	         7.24178e+57
          1917.91260	         7.06035e+57
          1918.71890	         6.83630e+57
          1919.52520	         6.20731e+57
          1920.33150	         5.74613e+57
          1921.13780	         6.62459e+57
          1921.94410	         7.43502e+57
          1922.75040	         7.37259e+57
          1923.55670	         7.29878e+57
          1924.36300	         7.04851e+57
          1925.16930	         5.95843e+57
          1925.97560	         6.04429e+57
          1926.78190	         5.37579e+57
          1927.58820	         5.76917e+57
          1928.39450	         5.54025e+57
          1929.20080	         5.46628e+57
          1930.00710	         5.54684e+57
          1930.81340	         6.68335e+57
          1931.61970	         6.84304e+57
          1932.42600	         7.46182e+57
          1933.23230	         7.96742e+57
          1934.03860	         6.64722e+57
          1934.84490	         6.98102e+57
          1935.65120	         7.38056e+57
          1936.45750	         9.68362e+57
          1937.26380	         7.65257e+57
          1938.07010	         7.85007e+57
          1938.87640	         7.47595e+57
          1939.68270	         8.02940e+57
          1940.48900	         8.30900e+57
          1941.29530	         7.33061e+57
          1942.10160	         6.73114e+57
          1942.90790	         6.77616e+57
          1943.71420	         7.56856e+57
          1944.52050	         6.05923e+57
          1945.32680	         5.77254e+57
          1946.13310	         7.73021e+57
          1946.93940	         8.04253e+57
          1947.74570	         7.92658e+57
          1948.55200	         7.38227e+57
          1949.35830	         5.95325e+57
          1950.16460	         4.59938e+57
          1950.97090	         6.23646e+57
          1951.77720	         7.35664e+57
          1952.58350	         7.16569e+57
          1953.38980	         6.05641e+57
          1954.19610	         4.55269e+57
          1955.00240	         4.83388e+57
          1955.80870	         5.92755e+57
          1956.61500	         6.37351e+57
          1957.42130	         6.50132e+57
          1958.22760	         6.23827e+57
          1959.03390	         6.97695e+57
          1959.84020	         8.24392e+57
          1960.64650	         7.45762e+57
          1961.45280	         6.17156e+57
          1962.25910	         6.67065e+57
          1963.06540	         7.15544e+57
          1963.87170	         7.05515e+57
          1964.67800	         7.39449e+57
          1965.48430	         6.38470e+57
          1966.29060	         6.11882e+57
          1967.09690	         7.32182e+57
          1967.90320	         6.73378e+57
          1968.70950	         6.50164e+57
          1969.51580	         6.90858e+57
          1970.32210	         7.66064e+57
          1971.12840	         6.80445e+57
          1971.93470	         5.07174e+57
          1972.74100	         5.33665e+57
          1973.54730	         6.72680e+57
          1974.35360	         6.81591e+57
          1975.15990	         7.37260e+57
          1975.96620	         6.69316e+57
          1976.77250	         7.10996e+57
          1977.57880	         7.76319e+57
          1978.38510	         6.77669e+57
          1979.19140	         6.25598e+57
          1979.99770	         7.16893e+57
          1980.80400	         7.17994e+57
          1981.61030	         6.93246e+57
          1982.41660	         5.90782e+57
          1983.22290	         5.57264e+57
          1984.02920	         5.72361e+57
          1984.83550	         5.81792e+57
          1985.64180	         6.22801e+57
          1986.44810	         5.64301e+57
          1987.25440	         6.26520e+57
          1988.06070	         5.94902e+57
          1988.86700	         6.27142e+57
          1989.67330	         6.38305e+57
          1990.47960	         6.92576e+57
          1991.28590	         7.02093e+57
          1992.09220	         5.87428e+57
          1992.89850	         5.26768e+57
          1993.70480	         5.42247e+57
          1994.51110	         4.88010e+57
          1995.31740	         3.97715e+57
          1996.12370	         4.90716e+57
          1996.93000	         5.95975e+57
          1997.73630	         7.37968e+57
          1998.54260	         7.63000e+57
          1999.34890	         6.77378e+57
          2000.15520	         6.97319e+57
          2000.96150	         5.87339e+57
          2001.76780	         6.21703e+57
          2002.57410	         5.60859e+57
          2003.38040	         5.96647e+57
          2004.18670	         6.90028e+57
          2004.99300	         6.47255e+57
          2005.79930	         8.48112e+57
          2006.60560	         6.93664e+57
          2007.41190	         4.55221e+57
          2008.21820	         6.18211e+57
          2009.02450	         7.24183e+57
          2009.83080	         6.72569e+57
          2010.63710	         7.04460e+57
          2011.44340	         6.52656e+57
          2012.24970	         7.08197e+57
          2013.05600	         7.39506e+57
          2013.86230	         6.34450e+57
          2014.66860	         5.92365e+57
          2015.47490	         6.16951e+57
          2016.28120	         5.93481e+57
          2017.08750	         5.88345e+57
          2017.89380	         6.58302e+57
          2018.70010	         7.28496e+57
          2019.50640	         6.35099e+57
          2020.31270	         6.24528e+57
          2021.11900	         6.33053e+57
          2021.92530	         7.62321e+57
          2022.73160	         7.20825e+57
          2023.53790	         6.39927e+57
          2024.34420	         5.84074e+57
          2025.15050	         5.54803e+57
          2025.95680	         5.01155e+57
          2026.76310	         6.10562e+57
          2027.56940	         6.21229e+57
          2028.37570	         5.71766e+57
          2029.18200	         5.45922e+57
          2029.98830	         5.80944e+57
          2030.79460	         6.19870e+57
          2031.60090	         5.97607e+57
          2032.40720	         5.72019e+57
          2033.21350	         5.87576e+57
          2034.01980	         4.75751e+57
          2034.82610	         4.38004e+57
          2035.63240	         5.36389e+57
          2036.43870	         5.40641e+57
          2037.24500	         6.14010e+57
          2038.05130	         6.48973e+57
          2038.85760	         5.63467e+57
          2039.66390	         5.12965e+57
          2040.47020	         4.36120e+57
          2041.27650	         6.47884e+57
          2042.08280	         4.68719e+57
          2042.88910	         4.99419e+57
          2043.69540	         5.28368e+57
          2044.50170	         4.47739e+57
          2045.30800	         4.57979e+57
          2046.11430	         3.78011e+57
          2046.92060	         5.87050e+57
          2047.72690	         5.75024e+57
          2048.53320	         5.98279e+57
          2049.33950	         4.97806e+57
          2050.14580	         5.46975e+57
          2050.95210	         6.97041e+57
          2051.75840	         6.07450e+57
          2052.56470	         6.75429e+57
          2053.37100	         4.52367e+57
          2054.17730	         5.67862e+57
          2054.98360	         6.19625e+57
          2055.78990	         4.54882e+57
          2056.59620	         4.23779e+57
          2057.40250	         4.54593e+57
          2058.20880	         5.73163e+57
          2059.01510	         6.34407e+57
          2059.82140	         5.90163e+57
          2060.62770	         9.40300e+57
          2061.43400	         1.42314e+58
          2062.24030	         1.24385e+58
          2063.04660	         5.34027e+57
          2063.85290	         2.00647e+57
          2064.65920	        -2.88834e+57
          2065.46550	        -1.03605e+58
          2066.27180	        -7.65610e+57
          2067.07810	         4.24146e+57
          2067.88440	         6.16986e+57
          2068.69070	         6.73579e+57
          2069.49700	         5.58250e+57
          2070.30330	         5.12566e+57
          2071.10960	         5.26015e+57
          2071.91590	         6.79074e+57
          2072.72220	         4.20146e+57
          2073.52850	         5.32418e+57
          2074.33480	         4.33925e+57
          2075.14110	         4.74178e+57
          2075.94740	         4.28959e+57
          2076.75370	         3.85177e+57
          2077.56000	         4.96744e+57
          2078.36630	         5.27718e+57
          2079.17260	         4.12493e+57
          2079.97890	         5.00771e+57
          2080.78520	         5.36445e+57
          2081.59150	         3.44326e+57
          2082.39780	         4.43210e+57
          2083.20410	         3.01846e+57
          2084.01040	         3.46294e+57
          2084.81670	         5.26734e+57
          2085.62300	         5.08973e+57
          2086.42930	         5.03084e+57
          2087.23560	         4.38394e+57
          2088.04190	         3.71456e+57
          2088.84820	         3.25916e+57
          2089.65450	         2.76387e+57
          2090.46080	         3.46809e+57
          2091.26710	         4.12880e+57
          2092.07340	         2.31862e+57
          2092.87970	         2.10717e+57
          2093.68600	        -8.78009e+56
          2094.49230	         4.90816e+56
          2095.29860	         5.75887e+57
          2096.10490	         4.70519e+57
          2096.91120	         1.43527e+57
          2097.71750	         8.20704e+56
          2098.52380	         2.52584e+57
          2099.33010	         1.03076e+57
          2100.13640	         2.17739e+57
          2100.94270	         1.15252e+57
          2101.74900	         1.40703e+57
          2102.55530	         2.75439e+57
          2103.36160	         2.53755e+57
          2104.16790	         1.20845e+57
          2104.97420	         1.69986e+56
          2105.78050	        -1.99985e+57
          2106.58680	        -7.33448e+56
          2107.39310	         1.37694e+56
          2108.19940	         2.53431e+57
          2109.00570	         2.77867e+56
          2109.81200	         2.32775e+57
          2110.61830	         3.51153e+57
          2111.42460	        -1.05548e+56
          2112.23090	         1.05988e+57
          2113.03720	        -2.15542e+56
          2113.84350	         5.60022e+56
          2114.64980	         4.13061e+57
          2115.45610	         7.71180e+56
          2116.26240	        -4.74711e+57
          2117.06870	        -2.55038e+57
          2117.87500	        -5.30924e+57
          2118.68130	        -4.15143e+57
          2119.48760	        -2.67901e+57
          2120.29390	        -1.46601e+57
          2121.10020	         2.19543e+56
          2121.90650	        -2.18858e+56
          2122.71280	        -1.05720e+57
          2123.51910	         6.55209e+56
          2124.32540	        -1.91411e+57
          2125.13170	        -2.29155e+56
          2125.93800	         1.03302e+57
          2126.74430	        -5.60754e+57
          2127.55060	        -8.05439e+57
          2128.35690	        -3.63973e+57
          2129.16320	        -9.93062e+56
          2129.96950	        -7.62877e+57
          2130.77580	         6.69647e+56
          2131.58210	         1.24674e+56
          2132.38840	        -4.46050e+57
          2133.19470	        -2.89792e+57
          2134.00100	        -1.51611e+57
          2134.80730	        -1.76425e+57
          2135.61360	         6.24256e+57
          2136.41990	         7.50274e+57
          2137.22620	         8.27381e+57
          2138.03250	        -1.22164e+57
          2138.83880	        -3.39280e+57
          2139.64510	         5.78639e+56
          2140.45140	        -5.24489e+57
          2141.25770	        -1.55324e+58
          2142.06400	        -1.24649e+58
          2142.87030	         3.64481e+57
          2143.67660	         7.97637e+57
          2144.48290	         7.79176e+57
          2145.28920	         1.38426e+58
          2146.09550	        -4.49869e+57
          2146.90180	        -1.17829e+58
          2147.70810	        -6.57758e+57
          2148.51440	        -7.80083e+57
          2149.32070	        -1.29927e+58
          2150.12700	        -3.30818e+57
          2150.93330	        -9.33278e+57
          2151.73960	        -2.11999e+57
          2152.54590	        -6.73566e+57
          2153.35220	        -2.80503e+57
          2154.15850	        -6.45490e+57
          2154.96480	        -3.55550e+57
          2155.77110	        -8.84904e+56
          2156.57740	        -1.82595e+58
          2157.38370	         4.66159e+57
          2158.19000	         3.73480e+56
          2158.99630	        -8.13800e+57
          2159.80260	        -7.33930e+57
          2160.60890	        -8.57010e+57
          2161.41520	        -8.91258e+56
          2162.22150	        -3.95318e+57
          2163.02780	         4.23621e+56
          2163.83410	        -1.89883e+57
          2164.64040	        -5.53151e+57
          2165.44670	        -9.31729e+57
          2166.25300	        -1.62084e+58
          2167.05930	        -6.09244e+57
          2167.86560	        -4.30627e+56
          2168.67190	        -7.73091e+57
          2169.47820	        -4.66065e+57
          2170.28450	        -8.34269e+57
          2171.09080	         1.04967e+58
          2171.89710	         1.41911e+57
          2172.70340	         3.56463e+57
          2173.50970	        -9.69298e+56
          2174.31600	        -3.31336e+57
          2175.12230	        -6.18346e+56
          2175.92860	        -2.18826e+57
          2176.73490	        -3.12716e+57
          2177.54120	        -4.57558e+57
          2178.34750	         2.74793e+56
          2179.15380	                 nan
          2179.96010	                 nan
          2180.76640	                 nan
          2181.57270	                 nan
          2182.37900	                 nan
          2183.18530	                 nan
          2183.99160	                 nan
          2184.79790	                 nan
          2185.60420	                 nan
          2186.41050	                 nan
          2187.21680	                 nan
          2188.02310	                 nan
          2188.82940	                 nan
          2189.63570	                 nan
          2190.44200	                 nan
          2191.24830	                 nan
          2192.05460	                 nan
          2192.86090	                 nan
          2193.66720	                 nan
          2194.47350	                 nan
          2195.27980	                 nan
          2196.08610	                 nan
          2196.89240	                 nan
          2197.69870	                 nan
          2198.50500	                 nan
          2199.31130	                 nan
          2200.11760	                 nan
          2200.92390	                 nan
          2201.73020	                 nan
          2202.53650	                 nan
          2203.34280	                 nan
          2204.14910	                 nan
          2204.95540	                 nan
          2205.76170	                 nan
          2206.56800	                 nan
          2207.37430	                 nan
          2208.18060	                 nan
          2208.98690	                 nan
          2209.79320	                 nan
          2210.59950	                 nan
          2211.40580	                 nan
          2212.21210	                 nan
          2213.01840	                 nan
          2213.82470	                 nan
          2214.63100	                 nan
          2215.43730	         0.00000e+00
