#sample_217_stacked_spectrum_rest_UV-bands_median_H-alpha_noDC.txt
#median Lum: 1.70894e+42
#Rest-frame wavelength (A) | Luminosity (erg/s/A)
#
          1110.00000	         0.00000e+00
          1110.80630	         3.60572e+59
          1111.61260	         2.90755e+59
          1112.41890	         3.55566e+59
          1113.22520	        -8.01331e+58
          1114.03150	        -1.40357e+59
          1114.83780	         2.18496e+59
          1115.64410	         7.85240e+58
          1116.45040	         1.99901e+59
          1117.25670	        -2.33127e+58
          1118.06300	        -1.22809e+59
          1118.86930	        -1.87252e+58
          1119.67560	         8.12368e+58
          1120.48190	         4.66681e+58
          1121.28820	        -2.55489e+58
          1122.09450	         3.99401e+57
          1122.90080	         4.84260e+58
          1123.70710	         5.86088e+58
          1124.51340	         2.14591e+58
          1125.31970	        -2.20761e+58
          1126.12600	        -9.46911e+57
          1126.93230	        -1.84866e+58
          1127.73860	        -8.14327e+58
          1128.54490	        -4.13929e+58
          1129.35120	         5.80706e+57
          1130.15750	        -1.70434e+57
          1130.96380	        -3.58457e+58
          1131.77010	         3.13997e+58
          1132.57640	         5.51286e+58
          1133.38270	         3.41416e+58
          1134.18900	         1.28549e+57
          1134.99530	         2.44171e+58
          1135.80160	         6.54097e+57
          1136.60790	         2.22573e+58
          1137.41420	        -3.21561e+57
          1138.22050	         2.20067e+58
          1139.02680	         1.45837e+58
          1139.83310	         3.22894e+58
          1140.63940	         1.39683e+58
          1141.44570	         3.54170e+56
          1142.25200	        -1.66168e+57
          1143.05830	         2.02793e+58
          1143.86460	         1.92008e+58
          1144.67090	         1.68342e+58
          1145.47720	         4.02901e+57
          1146.28350	         5.77318e+57
          1147.08980	         1.21377e+58
          1147.89610	         1.65650e+58
          1148.70240	         2.02119e+58
          1149.50870	         1.72240e+58
          1150.31500	         1.66876e+58
          1151.12130	         2.24808e+57
          1151.92760	        -9.79850e+57
          1152.73390	        -1.65564e+58
          1153.54020	        -1.24571e+58
          1154.34650	         2.14427e+58
          1155.15280	         1.64124e+58
          1155.95910	        -1.18240e+58
          1156.76540	         4.85583e+57
          1157.57170	         4.67618e+57
          1158.37800	         5.55231e+57
          1159.18430	         4.74971e+56
          1159.99060	         7.98301e+57
          1160.79690	         8.32045e+57
          1161.60320	         1.49056e+58
          1162.40950	         1.13960e+58
          1163.21580	         2.13396e+58
          1164.02210	         1.30733e+58
          1164.82840	         3.15731e+57
          1165.63470	         2.71794e+58
          1166.44100	         3.46230e+58
          1167.24730	         1.80161e+58
          1168.05360	         1.08535e+58
          1168.85990	         3.60533e+57
          1169.66620	         9.97732e+57
          1170.47250	         1.08429e+58
          1171.27880	         5.33047e+57
          1172.08510	         1.99773e+58
          1172.89140	         1.94830e+58
          1173.69770	         4.32117e+57
          1174.50400	         6.84799e+57
          1175.31030	         1.75933e+58
          1176.11660	         1.93645e+58
          1176.92290	         1.50008e+58
          1177.72920	         1.67033e+58
          1178.53550	         4.72115e+57
          1179.34180	         1.21633e+57
          1180.14810	         4.58505e+57
          1180.95440	         7.68490e+57
          1181.76070	         9.77449e+57
          1182.56700	         8.58302e+57
          1183.37330	         4.97363e+57
          1184.17960	         1.19162e+58
          1184.98590	         1.24140e+58
          1185.79220	         9.37015e+57
          1186.59850	         1.29621e+58
          1187.40480	         1.11566e+58
          1188.21110	         1.26501e+58
          1189.01740	         7.61834e+57
          1189.82370	         1.38847e+58
          1190.63000	         1.61622e+58
          1191.43630	         1.23585e+58
          1192.24260	         1.06048e+58
          1193.04890	         1.49049e+58
          1193.85520	         1.69939e+58
          1194.66150	         1.06246e+58
          1195.46780	         1.39470e+58
          1196.27410	         1.38372e+58
          1197.08040	         9.53480e+57
          1197.88670	         1.19355e+58
          1198.69300	         1.44569e+58
          1199.49930	         1.64342e+58
          1200.30560	         1.38885e+58
          1201.11190	         1.21486e+58
          1201.91820	         1.03346e+58
          1202.72450	         7.14344e+57
          1203.53080	         1.37603e+58
          1204.33710	         9.87912e+57
          1205.14340	         8.48055e+57
          1205.94970	         8.17770e+57
          1206.75600	         8.47720e+57
          1207.56230	         5.98172e+57
          1208.36860	         5.62115e+57
          1209.17490	         3.38852e+57
          1209.98120	         4.40726e+57
          1210.78750	         5.04485e+57
          1211.59380	         1.07659e+58
          1212.40010	         1.80899e+58
          1213.20640	         1.88768e+58
          1214.01270	         1.98535e+58
          1214.81900	         2.62215e+58
          1215.62530	         4.52667e+58
          1216.43160	         8.99574e+58
          1217.23790	         1.49735e+59
          1218.04420	         1.09219e+59
          1218.85050	         8.47532e+58
          1219.65680	         5.61993e+58
          1220.46310	         3.18015e+58
          1221.26940	         2.44348e+58
          1222.07570	         1.61758e+58
          1222.88200	         1.39994e+58
          1223.68830	         1.06401e+58
          1224.49460	         4.01444e+57
          1225.30090	         5.36705e+57
          1226.10720	         5.41101e+57
          1226.91350	         4.34050e+57
          1227.71980	         6.75758e+57
          1228.52610	         1.16193e+58
          1229.33240	         8.33633e+57
          1230.13870	         7.41332e+57
          1230.94500	         8.36089e+57
          1231.75130	         7.59892e+57
          1232.55760	         8.15393e+57
          1233.36390	         9.14906e+57
          1234.17020	         9.13853e+57
          1234.97650	         6.57295e+57
          1235.78280	         6.45338e+57
          1236.58910	         8.04368e+57
          1237.39540	         1.05931e+58
          1238.20170	         1.22799e+58
          1239.00800	         1.41548e+58
          1239.81430	         1.67459e+58
          1240.62060	         1.04138e+58
          1241.42690	         8.65891e+57
          1242.23320	         1.10018e+58
          1243.03950	         7.26238e+57
          1243.84580	         8.37364e+57
          1244.65210	         1.07972e+58
          1245.45840	         1.02705e+58
          1246.26470	         8.37316e+57
          1247.07100	         5.84755e+57
          1247.87730	         3.96528e+57
          1248.68360	         1.94491e+57
          1249.48990	         4.26407e+57
          1250.29620	         7.88931e+57
          1251.10250	         5.99057e+57
          1251.90880	         3.66318e+57
          1252.71510	         5.68237e+57
          1253.52140	         6.92146e+57
          1254.32770	         6.49921e+57
          1255.13400	         1.10599e+58
          1255.94030	         1.18090e+58
          1256.74660	         9.03872e+57
          1257.55290	         1.17111e+58
          1258.35920	         9.82564e+57
          1259.16550	         4.92741e+57
          1259.97180	         5.95738e+57
          1260.77810	         8.46092e+57
          1261.58440	         9.71708e+57
          1262.39070	         7.44767e+57
          1263.19700	         7.74103e+57
          1264.00330	         1.23680e+58
          1264.80960	         1.23760e+58
          1265.61590	         1.18492e+58
          1266.42220	         1.28345e+58
          1267.22850	         1.15366e+58
          1268.03480	         1.43586e+58
          1268.84110	         1.66602e+58
          1269.64740	         1.49484e+58
          1270.45370	         1.24082e+58
          1271.26000	         1.07748e+58
          1272.06630	         1.23125e+58
          1272.87260	         1.26145e+58
          1273.67890	         1.20996e+58
          1274.48520	         1.19687e+58
          1275.29150	         1.43070e+58
          1276.09780	         1.36959e+58
          1276.90410	         1.37355e+58
          1277.71040	         1.17423e+58
          1278.51670	         1.17411e+58
          1279.32300	         1.29823e+58
          1280.12930	         1.20101e+58
          1280.93560	         9.85995e+57
          1281.74190	         9.87173e+57
          1282.54820	         1.15052e+58
          1283.35450	         1.04047e+58
          1284.16080	         9.51927e+57
          1284.96710	         1.10241e+58
          1285.77340	         1.08942e+58
          1286.57970	         1.16426e+58
          1287.38600	         1.41008e+58
          1288.19230	         1.72537e+58
          1288.99860	         1.47319e+58
          1289.80490	         8.46641e+57
          1290.61120	         1.18522e+58
          1291.41750	         1.56886e+58
          1292.22380	         1.33343e+58
          1293.03010	         1.03090e+58
          1293.83640	         1.09077e+58
          1294.64270	         1.03675e+58
          1295.44900	         7.64548e+57
          1296.25530	         7.73046e+57
          1297.06160	         9.45151e+57
          1297.86790	         9.49105e+57
          1298.67420	         9.66367e+57
          1299.48050	         1.07100e+58
          1300.28680	         1.03701e+58
          1301.09310	         7.88884e+57
          1301.89940	         4.81561e+57
          1302.70570	         7.48910e+57
          1303.51200	         8.45822e+57
          1304.31830	         1.06385e+58
          1305.12460	         1.13382e+58
          1305.93090	         1.05846e+58
          1306.73720	         1.22162e+58
          1307.54350	         1.55023e+58
          1308.34980	         1.51561e+58
          1309.15610	         1.49352e+58
          1309.96240	         1.62118e+58
          1310.76870	         1.33357e+58
          1311.57500	         1.20169e+58
          1312.38130	         1.26714e+58
          1313.18760	         1.28734e+58
          1313.99390	         1.38891e+58
          1314.80020	         1.56135e+58
          1315.60650	         1.38987e+58
          1316.41280	         1.05309e+58
          1317.21910	         9.16826e+57
          1318.02540	         1.19598e+58
          1318.83170	         1.39327e+58
          1319.63800	         1.25640e+58
          1320.44430	         1.24125e+58
          1321.25060	         1.30620e+58
          1322.05690	         1.33396e+58
          1322.86320	         1.18855e+58
          1323.66950	         1.10063e+58
          1324.47580	         8.81175e+57
          1325.28210	         9.05963e+57
          1326.08840	         9.60762e+57
          1326.89470	         1.05068e+58
          1327.70100	         9.89847e+57
          1328.50730	         7.97112e+57
          1329.31360	         9.33991e+57
          1330.11990	         1.03984e+58
          1330.92620	         1.03369e+58
          1331.73250	         1.25079e+58
          1332.53880	         1.15013e+58
          1333.34510	         8.55620e+57
          1334.15140	         8.10477e+57
          1334.95770	         8.77280e+57
          1335.76400	         1.00997e+58
          1336.57030	         1.03248e+58
          1337.37660	         9.75572e+57
          1338.18290	         1.04924e+58
          1338.98920	         1.13294e+58
          1339.79550	         9.96789e+57
          1340.60180	         9.85531e+57
          1341.40810	         1.21545e+58
          1342.21440	         1.15459e+58
          1343.02070	         1.19261e+58
          1343.82700	         1.48723e+58
          1344.63330	         1.36338e+58
          1345.43960	         1.37587e+58
          1346.24590	         1.17371e+58
          1347.05220	         1.10353e+58
          1347.85850	         1.12470e+58
          1348.66480	         1.24492e+58
          1349.47110	         1.32880e+58
          1350.27740	         1.18757e+58
          1351.08370	         1.20228e+58
          1351.89000	         1.13749e+58
          1352.69630	         1.02652e+58
          1353.50260	         1.09357e+58
          1354.30890	         1.16817e+58
          1355.11520	         1.25463e+58
          1355.92150	         1.14721e+58
          1356.72780	         1.02344e+58
          1357.53410	         1.13572e+58
          1358.34040	         1.25531e+58
          1359.14670	         1.14926e+58
          1359.95300	         1.05826e+58
          1360.75930	         1.10776e+58
          1361.56560	         1.15923e+58
          1362.37190	         1.25026e+58
          1363.17820	         1.14012e+58
          1363.98450	         1.17126e+58
          1364.79080	         1.23303e+58
          1365.59710	         1.15177e+58
          1366.40340	         1.21009e+58
          1367.20970	         1.02396e+58
          1368.01600	         1.01163e+58
          1368.82230	         1.15469e+58
          1369.62860	         1.14592e+58
          1370.43490	         8.96191e+57
          1371.24120	         9.91972e+57
          1372.04750	         1.00207e+58
          1372.85380	         9.68439e+57
          1373.66010	         1.05380e+58
          1374.46640	         1.00527e+58
          1375.27270	         9.72781e+57
          1376.07900	         9.07175e+57
          1376.88530	         8.81163e+57
          1377.69160	         7.90919e+57
          1378.49790	         6.60282e+57
          1379.30420	         8.16788e+57
          1380.11050	         9.66542e+57
          1380.91680	         8.84010e+57
          1381.72310	         7.58520e+57
          1382.52940	         8.21893e+57
          1383.33570	         8.77412e+57
          1384.14200	         1.10187e+58
          1384.94830	         1.26428e+58
          1385.75460	         1.14003e+58
          1386.56090	         1.03989e+58
          1387.36720	         1.06951e+58
          1388.17350	         1.30364e+58
          1388.97980	         1.18959e+58
          1389.78610	         1.06405e+58
          1390.59240	         9.38890e+57
          1391.39870	         6.41906e+57
          1392.20500	         7.85512e+57
          1393.01130	         7.71840e+57
          1393.81760	         8.21273e+57
          1394.62390	         8.50831e+57
          1395.43020	         6.21166e+57
          1396.23650	         6.52666e+57
          1397.04280	         8.31502e+57
          1397.84910	         8.56053e+57
          1398.65540	         9.20212e+57
          1399.46170	         1.00118e+58
          1400.26800	         8.31126e+57
          1401.07430	         7.64732e+57
          1401.88060	         7.90401e+57
          1402.68690	         9.55079e+57
          1403.49320	         9.81936e+57
          1404.29950	         8.96196e+57
          1405.10580	         9.83084e+57
          1405.91210	         1.14408e+58
          1406.71840	         1.15991e+58
          1407.52470	         1.00988e+58
          1408.33100	         9.80047e+57
          1409.13730	         1.17723e+58
          1409.94360	         1.22239e+58
          1410.74990	         1.08228e+58
          1411.55620	         9.43581e+57
          1412.36250	         8.01726e+57
          1413.16880	         8.26283e+57
          1413.97510	         8.04798e+57
          1414.78140	         7.97934e+57
          1415.58770	         1.06857e+58
          1416.39400	         1.14177e+58
          1417.20030	         1.21101e+58
          1418.00660	         1.06916e+58
          1418.81290	         1.04432e+58
          1419.61920	         1.11677e+58
          1420.42550	         1.32712e+58
          1421.23180	         1.36275e+58
          1422.03810	         1.25747e+58
          1422.84440	         1.09655e+58
          1423.65070	         1.15531e+58
          1424.45700	         1.10054e+58
          1425.26330	         8.22326e+57
          1426.06960	         8.21053e+57
          1426.87590	         1.01638e+58
          1427.68220	         1.00399e+58
          1428.48850	         1.04615e+58
          1429.29480	         9.85679e+57
          1430.10110	         9.37656e+57
          1430.90740	         8.57238e+57
          1431.71370	         9.15792e+57
          1432.52000	         8.10260e+57
          1433.32630	         8.01734e+57
          1434.13260	         8.38541e+57
          1434.93890	         7.64985e+57
          1435.74520	         9.30830e+57
          1436.55150	         1.01047e+58
          1437.35780	         8.64496e+57
          1438.16410	         8.60840e+57
          1438.97040	         8.23633e+57
          1439.77670	         8.89845e+57
          1440.58300	         9.05418e+57
          1441.38930	         8.02074e+57
          1442.19560	         9.14267e+57
          1443.00190	         1.00125e+58
          1443.80820	         1.05635e+58
          1444.61450	         9.18317e+57
          1445.42080	         7.84524e+57
          1446.22710	         8.99975e+57
          1447.03340	         8.69390e+57
          1447.83970	         1.03727e+58
          1448.64600	         1.10012e+58
          1449.45230	         9.77488e+57
          1450.25860	         9.44877e+57
          1451.06490	         9.36839e+57
          1451.87120	         8.54817e+57
          1452.67750	         7.50409e+57
          1453.48380	         8.24358e+57
          1454.29010	         7.99558e+57
          1455.09640	         7.31004e+57
          1455.90270	         8.50142e+57
          1456.70900	         9.11279e+57
          1457.51530	         1.01032e+58
          1458.32160	         1.20942e+58
          1459.12790	         1.19462e+58
          1459.93420	         9.85019e+57
          1460.74050	         6.93457e+57
          1461.54680	         7.28762e+57
          1462.35310	         7.91904e+57
          1463.15940	         1.02350e+58
          1463.96570	         1.22053e+58
          1464.77200	         1.19013e+58
          1465.57830	         9.98568e+57
          1466.38460	         8.01822e+57
          1467.19090	         8.15551e+57
          1467.99720	         9.84404e+57
          1468.80350	         9.75994e+57
          1469.60980	         1.00362e+58
          1470.41610	         1.00476e+58
          1471.22240	         8.41812e+57
          1472.02870	         9.16899e+57
          1472.83500	         9.48665e+57
          1473.64130	         8.73751e+57
          1474.44760	         8.44432e+57
          1475.25390	         8.19025e+57
          1476.06020	         8.19499e+57
          1476.86650	         8.15685e+57
          1477.67280	         7.96868e+57
          1478.47910	         7.36088e+57
          1479.28540	         7.17937e+57
          1480.09170	         9.06737e+57
          1480.89800	         9.59579e+57
          1481.70430	         9.67735e+57
          1482.51060	         8.80248e+57
          1483.31690	         7.80024e+57
          1484.12320	         8.95723e+57
          1484.92950	         9.61416e+57
          1485.73580	         9.38474e+57
          1486.54210	         9.17241e+57
          1487.34840	         8.16194e+57
          1488.15470	         8.31304e+57
          1488.96100	         9.17708e+57
          1489.76730	         8.98727e+57
          1490.57360	         8.50177e+57
          1491.37990	         7.60280e+57
          1492.18620	         7.69813e+57
          1492.99250	         7.96983e+57
          1493.79880	         8.52767e+57
          1494.60510	         8.62322e+57
          1495.41140	         7.27946e+57
          1496.21770	         7.66037e+57
          1497.02400	         9.23784e+57
          1497.83030	         7.91879e+57
          1498.63660	         6.62978e+57
          1499.44290	         7.27428e+57
          1500.24920	         7.31306e+57
          1501.05550	         7.27326e+57
          1501.86180	         8.16884e+57
          1502.66810	         8.37618e+57
          1503.47440	         8.41878e+57
          1504.28070	         8.85714e+57
          1505.08700	         8.59922e+57
          1505.89330	         8.77797e+57
          1506.69960	         8.59050e+57
          1507.50590	         8.65970e+57
          1508.31220	         8.23073e+57
          1509.11850	         8.96634e+57
          1509.92480	         1.00904e+58
          1510.73110	         9.25626e+57
          1511.53740	         7.74009e+57
          1512.34370	         7.25228e+57
          1513.15000	         8.23796e+57
          1513.95630	         9.27906e+57
          1514.76260	         8.79319e+57
          1515.56890	         8.24078e+57
          1516.37520	         9.18119e+57
          1517.18150	         9.00817e+57
          1517.98780	         7.18106e+57
          1518.79410	         7.54296e+57
          1519.60040	         8.37197e+57
          1520.40670	         8.99615e+57
          1521.21300	         8.56298e+57
          1522.01930	         7.78553e+57
          1522.82560	         9.69907e+57
          1523.63190	         1.07727e+58
          1524.43820	         7.48707e+57
          1525.24450	         5.03937e+57
          1526.05080	         6.18653e+57
          1526.85710	         7.46200e+57
          1527.66340	         6.96608e+57
          1528.46970	         7.60826e+57
          1529.27600	         7.81722e+57
          1530.08230	         7.08939e+57
          1530.88860	         7.19087e+57
          1531.69490	         8.57479e+57
          1532.50120	         9.10086e+57
          1533.30750	         9.18661e+57
          1534.11380	         8.74694e+57
          1534.92010	         9.05810e+57
          1535.72640	         1.00029e+58
          1536.53270	         9.74579e+57
          1537.33900	         9.02577e+57
          1538.14530	         8.88248e+57
          1538.95160	         8.54644e+57
          1539.75790	         8.36446e+57
          1540.56420	         8.12749e+57
          1541.37050	         8.43740e+57
          1542.17680	         7.10944e+57
          1542.98310	         6.77737e+57
          1543.78940	         7.05365e+57
          1544.59570	         7.27643e+57
          1545.40200	         8.18513e+57
          1546.20830	         9.13690e+57
          1547.01460	         1.04278e+58
          1547.82090	         1.14539e+58
          1548.62720	         1.21199e+58
          1549.43350	         1.09886e+58
          1550.23980	         1.09327e+58
          1551.04610	         1.32664e+58
          1551.85240	         1.19306e+58
          1552.65870	         1.06893e+58
          1553.46500	         9.88258e+57
          1554.27130	         1.00344e+58
          1555.07760	         1.03232e+58
          1555.88390	         9.57745e+57
          1556.69020	         9.35294e+57
          1557.49650	         9.44881e+57
          1558.30280	         8.82680e+57
          1559.10910	         8.89377e+57
          1559.91540	         8.50349e+57
          1560.72170	         8.19503e+57
          1561.52800	         9.21981e+57
          1562.33430	         9.33662e+57
          1563.14060	         7.77437e+57
          1563.94690	         7.88111e+57
          1564.75320	         8.41956e+57
          1565.55950	         7.25761e+57
          1566.36580	         6.75455e+57
          1567.17210	         8.96247e+57
          1567.97840	         9.64765e+57
          1568.78470	         8.56150e+57
          1569.59100	         8.84970e+57
          1570.39730	         8.79930e+57
          1571.20360	         7.03773e+57
          1572.00990	         7.16019e+57
          1572.81620	         9.34492e+57
          1573.62250	         1.08287e+58
          1574.42880	         9.36227e+57
          1575.23510	         7.52007e+57
          1576.04140	         8.32418e+57
          1576.84770	         9.42792e+57
          1577.65400	         8.53392e+57
          1578.46030	         8.57850e+57
          1579.26660	         9.85017e+57
          1580.07290	         9.24588e+57
          1580.87920	         7.88260e+57
          1581.68550	         8.39166e+57
          1582.49180	         8.81947e+57
          1583.29810	         7.57581e+57
          1584.10440	         8.04644e+57
          1584.91070	         8.58294e+57
          1585.71700	         8.32813e+57
          1586.52330	         8.26236e+57
          1587.32960	         8.34616e+57
          1588.13590	         8.82925e+57
          1588.94220	         8.55802e+57
          1589.74850	         9.43084e+57
          1590.55480	         9.56133e+57
          1591.36110	         8.53854e+57
          1592.16740	         7.71973e+57
          1592.97370	         7.62145e+57
          1593.78000	         8.59362e+57
          1594.58630	         8.69592e+57
          1595.39260	         7.74024e+57
          1596.19890	         8.84919e+57
          1597.00520	         9.45354e+57
          1597.81150	         8.50936e+57
          1598.61780	         6.90399e+57
          1599.42410	         7.85638e+57
          1600.23040	         7.21345e+57
          1601.03670	         6.53239e+57
          1601.84300	         7.38686e+57
          1602.64930	         8.34410e+57
          1603.45560	         8.10736e+57
          1604.26190	         6.91532e+57
          1605.06820	         6.65327e+57
          1605.87450	         6.82836e+57
          1606.68080	         7.19653e+57
          1607.48710	         6.22917e+57
          1608.29340	         5.72408e+57
          1609.09970	         6.99793e+57
          1609.90600	         7.40654e+57
          1610.71230	         6.86766e+57
          1611.51860	         6.36381e+57
          1612.32490	         6.62109e+57
          1613.13120	         7.96275e+57
          1613.93750	         8.05730e+57
          1614.74380	         8.86724e+57
          1615.55010	         9.38770e+57
          1616.35640	         9.80286e+57
          1617.16270	         9.95174e+57
          1617.96900	         1.01162e+58
          1618.77530	         8.64957e+57
          1619.58160	         8.03204e+57
          1620.38790	         8.66350e+57
          1621.19420	         9.05789e+57
          1622.00050	         8.34715e+57
          1622.80680	         8.37483e+57
          1623.61310	         9.11342e+57
          1624.41940	         8.56735e+57
          1625.22570	         9.16161e+57
          1626.03200	         9.08199e+57
          1626.83830	         7.84184e+57
          1627.64460	         6.98137e+57
          1628.45090	         6.35861e+57
          1629.25720	         7.87962e+57
          1630.06350	         9.60379e+57
          1630.86980	         6.33806e+57
          1631.67610	         7.33637e+57
          1632.48240	         8.72856e+57
          1633.28870	         8.21172e+57
          1634.09500	         8.82120e+57
          1634.90130	         1.05207e+58
          1635.70760	         8.27826e+57
          1636.51390	         7.73892e+57
          1637.32020	         8.85891e+57
          1638.12650	         1.06522e+58
          1638.93280	         1.02213e+58
          1639.73910	         9.66122e+57
          1640.54540	         9.89591e+57
          1641.35170	         8.79182e+57
          1642.15800	         9.76208e+57
          1642.96430	         1.01174e+58
          1643.77060	         9.66006e+57
          1644.57690	         8.43656e+57
          1645.38320	         7.18822e+57
          1646.18950	         6.39318e+57
          1646.99580	         8.63868e+57
          1647.80210	         8.52782e+57
          1648.60840	         7.16994e+57
          1649.41470	         7.79254e+57
          1650.22100	         7.48255e+57
          1651.02730	         8.06669e+57
          1651.83360	         8.09143e+57
          1652.63990	         8.54868e+57
          1653.44620	         7.90518e+57
          1654.25250	         7.10173e+57
          1655.05880	         7.45641e+57
          1655.86510	         8.49555e+57
          1656.67140	         8.15462e+57
          1657.47770	         7.22630e+57
          1658.28400	         8.14273e+57
          1659.09030	         8.90752e+57
          1659.89660	         9.68342e+57
          1660.70290	         1.01546e+58
          1661.50920	         9.18530e+57
          1662.31550	         8.77041e+57
          1663.12180	         8.17646e+57
          1663.92810	         8.53038e+57
          1664.73440	         1.04397e+58
          1665.54070	         1.17542e+58
          1666.34700	         1.18669e+58
          1667.15330	         1.10889e+58
          1667.95960	         1.00419e+58
          1668.76590	         8.07372e+57
          1669.57220	         7.11608e+57
          1670.37850	         6.88874e+57
          1671.18480	         6.74737e+57
          1671.99110	         6.80582e+57
          1672.79740	         5.98864e+57
          1673.60370	         6.12519e+57
          1674.41000	         7.39341e+57
          1675.21630	         7.33680e+57
          1676.02260	         6.78470e+57
          1676.82890	         6.92039e+57
          1677.63520	         6.90381e+57
          1678.44150	         6.58379e+57
          1679.24780	         7.77793e+57
          1680.05410	         6.90804e+57
          1680.86040	         5.66255e+57
          1681.66670	         6.35698e+57
          1682.47300	         8.34997e+57
          1683.27930	         8.26145e+57
          1684.08560	         8.09397e+57
          1684.89190	         7.83718e+57
          1685.69820	         6.18457e+57
          1686.50450	         6.14045e+57
          1687.31080	         7.51733e+57
          1688.11710	         8.47153e+57
          1688.92340	         7.87368e+57
          1689.72970	         7.22412e+57
          1690.53600	         7.21250e+57
          1691.34230	         6.95450e+57
          1692.14860	         8.38210e+57
          1692.95490	         9.08087e+57
          1693.76120	         7.72059e+57
          1694.56750	         6.60929e+57
          1695.37380	         8.17514e+57
          1696.18010	         8.03907e+57
          1696.98640	         8.25633e+57
          1697.79270	         7.78983e+57
          1698.59900	         7.98602e+57
          1699.40530	         7.86350e+57
          1700.21160	         7.20760e+57
          1701.01790	         7.72934e+57
          1701.82420	         7.45442e+57
          1702.63050	         7.47580e+57
          1703.43680	         7.34770e+57
          1704.24310	         8.17664e+57
          1705.04940	         7.66977e+57
          1705.85570	         6.34505e+57
          1706.66200	         7.84221e+57
          1707.46830	         7.46957e+57
          1708.27460	         6.67610e+57
          1709.08090	         6.24326e+57
          1709.88720	         6.73459e+57
          1710.69350	         7.06543e+57
          1711.49980	         6.83400e+57
          1712.30610	         6.97167e+57
          1713.11240	         8.88534e+57
          1713.91870	         7.80920e+57
          1714.72500	         7.52076e+57
          1715.53130	         9.16573e+57
          1716.33760	         8.24520e+57
          1717.14390	         7.29050e+57
          1717.95020	         8.14797e+57
          1718.75650	         8.71729e+57
          1719.56280	         8.09708e+57
          1720.36910	         6.62985e+57
          1721.17540	         6.87059e+57
          1721.98170	         6.11269e+57
          1722.78800	         5.46962e+57
          1723.59430	         6.47581e+57
          1724.40060	         7.93914e+57
          1725.20690	         8.86405e+57
          1726.01320	         8.28491e+57
          1726.81950	         7.83082e+57
          1727.62580	         7.44473e+57
          1728.43210	         7.01700e+57
          1729.23840	         8.07175e+57
          1730.04470	         8.92735e+57
          1730.85100	         8.15011e+57
          1731.65730	         8.12449e+57
          1732.46360	         7.73890e+57
          1733.26990	         7.58352e+57
          1734.07620	         6.84573e+57
          1734.88250	         6.61854e+57
          1735.68880	         7.45979e+57
          1736.49510	         8.77315e+57
          1737.30140	         8.26606e+57
          1738.10770	         7.33719e+57
          1738.91400	         7.80314e+57
          1739.72030	         7.66913e+57
          1740.52660	         5.89195e+57
          1741.33290	         5.56948e+57
          1742.13920	         6.60248e+57
          1742.94550	         7.48773e+57
          1743.75180	         6.92426e+57
          1744.55810	         7.89662e+57
          1745.36440	         7.30244e+57
          1746.17070	         5.99353e+57
          1746.97700	         6.10155e+57
          1747.78330	         6.56173e+57
          1748.58960	         7.57216e+57
          1749.39590	         7.03756e+57
          1750.20220	         7.33620e+57
          1751.00850	         7.15399e+57
          1751.81480	         5.93552e+57
          1752.62110	         6.33720e+57
          1753.42740	         8.04963e+57
          1754.23370	         7.04442e+57
          1755.04000	         7.04757e+57
          1755.84630	         8.24964e+57
          1756.65260	         8.33427e+57
          1757.45890	         7.64829e+57
          1758.26520	         7.17254e+57
          1759.07150	         8.48433e+57
          1759.87780	         7.74573e+57
          1760.68410	         7.60633e+57
          1761.49040	         8.99347e+57
          1762.29670	         7.46102e+57
          1763.10300	         7.52122e+57
          1763.90930	         8.01396e+57
          1764.71560	         7.69224e+57
          1765.52190	         7.50971e+57
          1766.32820	         9.52893e+57
          1767.13450	         8.88796e+57
          1767.94080	         7.62899e+57
          1768.74710	         6.97754e+57
          1769.55340	         6.38266e+57
          1770.35970	         5.97889e+57
          1771.16600	         7.70553e+57
          1771.97230	         8.68567e+57
          1772.77860	         8.50358e+57
          1773.58490	         7.38395e+57
          1774.39120	         6.50196e+57
          1775.19750	         6.28482e+57
          1776.00380	         6.51132e+57
          1776.81010	         6.09530e+57
          1777.61640	         6.05029e+57
          1778.42270	         6.58481e+57
          1779.22900	         6.61572e+57
          1780.03530	         6.11057e+57
          1780.84160	         7.45410e+57
          1781.64790	         8.53191e+57
          1782.45420	         7.31276e+57
          1783.26050	         6.03662e+57
          1784.06680	         6.95199e+57
          1784.87310	         7.47538e+57
          1785.67940	         8.68951e+57
          1786.48570	         8.56616e+57
          1787.29200	         7.09875e+57
          1788.09830	         5.82999e+57
          1788.90460	         6.52575e+57
          1789.71090	         5.98251e+57
          1790.51720	         5.12099e+57
          1791.32350	         6.89789e+57
          1792.12980	         8.02566e+57
          1792.93610	         8.25632e+57
          1793.74240	         7.86941e+57
          1794.54870	         8.01962e+57
          1795.35500	         8.02937e+57
          1796.16130	         8.06407e+57
          1796.96760	         6.51015e+57
          1797.77390	         7.32612e+57
          1798.58020	         7.75752e+57
          1799.38650	         5.97562e+57
          1800.19280	         6.30064e+57
          1800.99910	         7.34913e+57
          1801.80540	         7.08421e+57
          1802.61170	         7.45779e+57
          1803.41800	         7.74822e+57
          1804.22430	         6.77764e+57
          1805.03060	         7.07016e+57
          1805.83690	         7.11555e+57
          1806.64320	         8.37368e+57
          1807.44950	         9.22657e+57
          1808.25580	         8.29594e+57
          1809.06210	         8.28226e+57
          1809.86840	         8.11891e+57
          1810.67470	         7.97919e+57
          1811.48100	         8.64321e+57
          1812.28730	         8.29131e+57
          1813.09360	         7.87773e+57
          1813.89990	         7.39290e+57
          1814.70620	         7.73218e+57
          1815.51250	         8.43520e+57
          1816.31880	         8.31699e+57
          1817.12510	         7.75895e+57
          1817.93140	         7.28322e+57
          1818.73770	         7.00303e+57
          1819.54400	         7.88423e+57
          1820.35030	         7.81088e+57
          1821.15660	         6.54464e+57
          1821.96290	         6.07207e+57
          1822.76920	         7.55117e+57
          1823.57550	         7.99764e+57
          1824.38180	         7.60121e+57
          1825.18810	         7.44748e+57
          1825.99440	         7.85379e+57
          1826.80070	         7.67019e+57
          1827.60700	         6.23507e+57
          1828.41330	         5.48976e+57
          1829.21960	         6.38596e+57
          1830.02590	         6.98188e+57
          1830.83220	         7.75181e+57
          1831.63850	         7.64312e+57
          1832.44480	         6.98051e+57
          1833.25110	         6.75198e+57
          1834.05740	         7.43893e+57
          1834.86370	         7.60019e+57
          1835.67000	         6.45717e+57
          1836.47630	         7.14062e+57
          1837.28260	         8.56154e+57
          1838.08890	         8.71032e+57
          1838.89520	         7.77298e+57
          1839.70150	         7.37390e+57
          1840.50780	         6.67653e+57
          1841.31410	         6.19424e+57
          1842.12040	         6.77853e+57
          1842.92670	         7.39379e+57
          1843.73300	         7.33292e+57
          1844.53930	         6.21855e+57
          1845.34560	         6.40767e+57
          1846.15190	         7.25715e+57
          1846.95820	         8.04844e+57
          1847.76450	         7.44465e+57
          1848.57080	         6.16882e+57
          1849.37710	         5.66124e+57
          1850.18340	         7.31398e+57
          1850.98970	         8.31456e+57
          1851.79600	         8.23840e+57
          1852.60230	         7.27311e+57
          1853.40860	         6.02623e+57
          1854.21490	         6.07786e+57
          1855.02120	         4.95841e+57
          1855.82750	         4.53742e+57
          1856.63380	         5.47180e+57
          1857.44010	         7.60117e+57
          1858.24640	         6.97409e+57
          1859.05270	         7.95607e+57
          1859.85900	         6.40210e+57
          1860.66530	         6.37425e+57
          1861.47160	         6.59333e+57
          1862.27790	         7.43050e+57
          1863.08420	         7.57032e+57
          1863.89050	         8.26957e+57
          1864.69680	         7.34237e+57
          1865.50310	         6.63742e+57
          1866.30940	         6.31402e+57
          1867.11570	         6.21411e+57
          1867.92200	         7.30584e+57
          1868.72830	         6.80665e+57
          1869.53460	         6.25603e+57
          1870.34090	         7.40196e+57
          1871.14720	         8.04492e+57
          1871.95350	         7.00224e+57
          1872.75980	         6.78207e+57
          1873.56610	         7.04666e+57
          1874.37240	         5.82289e+57
          1875.17870	         5.46714e+57
          1875.98500	         7.15867e+57
          1876.79130	         7.89048e+57
          1877.59760	         7.15779e+57
          1878.40390	         6.43978e+57
          1879.21020	         5.98159e+57
          1880.01650	         7.86009e+57
          1880.82280	         9.47070e+57
          1881.62910	         9.89244e+57
          1882.43540	         9.62422e+57
          1883.24170	         8.59846e+57
          1884.04800	         7.38340e+57
          1884.85430	         7.93831e+57
          1885.66060	         7.65521e+57
          1886.46690	         7.56457e+57
          1887.27320	         7.56426e+57
          1888.07950	         5.74598e+57
          1888.88580	         6.25326e+57
          1889.69210	         8.44093e+57
          1890.49840	         7.47811e+57
          1891.30470	         7.21042e+57
          1892.11100	         8.06542e+57
          1892.91730	         8.07307e+57
          1893.72360	         8.56462e+57
          1894.52990	         6.48817e+57
          1895.33620	         7.37393e+57
          1896.14250	         6.58429e+57
          1896.94880	         6.30514e+57
          1897.75510	         4.62145e+57
          1898.56140	         5.27902e+57
          1899.36770	         7.91193e+57
          1900.17400	         7.52957e+57
          1900.98030	         6.16607e+57
          1901.78660	         7.36018e+57
          1902.59290	         6.97742e+57
          1903.39920	         8.68251e+57
          1904.20550	         8.89369e+57
          1905.01180	         8.67568e+57
          1905.81810	         9.49281e+57
          1906.62440	         1.15853e+58
          1907.43070	         1.48997e+58
          1908.23700	         1.52644e+58
          1909.04330	         1.33680e+58
          1909.84960	         1.17145e+58
          1910.65590	         1.00258e+58
          1911.46220	         9.49865e+57
          1912.26850	         7.26676e+57
          1913.07480	         5.71520e+57
          1913.88110	         5.89290e+57
          1914.68740	         6.26259e+57
          1915.49370	         5.51957e+57
          1916.30000	         5.94405e+57
          1917.10630	         7.45543e+57
          1917.91260	         6.74571e+57
          1918.71890	         6.15724e+57
          1919.52520	         5.72839e+57
          1920.33150	         5.64582e+57
          1921.13780	         6.67368e+57
          1921.94410	         7.99575e+57
          1922.75040	         7.55379e+57
          1923.55670	         8.45994e+57
          1924.36300	         8.03463e+57
          1925.16930	         6.45957e+57
          1925.97560	         5.34032e+57
          1926.78190	         4.67370e+57
          1927.58820	         5.94323e+57
          1928.39450	         6.30703e+57
          1929.20080	         5.18137e+57
          1930.00710	         6.94562e+57
          1930.81340	         7.85086e+57
          1931.61970	         7.12962e+57
          1932.42600	         7.38454e+57
          1933.23230	         8.05202e+57
          1934.03860	         6.16806e+57
          1934.84490	         6.48201e+57
          1935.65120	         8.29802e+57
          1936.45750	         9.24574e+57
          1937.26380	         7.42995e+57
          1938.07010	         7.28282e+57
          1938.87640	         7.70350e+57
          1939.68270	         6.85367e+57
          1940.48900	         6.20457e+57
          1941.29530	         8.26050e+57
          1942.10160	         7.80962e+57
          1942.90790	         5.83276e+57
          1943.71420	         5.21068e+57
          1944.52050	         5.23932e+57
          1945.32680	         4.74320e+57
          1946.13310	         6.54115e+57
          1946.93940	         8.11309e+57
          1947.74570	         7.91275e+57
          1948.55200	         6.58888e+57
          1949.35830	         5.51095e+57
          1950.16460	         4.60866e+57
          1950.97090	         5.92722e+57
          1951.77720	         7.99990e+57
          1952.58350	         8.37755e+57
          1953.38980	         5.36576e+57
          1954.19610	         3.91922e+57
          1955.00240	         5.51092e+57
          1955.80870	         5.58512e+57
          1956.61500	         6.37477e+57
          1957.42130	         6.84774e+57
          1958.22760	         6.63095e+57
          1959.03390	         7.26623e+57
          1959.84020	         7.41265e+57
          1960.64650	         7.14421e+57
          1961.45280	         6.90684e+57
          1962.25910	         7.22160e+57
          1963.06540	         5.83573e+57
          1963.87170	         5.74790e+57
          1964.67800	         6.92758e+57
          1965.48430	         6.63392e+57
          1966.29060	         5.26173e+57
          1967.09690	         7.10055e+57
          1967.90320	         7.27018e+57
          1968.70950	         6.31656e+57
          1969.51580	         6.95784e+57
          1970.32210	         7.49083e+57
          1971.12840	         6.58161e+57
          1971.93470	         4.69855e+57
          1972.74100	         5.62219e+57
          1973.54730	         6.86122e+57
          1974.35360	         6.37685e+57
          1975.15990	         7.16318e+57
          1975.96620	         7.13175e+57
          1976.77250	         7.83213e+57
          1977.57880	         7.02454e+57
          1978.38510	         6.55953e+57
          1979.19140	         7.42451e+57
          1979.99770	         7.69752e+57
          1980.80400	         7.28521e+57
          1981.61030	         6.58678e+57
          1982.41660	         5.16282e+57
          1983.22290	         5.00719e+57
          1984.02920	         4.85516e+57
          1984.83550	         5.41843e+57
          1985.64180	         6.32310e+57
          1986.44810	         5.63057e+57
          1987.25440	         5.16414e+57
          1988.06070	         6.04962e+57
          1988.86700	         7.44752e+57
          1989.67330	         6.32837e+57
          1990.47960	         6.20662e+57
          1991.28590	         6.84508e+57
          1992.09220	         5.35928e+57
          1992.89850	         5.42014e+57
          1993.70480	         5.83243e+57
          1994.51110	         5.18017e+57
          1995.31740	         4.77160e+57
          1996.12370	         5.31553e+57
          1996.93000	         6.71352e+57
          1997.73630	         7.80099e+57
          1998.54260	         8.55241e+57
          1999.34890	         6.39644e+57
          2000.15520	         6.50259e+57
          2000.96150	         7.20032e+57
          2001.76780	         5.02231e+57
          2002.57410	         4.75444e+57
          2003.38040	         6.11542e+57
          2004.18670	         6.45805e+57
          2004.99300	         6.03097e+57
          2005.79930	         6.98993e+57
          2006.60560	         6.99256e+57
          2007.41190	         6.32337e+57
          2008.21820	         5.75921e+57
          2009.02450	         5.48497e+57
          2009.83080	         5.98739e+57
          2010.63710	         7.09875e+57
          2011.44340	         7.53479e+57
          2012.24970	         7.97825e+57
          2013.05600	         6.90511e+57
          2013.86230	         5.44006e+57
          2014.66860	         5.60379e+57
          2015.47490	         5.98941e+57
          2016.28120	         6.35318e+57
          2017.08750	         5.66549e+57
          2017.89380	         5.90122e+57
          2018.70010	         6.38639e+57
          2019.50640	         5.66515e+57
          2020.31270	         6.76262e+57
          2021.11900	         6.53989e+57
          2021.92530	         6.76703e+57
          2022.73160	         6.69340e+57
          2023.53790	         6.99996e+57
          2024.34420	         6.37835e+57
          2025.15050	         5.15400e+57
          2025.95680	         4.78489e+57
          2026.76310	         5.61097e+57
          2027.56940	         5.64618e+57
          2028.37570	         6.42441e+57
          2029.18200	         5.80885e+57
          2029.98830	         6.14136e+57
          2030.79460	         6.91623e+57
          2031.60090	         6.67331e+57
          2032.40720	         5.61476e+57
          2033.21350	         4.45972e+57
          2034.01980	         4.52051e+57
          2034.82610	         4.68291e+57
          2035.63240	         5.38208e+57
          2036.43870	         5.72577e+57
          2037.24500	         5.64736e+57
          2038.05130	         5.70583e+57
          2038.85760	         5.83683e+57
          2039.66390	         5.66236e+57
          2040.47020	         5.52460e+57
          2041.27650	         5.44363e+57
          2042.08280	         3.44037e+57
          2042.88910	         4.60287e+57
          2043.69540	         6.59417e+57
          2044.50170	         6.83848e+57
          2045.30800	         5.64783e+57
          2046.11430	         5.17710e+57
          2046.92060	         6.19850e+57
          2047.72690	         7.53309e+57
          2048.53320	         5.59047e+57
          2049.33950	         5.25852e+57
          2050.14580	         6.41120e+57
          2050.95210	         4.90424e+57
          2051.75840	         6.82776e+57
          2052.56470	         5.11895e+57
          2053.37100	         3.41819e+57
          2054.17730	         4.75718e+57
          2054.98360	         5.11544e+57
          2055.78990	         3.74437e+57
          2056.59620	         2.30733e+57
          2057.40250	         5.65228e+57
          2058.20880	         6.80676e+57
          2059.01510	         7.38436e+57
          2059.82140	         7.34280e+57
          2060.62770	         1.07355e+58
          2061.43400	         1.74758e+58
          2062.24030	         1.30718e+58
          2063.04660	         3.42335e+57
          2063.85290	         8.97220e+56
          2064.65920	        -3.70051e+57
          2065.46550	        -8.80911e+57
          2066.27180	        -7.95311e+57
          2067.07810	         3.25479e+57
          2067.88440	         5.32848e+57
          2068.69070	         5.94457e+57
          2069.49700	         5.56305e+57
          2070.30330	         5.40592e+57
          2071.10960	         6.79268e+57
          2071.91590	         7.55873e+57
          2072.72220	         4.72508e+57
          2073.52850	         5.63349e+57
          2074.33480	         5.37423e+57
          2075.14110	         5.94865e+57
          2075.94740	         5.98596e+57
          2076.75370	         4.51586e+57
          2077.56000	         5.23548e+57
          2078.36630	         6.69376e+57
          2079.17260	         5.62839e+57
          2079.97890	         6.05812e+57
          2080.78520	         6.60480e+57
          2081.59150	         5.07241e+57
          2082.39780	         4.72980e+57
          2083.20410	         3.27589e+57
          2084.01040	         2.50435e+57
          2084.81670	         2.53935e+57
          2085.62300	         4.60492e+57
          2086.42930	         3.71016e+57
          2087.23560	         3.57198e+57
          2088.04190	         4.44711e+57
          2088.84820	         3.72308e+57
          2089.65450	         2.18225e+57
          2090.46080	         1.41958e+57
          2091.26710	         1.94398e+57
          2092.07340	         2.03691e+57
          2092.87970	         1.53089e+57
          2093.68600	         1.49257e+56
          2094.49230	         2.94821e+57
          2095.29860	         5.03137e+57
          2096.10490	         3.96611e+57
          2096.91120	         1.69488e+57
          2097.71750	         2.11048e+57
          2098.52380	         1.87383e+57
          2099.33010	         1.40770e+57
          2100.13640	         3.74927e+56
          2100.94270	         1.70634e+57
          2101.74900	         3.78219e+57
          2102.55530	         1.53579e+57
          2103.36160	         2.85347e+56
          2104.16790	         3.85869e+57
          2104.97420	         2.42448e+57
          2105.78050	         5.12394e+56
          2106.58680	        -1.98881e+56
          2107.39310	        -2.74430e+56
          2108.19940	         3.19639e+57
          2109.00570	        -8.64033e+56
          2109.81200	         7.46491e+55
          2110.61830	         4.02497e+57
          2111.42460	         2.22353e+57
          2112.23090	         1.03288e+56
          2113.03720	         5.95521e+56
          2113.84350	         5.90088e+56
          2114.64980	         1.67497e+57
          2115.45610	         7.18506e+56
          2116.26240	         1.20844e+57
          2117.06870	         8.19489e+56
          2117.87500	        -4.74712e+56
          2118.68130	         8.09105e+56
          2119.48760	         3.55592e+57
          2120.29390	         2.77738e+57
          2121.10020	        -2.89085e+57
          2121.90650	        -3.89920e+57
          2122.71280	         3.46509e+57
          2123.51910	         2.60502e+57
          2124.32540	         2.42509e+57
          2125.13170	         4.10630e+57
          2125.93800	         2.17845e+57
          2126.74430	        -2.31756e+57
          2127.55060	        -1.86051e+56
          2128.35690	         3.31749e+57
          2129.16320	         1.18366e+57
          2129.96950	        -6.02916e+57
          2130.77580	        -1.40182e+57
          2131.58210	         6.75485e+57
          2132.38840	        -4.58305e+56
          2133.19470	         1.47158e+57
          2134.00100	         2.78913e+57
          2134.80730	        -6.49405e+57
          2135.61360	        -3.94364e+57
          2136.41990	         5.54753e+57
          2137.22620	         8.13502e+57
          2138.03250	         1.87621e+57
          2138.83880	        -4.71338e+57
          2139.64510	         1.39515e+57
          2140.45140	        -7.37812e+56
          2141.25770	        -8.92720e+57
          2142.06400	        -1.79245e+57
          2142.87030	         1.39962e+57
          2143.67660	         3.46030e+57
          2144.48290	        -8.45969e+57
          2145.28920	        -1.12059e+58
          2146.09550	        -1.21885e+58
          2146.90180	        -1.28222e+58
          2147.70810	        -1.48405e+58
          2148.51440	        -2.88055e+57
          2149.32070	        -7.05223e+57
          2150.12700	        -1.36299e+58
          2150.93330	         2.67434e+57
          2151.73960	         8.99747e+54
          2152.54590	        -3.85198e+57
          2153.35220	         2.30020e+57
          2154.15850	        -8.56099e+57
          2154.96480	        -3.36770e+57
          2155.77110	        -6.74685e+57
          2156.57740	        -1.84794e+58
          2157.38370	        -4.26534e+57
          2158.19000	         1.07056e+57
          2158.99630	        -1.28019e+57
          2159.80260	        -1.40857e+58
          2160.60890	        -6.75256e+57
          2161.41520	        -7.10634e+56
          2162.22150	        -1.86691e+57
          2163.02780	        -5.28311e+57
          2163.83410	        -6.89918e+57
          2164.64040	        -1.02690e+58
          2165.44670	        -1.43148e+58
          2166.25300	        -1.49034e+58
          2167.05930	        -1.78867e+57
          2167.86560	        -1.28582e+58
          2168.67190	        -1.07277e+58
          2169.47820	        -1.20720e+58
          2170.28450	         7.58192e+55
          2171.09080	         2.52108e+57
          2171.89710	         7.62862e+56
          2172.70340	        -2.95436e+57
          2173.50970	        -7.64587e+57
          2174.31600	        -7.74500e+57
          2175.12230	        -5.13315e+57
          2175.92860	        -4.08851e+57
          2176.73490	        -4.10895e+57
          2177.54120	        -1.97188e+57
          2178.34750	         9.80280e+55
          2179.15380	                 nan
          2179.96010	                 nan
          2180.76640	                 nan
          2181.57270	                 nan
          2182.37900	                 nan
          2183.18530	                 nan
          2183.99160	                 nan
          2184.79790	                 nan
          2185.60420	                 nan
          2186.41050	                 nan
          2187.21680	                 nan
          2188.02310	                 nan
          2188.82940	                 nan
          2189.63570	                 nan
          2190.44200	                 nan
          2191.24830	                 nan
          2192.05460	                 nan
          2192.86090	                 nan
          2193.66720	                 nan
          2194.47350	                 nan
          2195.27980	                 nan
          2196.08610	                 nan
          2196.89240	                 nan
          2197.69870	                 nan
          2198.50500	                 nan
          2199.31130	                 nan
          2200.11760	                 nan
          2200.92390	                 nan
          2201.73020	                 nan
          2202.53650	                 nan
          2203.34280	                 nan
          2204.14910	                 nan
          2204.95540	                 nan
          2205.76170	                 nan
          2206.56800	                 nan
          2207.37430	                 nan
          2208.18060	                 nan
          2208.98690	                 nan
          2209.79320	                 nan
          2210.59950	                 nan
          2211.40580	                 nan
          2212.21210	                 nan
          2213.01840	                 nan
          2213.82470	                 nan
          2214.63100	                 nan
          2215.43730	         0.00000e+00
