#sample_276_stacked_spectrum_rest_UV-bands_median_H-alpha_noDC.txt
#median Lum: 1.67559e+42
#Rest-frame wavelength (A) | Luminosity (erg/s/A)
#
          1110.00000	         0.00000e+00
          1110.80630	         4.47676e+59
          1111.61260	         2.33947e+59
          1112.41890	         2.19438e+59
          1113.22520	         2.20761e+59
          1114.03150	        -1.59174e+59
          1114.83780	        -7.61606e+57
          1115.64410	        -1.36779e+58
          1116.45040	         2.51824e+59
          1117.25670	         1.99811e+59
          1118.06300	         1.20430e+59
          1118.86930	         9.73430e+57
          1119.67560	         1.55700e+59
          1120.48190	        -3.84364e+58
          1121.28820	        -1.52131e+59
          1122.09450	         3.30760e+56
          1122.90080	         2.02882e+58
          1123.70710	         2.94814e+58
          1124.51340	         1.18893e+59
          1125.31970	        -1.28258e+58
          1126.12600	        -2.82753e+58
          1126.93230	         1.06036e+58
          1127.73860	        -2.23572e+58
          1128.54490	         7.37910e+56
          1129.35120	         3.44236e+58
          1130.15750	        -9.56146e+57
          1130.96380	        -5.24859e+58
          1131.77010	         2.00272e+58
          1132.57640	        -2.28121e+58
          1133.38270	         3.77264e+58
          1134.18900	         2.89593e+58
          1134.99530	        -5.96410e+57
          1135.80160	         2.12746e+58
          1136.60790	         2.19260e+58
          1137.41420	        -3.66546e+57
          1138.22050	         3.20163e+58
          1139.02680	         7.24137e+57
          1139.83310	         2.68624e+58
          1140.63940	         1.90608e+58
          1141.44570	        -6.26671e+57
          1142.25200	        -1.33744e+58
          1143.05830	         8.73176e+57
          1143.86460	         4.83860e+58
          1144.67090	         1.90844e+58
          1145.47720	         1.17016e+58
          1146.28350	         9.95462e+57
          1147.08980	         9.45965e+57
          1147.89610	         1.91246e+58
          1148.70240	         2.86546e+58
          1149.50870	         2.07039e+58
          1150.31500	         6.55769e+57
          1151.12130	         5.43172e+57
          1151.92760	         1.42350e+58
          1152.73390	        -1.43050e+57
          1153.54020	        -4.54987e+57
          1154.34650	         2.18065e+58
          1155.15280	         2.13113e+58
          1155.95910	         1.04442e+58
          1156.76540	         3.84920e+57
          1157.57170	        -2.27564e+57
          1158.37800	        -6.09263e+57
          1159.18430	        -4.35877e+57
          1159.99060	         1.07198e+58
          1160.79690	         9.43991e+57
          1161.60320	         1.70352e+58
          1162.40950	         1.75625e+58
          1163.21580	         1.16548e+58
          1164.02210	         1.76689e+58
          1164.82840	         2.27768e+57
          1165.63470	         1.89540e+58
          1166.44100	         2.32707e+58
          1167.24730	         1.59580e+58
          1168.05360	         5.13543e+57
          1168.85990	         1.09029e+58
          1169.66620	         7.29383e+57
          1170.47250	         1.30957e+58
          1171.27880	         2.06512e+58
          1172.08510	         2.22574e+58
          1172.89140	         1.91501e+58
          1173.69770	         5.46608e+57
          1174.50400	         1.08522e+58
          1175.31030	         1.81079e+58
          1176.11660	         1.49679e+58
          1176.92290	         2.01318e+58
          1177.72920	         1.40252e+58
          1178.53550	         7.48351e+57
          1179.34180	        -8.52330e+56
          1180.14810	         5.75598e+57
          1180.95440	         6.90754e+57
          1181.76070	         5.91385e+57
          1182.56700	         1.18706e+58
          1183.37330	         6.54386e+57
          1184.17960	         7.56011e+57
          1184.98590	         1.12633e+58
          1185.79220	         8.31886e+57
          1186.59850	         1.10923e+58
          1187.40480	         9.64643e+57
          1188.21110	         1.24491e+58
          1189.01740	         2.14483e+57
          1189.82370	         1.07150e+58
          1190.63000	         1.64496e+58
          1191.43630	         1.75847e+58
          1192.24260	         1.42786e+58
          1193.04890	         1.34150e+58
          1193.85520	         1.00368e+58
          1194.66150	         7.12960e+57
          1195.46780	         1.45990e+58
          1196.27410	         1.46304e+58
          1197.08040	         6.90009e+57
          1197.88670	         1.17714e+58
          1198.69300	         1.25485e+58
          1199.49930	         1.82075e+58
          1200.30560	         1.27584e+58
          1201.11190	         1.17468e+58
          1201.91820	         1.20206e+58
          1202.72450	         6.87149e+57
          1203.53080	         1.19402e+58
          1204.33710	         9.66252e+57
          1205.14340	         1.00798e+58
          1205.94970	         5.76781e+57
          1206.75600	         6.28379e+57
          1207.56230	         6.20846e+57
          1208.36860	         1.07650e+58
          1209.17490	         8.77639e+57
          1209.98120	         7.65669e+57
          1210.78750	         7.34994e+57
          1211.59380	         1.10119e+58
          1212.40010	         1.72096e+58
          1213.20640	         1.92332e+58
          1214.01270	         1.90235e+58
          1214.81900	         2.28463e+58
          1215.62530	         4.48941e+58
          1216.43160	         9.02241e+58
          1217.23790	         1.48218e+59
          1218.04420	         1.18431e+59
          1218.85050	         8.63114e+58
          1219.65680	         5.59089e+58
          1220.46310	         3.24845e+58
          1221.26940	         2.28576e+58
          1222.07570	         1.43927e+58
          1222.88200	         8.81130e+57
          1223.68830	         1.05536e+58
          1224.49460	         8.75156e+57
          1225.30090	         7.57613e+57
          1226.10720	         1.01309e+58
          1226.91350	         9.97925e+57
          1227.71980	         9.34609e+57
          1228.52610	         1.26000e+58
          1229.33240	         1.20667e+58
          1230.13870	         1.17934e+58
          1230.94500	         1.04861e+58
          1231.75130	         5.41365e+57
          1232.55760	         7.38422e+57
          1233.36390	         8.43474e+57
          1234.17020	         6.42851e+57
          1234.97650	         5.66293e+57
          1235.78280	         7.31846e+57
          1236.58910	         7.25883e+57
          1237.39540	         1.10020e+58
          1238.20170	         1.27565e+58
          1239.00800	         1.52660e+58
          1239.81430	         1.69418e+58
          1240.62060	         1.17092e+58
          1241.42690	         9.46890e+57
          1242.23320	         1.04160e+58
          1243.03950	         9.77112e+57
          1243.84580	         8.66818e+57
          1244.65210	         1.29663e+58
          1245.45840	         1.15109e+58
          1246.26470	         6.35390e+57
          1247.07100	         7.28305e+57
          1247.87730	         7.25397e+57
          1248.68360	         5.54622e+57
          1249.48990	         5.73109e+57
          1250.29620	         1.06382e+58
          1251.10250	         1.16001e+58
          1251.90880	         7.19735e+57
          1252.71510	         5.45631e+57
          1253.52140	         5.44100e+57
          1254.32770	         9.69955e+57
          1255.13400	         1.33240e+58
          1255.94030	         1.25570e+58
          1256.74660	         1.00913e+58
          1257.55290	         9.61549e+57
          1258.35920	         9.47822e+57
          1259.16550	         8.22671e+57
          1259.97180	         5.31713e+57
          1260.77810	         8.47901e+57
          1261.58440	         1.03944e+58
          1262.39070	         8.03336e+57
          1263.19700	         8.19033e+57
          1264.00330	         1.02410e+58
          1264.80960	         1.04943e+58
          1265.61590	         1.07269e+58
          1266.42220	         1.29552e+58
          1267.22850	         1.16493e+58
          1268.03480	         1.37755e+58
          1268.84110	         1.50293e+58
          1269.64740	         1.43514e+58
          1270.45370	         1.30408e+58
          1271.26000	         1.05277e+58
          1272.06630	         1.20701e+58
          1272.87260	         1.35552e+58
          1273.67890	         1.25337e+58
          1274.48520	         1.08939e+58
          1275.29150	         1.13844e+58
          1276.09780	         1.02236e+58
          1276.90410	         1.40371e+58
          1277.71040	         1.28311e+58
          1278.51670	         1.23359e+58
          1279.32300	         1.38238e+58
          1280.12930	         1.20111e+58
          1280.93560	         1.09288e+58
          1281.74190	         1.16767e+58
          1282.54820	         1.35995e+58
          1283.35450	         1.11331e+58
          1284.16080	         1.02410e+58
          1284.96710	         1.29589e+58
          1285.77340	         1.24849e+58
          1286.57970	         1.30096e+58
          1287.38600	         1.34943e+58
          1288.19230	         1.53258e+58
          1288.99860	         1.57098e+58
          1289.80490	         1.38845e+58
          1290.61120	         1.48679e+58
          1291.41750	         1.52304e+58
          1292.22380	         1.15111e+58
          1293.03010	         1.08044e+58
          1293.83640	         1.24436e+58
          1294.64270	         8.58975e+57
          1295.44900	         6.04137e+57
          1296.25530	         7.69911e+57
          1297.06160	         1.05657e+58
          1297.86790	         1.24933e+58
          1298.67420	         1.13251e+58
          1299.48050	         1.03406e+58
          1300.28680	         1.10016e+58
          1301.09310	         9.32999e+57
          1301.89940	         4.66745e+57
          1302.70570	         6.16700e+57
          1303.51200	         8.22412e+57
          1304.31830	         9.48591e+57
          1305.12460	         1.03809e+58
          1305.93090	         1.14523e+58
          1306.73720	         1.29498e+58
          1307.54350	         1.47537e+58
          1308.34980	         1.64422e+58
          1309.15610	         1.57138e+58
          1309.96240	         1.26700e+58
          1310.76870	         1.05654e+58
          1311.57500	         1.29416e+58
          1312.38130	         1.31646e+58
          1313.18760	         1.53588e+58
          1313.99390	         1.64563e+58
          1314.80020	         1.66491e+58
          1315.60650	         1.48896e+58
          1316.41280	         1.32075e+58
          1317.21910	         1.16515e+58
          1318.02540	         1.14850e+58
          1318.83170	         1.24594e+58
          1319.63800	         1.25929e+58
          1320.44430	         1.07826e+58
          1321.25060	         1.15442e+58
          1322.05690	         1.15216e+58
          1322.86320	         1.10203e+58
          1323.66950	         1.04900e+58
          1324.47580	         8.77400e+57
          1325.28210	         9.50408e+57
          1326.08840	         1.17888e+58
          1326.89470	         1.23688e+58
          1327.70100	         9.94632e+57
          1328.50730	         8.30564e+57
          1329.31360	         9.84732e+57
          1330.11990	         1.06802e+58
          1330.92620	         1.02455e+58
          1331.73250	         1.08898e+58
          1332.53880	         1.06296e+58
          1333.34510	         9.13356e+57
          1334.15140	         9.55638e+57
          1334.95770	         1.04434e+58
          1335.76400	         1.06257e+58
          1336.57030	         1.10080e+58
          1337.37660	         1.10570e+58
          1338.18290	         1.02060e+58
          1338.98920	         1.15602e+58
          1339.79550	         1.22617e+58
          1340.60180	         1.19751e+58
          1341.40810	         1.28702e+58
          1342.21440	         1.25981e+58
          1343.02070	         1.32565e+58
          1343.82700	         1.28630e+58
          1344.63330	         1.34548e+58
          1345.43960	         1.35614e+58
          1346.24590	         1.07748e+58
          1347.05220	         1.18305e+58
          1347.85850	         1.11683e+58
          1348.66480	         1.27797e+58
          1349.47110	         1.33148e+58
          1350.27740	         1.11542e+58
          1351.08370	         1.15141e+58
          1351.89000	         1.11373e+58
          1352.69630	         9.33912e+57
          1353.50260	         1.06098e+58
          1354.30890	         1.21503e+58
          1355.11520	         1.12882e+58
          1355.92150	         1.01352e+58
          1356.72780	         1.08412e+58
          1357.53410	         1.06320e+58
          1358.34040	         1.10728e+58
          1359.14670	         9.53971e+57
          1359.95300	         1.03395e+58
          1360.75930	         1.03833e+58
          1361.56560	         1.00664e+58
          1362.37190	         1.11437e+58
          1363.17820	         1.21396e+58
          1363.98450	         1.24057e+58
          1364.79080	         1.15735e+58
          1365.59710	         1.36170e+58
          1366.40340	         1.30272e+58
          1367.20970	         9.51218e+57
          1368.01600	         8.09196e+57
          1368.82230	         8.55468e+57
          1369.62860	         9.81982e+57
          1370.43490	         8.88173e+57
          1371.24120	         1.07335e+58
          1372.04750	         1.05434e+58
          1372.85380	         1.14596e+58
          1373.66010	         1.06830e+58
          1374.46640	         1.03165e+58
          1375.27270	         1.01604e+58
          1376.07900	         9.20399e+57
          1376.88530	         8.14521e+57
          1377.69160	         8.05487e+57
          1378.49790	         8.03620e+57
          1379.30420	         7.98873e+57
          1380.11050	         9.71775e+57
          1380.91680	         9.35940e+57
          1381.72310	         8.22974e+57
          1382.52940	         6.67090e+57
          1383.33570	         6.22201e+57
          1384.14200	         9.96923e+57
          1384.94830	         9.82181e+57
          1385.75460	         9.75744e+57
          1386.56090	         1.19788e+58
          1387.36720	         1.12925e+58
          1388.17350	         1.23283e+58
          1388.97980	         1.14689e+58
          1389.78610	         1.00954e+58
          1390.59240	         6.69233e+57
          1391.39870	         5.59186e+57
          1392.20500	         7.48539e+57
          1393.01130	         7.34079e+57
          1393.81760	         6.09251e+57
          1394.62390	         6.08806e+57
          1395.43020	         4.97441e+57
          1396.23650	         4.76239e+57
          1397.04280	         7.31052e+57
          1397.84910	         1.02126e+58
          1398.65540	         1.05428e+58
          1399.46170	         1.00010e+58
          1400.26800	         8.17474e+57
          1401.07430	         7.24122e+57
          1401.88060	         8.32291e+57
          1402.68690	         9.60573e+57
          1403.49320	         9.13765e+57
          1404.29950	         8.34760e+57
          1405.10580	         1.01974e+58
          1405.91210	         1.19552e+58
          1406.71840	         1.21761e+58
          1407.52470	         1.00986e+58
          1408.33100	         9.89077e+57
          1409.13730	         1.14209e+58
          1409.94360	         1.14656e+58
          1410.74990	         1.19205e+58
          1411.55620	         1.05650e+58
          1412.36250	         8.67128e+57
          1413.16880	         8.66869e+57
          1413.97510	         9.30665e+57
          1414.78140	         1.05772e+58
          1415.58770	         1.16685e+58
          1416.39400	         1.17633e+58
          1417.20030	         1.09708e+58
          1418.00660	         1.09471e+58
          1418.81290	         1.03173e+58
          1419.61920	         1.09610e+58
          1420.42550	         1.35960e+58
          1421.23180	         1.41359e+58
          1422.03810	         1.22111e+58
          1422.84440	         1.05267e+58
          1423.65070	         1.22219e+58
          1424.45700	         1.04407e+58
          1425.26330	         8.84496e+57
          1426.06960	         8.86946e+57
          1426.87590	         9.74589e+57
          1427.68220	         1.15463e+58
          1428.48850	         1.16187e+58
          1429.29480	         1.01413e+58
          1430.10110	         9.04178e+57
          1430.90740	         8.83713e+57
          1431.71370	         9.39144e+57
          1432.52000	         9.45534e+57
          1433.32630	         7.68995e+57
          1434.13260	         8.23675e+57
          1434.93890	         8.52466e+57
          1435.74520	         8.70498e+57
          1436.55150	         8.76773e+57
          1437.35780	         9.18855e+57
          1438.16410	         8.33412e+57
          1438.97040	         8.42496e+57
          1439.77670	         9.91738e+57
          1440.58300	         9.88193e+57
          1441.38930	         9.32871e+57
          1442.19560	         8.95417e+57
          1443.00190	         9.55325e+57
          1443.80820	         1.09376e+58
          1444.61450	         1.00583e+58
          1445.42080	         8.98084e+57
          1446.22710	         9.86588e+57
          1447.03340	         9.02492e+57
          1447.83970	         9.76884e+57
          1448.64600	         1.17319e+58
          1449.45230	         1.11527e+58
          1450.25860	         1.11362e+58
          1451.06490	         1.02309e+58
          1451.87120	         8.40351e+57
          1452.67750	         8.11257e+57
          1453.48380	         9.41947e+57
          1454.29010	         7.91898e+57
          1455.09640	         7.22009e+57
          1455.90270	         8.65020e+57
          1456.70900	         8.89485e+57
          1457.51530	         1.04668e+58
          1458.32160	         1.25362e+58
          1459.12790	         1.23630e+58
          1459.93420	         1.11086e+58
          1460.74050	         9.18955e+57
          1461.54680	         8.51755e+57
          1462.35310	         8.14208e+57
          1463.15940	         9.05161e+57
          1463.96570	         1.02585e+58
          1464.77200	         1.11561e+58
          1465.57830	         1.01096e+58
          1466.38460	         9.43200e+57
          1467.19090	         8.76246e+57
          1467.99720	         8.87662e+57
          1468.80350	         8.92980e+57
          1469.60980	         9.27403e+57
          1470.41610	         9.65764e+57
          1471.22240	         9.25818e+57
          1472.02870	         1.04406e+58
          1472.83500	         9.40367e+57
          1473.64130	         8.58408e+57
          1474.44760	         9.11978e+57
          1475.25390	         1.01920e+58
          1476.06020	         9.39664e+57
          1476.86650	         9.22556e+57
          1477.67280	         8.37050e+57
          1478.47910	         6.11086e+57
          1479.28540	         6.18614e+57
          1480.09170	         8.26268e+57
          1480.89800	         8.31976e+57
          1481.70430	         8.84536e+57
          1482.51060	         8.70656e+57
          1483.31690	         7.93740e+57
          1484.12320	         6.04804e+57
          1484.92950	         7.07485e+57
          1485.73580	         8.58461e+57
          1486.54210	         9.50187e+57
          1487.34840	         9.40711e+57
          1488.15470	         8.17210e+57
          1488.96100	         7.65970e+57
          1489.76730	         9.41687e+57
          1490.57360	         9.07833e+57
          1491.37990	         8.41721e+57
          1492.18620	         7.98193e+57
          1492.99250	         7.81898e+57
          1493.79880	         8.66279e+57
          1494.60510	         8.43363e+57
          1495.41140	         6.93292e+57
          1496.21770	         8.38359e+57
          1497.02400	         1.08198e+58
          1497.83030	         8.85109e+57
          1498.63660	         8.32217e+57
          1499.44290	         7.77934e+57
          1500.24920	         7.51460e+57
          1501.05550	         8.08517e+57
          1501.86180	         8.02270e+57
          1502.66810	         9.39905e+57
          1503.47440	         1.02351e+58
          1504.28070	         8.94709e+57
          1505.08700	         1.01506e+58
          1505.89330	         9.18511e+57
          1506.69960	         7.35244e+57
          1507.50590	         8.26292e+57
          1508.31220	         8.74586e+57
          1509.11850	         8.84712e+57
          1509.92480	         9.96584e+57
          1510.73110	         8.90038e+57
          1511.53740	         7.36500e+57
          1512.34370	         6.83830e+57
          1513.15000	         9.82336e+57
          1513.95630	         1.04654e+58
          1514.76260	         8.68571e+57
          1515.56890	         8.13951e+57
          1516.37520	         7.68798e+57
          1517.18150	         7.71658e+57
          1517.98780	         7.27450e+57
          1518.79410	         7.49227e+57
          1519.60040	         8.18999e+57
          1520.40670	         9.11446e+57
          1521.21300	         9.23129e+57
          1522.01930	         9.25006e+57
          1522.82560	         9.39655e+57
          1523.63190	         9.62688e+57
          1524.43820	         8.25682e+57
          1525.24450	         6.76605e+57
          1526.05080	         6.73639e+57
          1526.85710	         6.78632e+57
          1527.66340	         6.94882e+57
          1528.46970	         7.29889e+57
          1529.27600	         7.31697e+57
          1530.08230	         6.97729e+57
          1530.88860	         7.11315e+57
          1531.69490	         8.12720e+57
          1532.50120	         9.24471e+57
          1533.30750	         1.00951e+58
          1534.11380	         1.01964e+58
          1534.92010	         1.02021e+58
          1535.72640	         9.82907e+57
          1536.53270	         9.56593e+57
          1537.33900	         8.33793e+57
          1538.14530	         7.86755e+57
          1538.95160	         8.92365e+57
          1539.75790	         9.24338e+57
          1540.56420	         8.63963e+57
          1541.37050	         7.09115e+57
          1542.17680	         7.18856e+57
          1542.98310	         7.89413e+57
          1543.78940	         7.44414e+57
          1544.59570	         7.05615e+57
          1545.40200	         9.01977e+57
          1546.20830	         9.52149e+57
          1547.01460	         1.01347e+58
          1547.82090	         1.17778e+58
          1548.62720	         1.16766e+58
          1549.43350	         1.12953e+58
          1550.23980	         1.08872e+58
          1551.04610	         1.16101e+58
          1551.85240	         1.18979e+58
          1552.65870	         1.06355e+58
          1553.46500	         1.02254e+58
          1554.27130	         1.02062e+58
          1555.07760	         9.66905e+57
          1555.88390	         9.29485e+57
          1556.69020	         9.03595e+57
          1557.49650	         8.90462e+57
          1558.30280	         8.41972e+57
          1559.10910	         8.82431e+57
          1559.91540	         9.42980e+57
          1560.72170	         9.09494e+57
          1561.52800	         8.74289e+57
          1562.33430	         8.34282e+57
          1563.14060	         7.21722e+57
          1563.94690	         7.56716e+57
          1564.75320	         7.27760e+57
          1565.55950	         6.96733e+57
          1566.36580	         7.67773e+57
          1567.17210	         9.48746e+57
          1567.97840	         9.76937e+57
          1568.78470	         8.71721e+57
          1569.59100	         9.23301e+57
          1570.39730	         8.21283e+57
          1571.20360	         6.97933e+57
          1572.00990	         8.32123e+57
          1572.81620	         9.53298e+57
          1573.62250	         1.10641e+58
          1574.42880	         1.01319e+58
          1575.23510	         8.02405e+57
          1576.04140	         8.85926e+57
          1576.84770	         8.86488e+57
          1577.65400	         8.18498e+57
          1578.46030	         9.50706e+57
          1579.26660	         1.11886e+58
          1580.07290	         9.97909e+57
          1580.87920	         7.71118e+57
          1581.68550	         7.19571e+57
          1582.49180	         8.50160e+57
          1583.29810	         8.25219e+57
          1584.10440	         8.18239e+57
          1584.91070	         8.78195e+57
          1585.71700	         8.48793e+57
          1586.52330	         9.10156e+57
          1587.32960	         9.21845e+57
          1588.13590	         9.09005e+57
          1588.94220	         8.40283e+57
          1589.74850	         9.27901e+57
          1590.55480	         9.37364e+57
          1591.36110	         8.21587e+57
          1592.16740	         8.34243e+57
          1592.97370	         8.57402e+57
          1593.78000	         8.79159e+57
          1594.58630	         9.07578e+57
          1595.39260	         9.08270e+57
          1596.19890	         8.77831e+57
          1597.00520	         8.56389e+57
          1597.81150	         8.46250e+57
          1598.61780	         7.16113e+57
          1599.42410	         6.56781e+57
          1600.23040	         6.66503e+57
          1601.03670	         8.57067e+57
          1601.84300	         8.22313e+57
          1602.64930	         8.52184e+57
          1603.45560	         9.61169e+57
          1604.26190	         8.20299e+57
          1605.06820	         7.97751e+57
          1605.87450	         8.08735e+57
          1606.68080	         7.43731e+57
          1607.48710	         6.14641e+57
          1608.29340	         5.72413e+57
          1609.09970	         6.58864e+57
          1609.90600	         7.04072e+57
          1610.71230	         6.13628e+57
          1611.51860	         7.34653e+57
          1612.32490	         6.93756e+57
          1613.13120	         7.80402e+57
          1613.93750	         7.99491e+57
          1614.74380	         8.33123e+57
          1615.55010	         9.04567e+57
          1616.35640	         8.68430e+57
          1617.16270	         9.82583e+57
          1617.96900	         1.07047e+58
          1618.77530	         9.12422e+57
          1619.58160	         8.63399e+57
          1620.38790	         8.72854e+57
          1621.19420	         9.02941e+57
          1622.00050	         8.06877e+57
          1622.80680	         7.68055e+57
          1623.61310	         7.89418e+57
          1624.41940	         8.84586e+57
          1625.22570	         9.49485e+57
          1626.03200	         8.56399e+57
          1626.83830	         7.71738e+57
          1627.64460	         7.68610e+57
          1628.45090	         6.77087e+57
          1629.25720	         8.76245e+57
          1630.06350	         9.90045e+57
          1630.86980	         7.67321e+57
          1631.67610	         8.34338e+57
          1632.48240	         8.86041e+57
          1633.28870	         8.29469e+57
          1634.09500	         9.72041e+57
          1634.90130	         1.17840e+58
          1635.70760	         9.64017e+57
          1636.51390	         7.06441e+57
          1637.32020	         7.52375e+57
          1638.12650	         9.68777e+57
          1638.93280	         1.08537e+58
          1639.73910	         1.00937e+58
          1640.54540	         9.13168e+57
          1641.35170	         9.15434e+57
          1642.15800	         8.59401e+57
          1642.96430	         7.96327e+57
          1643.77060	         7.73995e+57
          1644.57690	         6.61560e+57
          1645.38320	         7.55906e+57
          1646.18950	         6.74064e+57
          1646.99580	         8.00566e+57
          1647.80210	         8.19664e+57
          1648.60840	         8.08863e+57
          1649.41470	         8.29971e+57
          1650.22100	         6.99820e+57
          1651.02730	         6.30931e+57
          1651.83360	         7.04465e+57
          1652.63990	         7.82869e+57
          1653.44620	         8.48529e+57
          1654.25250	         8.21358e+57
          1655.05880	         7.27598e+57
          1655.86510	         8.05709e+57
          1656.67140	         8.46164e+57
          1657.47770	         7.13772e+57
          1658.28400	         7.27130e+57
          1659.09030	         9.21781e+57
          1659.89660	         9.65684e+57
          1660.70290	         9.86010e+57
          1661.50920	         9.89670e+57
          1662.31550	         8.39954e+57
          1663.12180	         7.82697e+57
          1663.92810	         9.86070e+57
          1664.73440	         1.09614e+58
          1665.54070	         1.19907e+58
          1666.34700	         1.24406e+58
          1667.15330	         1.12706e+58
          1667.95960	         9.98129e+57
          1668.76590	         7.82030e+57
          1669.57220	         6.92723e+57
          1670.37850	         7.69888e+57
          1671.18480	         9.14013e+57
          1671.99110	         8.67406e+57
          1672.79740	         6.70106e+57
          1673.60370	         6.92419e+57
          1674.41000	         8.15098e+57
          1675.21630	         7.87046e+57
          1676.02260	         7.51978e+57
          1676.82890	         7.22135e+57
          1677.63520	         6.94302e+57
          1678.44150	         7.22806e+57
          1679.24780	         8.55324e+57
          1680.05410	         7.60929e+57
          1680.86040	         5.57461e+57
          1681.66670	         6.45033e+57
          1682.47300	         7.73467e+57
          1683.27930	         7.89848e+57
          1684.08560	         9.16233e+57
          1684.89190	         8.80097e+57
          1685.69820	         6.31384e+57
          1686.50450	         5.73251e+57
          1687.31080	         7.42372e+57
          1688.11710	         7.84444e+57
          1688.92340	         6.11554e+57
          1689.72970	         6.45689e+57
          1690.53600	         6.36073e+57
          1691.34230	         6.50506e+57
          1692.14860	         7.70152e+57
          1692.95490	         8.01206e+57
          1693.76120	         7.99822e+57
          1694.56750	         7.21584e+57
          1695.37380	         8.25606e+57
          1696.18010	         8.86060e+57
          1696.98640	         8.93946e+57
          1697.79270	         9.13557e+57
          1698.59900	         8.53502e+57
          1699.40530	         7.05692e+57
          1700.21160	         7.66130e+57
          1701.01790	         8.53527e+57
          1701.82420	         7.76250e+57
          1702.63050	         7.97770e+57
          1703.43680	         8.58009e+57
          1704.24310	         8.91584e+57
          1705.04940	         8.71041e+57
          1705.85570	         9.92888e+57
          1706.66200	         1.01356e+58
          1707.46830	         9.41190e+57
          1708.27460	         8.83451e+57
          1709.08090	         7.98631e+57
          1709.88720	         6.75497e+57
          1710.69350	         6.10220e+57
          1711.49980	         5.97630e+57
          1712.30610	         7.35204e+57
          1713.11240	         8.14281e+57
          1713.91870	         6.70748e+57
          1714.72500	         7.51778e+57
          1715.53130	         8.82120e+57
          1716.33760	         7.38110e+57
          1717.14390	         6.70554e+57
          1717.95020	         8.47467e+57
          1718.75650	         9.38657e+57
          1719.56280	         8.62824e+57
          1720.36910	         7.17761e+57
          1721.17540	         7.42506e+57
          1721.98170	         6.36171e+57
          1722.78800	         7.24821e+57
          1723.59430	         8.45226e+57
          1724.40060	         9.83776e+57
          1725.20690	         8.86043e+57
          1726.01320	         7.23373e+57
          1726.81950	         7.36963e+57
          1727.62580	         7.27151e+57
          1728.43210	         7.35301e+57
          1729.23840	         8.67007e+57
          1730.04470	         8.58453e+57
          1730.85100	         7.80005e+57
          1731.65730	         7.85048e+57
          1732.46360	         7.70418e+57
          1733.26990	         8.62079e+57
          1734.07620	         7.32818e+57
          1734.88250	         7.03687e+57
          1735.68880	         7.79558e+57
          1736.49510	         8.38639e+57
          1737.30140	         7.65857e+57
          1738.10770	         6.61099e+57
          1738.91400	         7.36089e+57
          1739.72030	         6.83470e+57
          1740.52660	         5.97369e+57
          1741.33290	         6.34857e+57
          1742.13920	         6.61231e+57
          1742.94550	         7.03202e+57
          1743.75180	         7.87216e+57
          1744.55810	         8.23469e+57
          1745.36440	         7.13431e+57
          1746.17070	         5.41781e+57
          1746.97700	         6.34780e+57
          1747.78330	         7.45925e+57
          1748.58960	         8.56271e+57
          1749.39590	         8.37292e+57
          1750.20220	         6.48273e+57
          1751.00850	         6.03186e+57
          1751.81480	         6.52609e+57
          1752.62110	         6.82019e+57
          1753.42740	         7.06202e+57
          1754.23370	         6.07652e+57
          1755.04000	         7.68756e+57
          1755.84630	         8.25149e+57
          1756.65260	         7.63096e+57
          1757.45890	         8.06018e+57
          1758.26520	         6.96962e+57
          1759.07150	         8.12166e+57
          1759.87780	         8.28406e+57
          1760.68410	         6.69708e+57
          1761.49040	         8.32569e+57
          1762.29670	         7.61552e+57
          1763.10300	         7.47837e+57
          1763.90930	         8.24957e+57
          1764.71560	         7.42929e+57
          1765.52190	         7.56289e+57
          1766.32820	         8.71840e+57
          1767.13450	         8.91992e+57
          1767.94080	         7.90619e+57
          1768.74710	         7.00485e+57
          1769.55340	         7.27051e+57
          1770.35970	         5.94517e+57
          1771.16600	         7.00525e+57
          1771.97230	         8.18995e+57
          1772.77860	         8.66481e+57
          1773.58490	         7.62482e+57
          1774.39120	         6.32732e+57
          1775.19750	         6.27981e+57
          1776.00380	         6.33601e+57
          1776.81010	         6.74063e+57
          1777.61640	         7.01054e+57
          1778.42270	         7.18471e+57
          1779.22900	         7.21296e+57
          1780.03530	         6.20197e+57
          1780.84160	         7.02208e+57
          1781.64790	         7.82252e+57
          1782.45420	         6.55633e+57
          1783.26050	         6.37610e+57
          1784.06680	         6.61125e+57
          1784.87310	         6.61374e+57
          1785.67940	         6.85968e+57
          1786.48570	         6.57144e+57
          1787.29200	         6.33055e+57
          1788.09830	         5.05752e+57
          1788.90460	         4.32818e+57
          1789.71090	         4.56119e+57
          1790.51720	         4.96811e+57
          1791.32350	         7.13424e+57
          1792.12980	         8.82674e+57
          1792.93610	         7.64831e+57
          1793.74240	         7.18112e+57
          1794.54870	         7.73349e+57
          1795.35500	         7.75783e+57
          1796.16130	         7.52870e+57
          1796.96760	         6.17695e+57
          1797.77390	         6.49456e+57
          1798.58020	         6.08289e+57
          1799.38650	         5.97904e+57
          1800.19280	         6.39033e+57
          1800.99910	         7.27086e+57
          1801.80540	         7.33825e+57
          1802.61170	         7.87372e+57
          1803.41800	         8.31580e+57
          1804.22430	         7.49241e+57
          1805.03060	         7.04076e+57
          1805.83690	         7.57982e+57
          1806.64320	         7.49222e+57
          1807.44950	         7.23010e+57
          1808.25580	         6.47718e+57
          1809.06210	         8.04060e+57
          1809.86840	         7.36284e+57
          1810.67470	         7.89420e+57
          1811.48100	         8.05409e+57
          1812.28730	         8.21476e+57
          1813.09360	         8.24638e+57
          1813.89990	         9.11074e+57
          1814.70620	         7.81673e+57
          1815.51250	         7.95191e+57
          1816.31880	         8.50330e+57
          1817.12510	         7.75190e+57
          1817.93140	         7.03567e+57
          1818.73770	         7.91725e+57
          1819.54400	         9.33706e+57
          1820.35030	         8.77521e+57
          1821.15660	         6.33763e+57
          1821.96290	         6.66464e+57
          1822.76920	         8.15206e+57
          1823.57550	         8.08782e+57
          1824.38180	         7.40448e+57
          1825.18810	         8.14053e+57
          1825.99440	         8.98203e+57
          1826.80070	         7.88644e+57
          1827.60700	         6.86000e+57
          1828.41330	         6.97483e+57
          1829.21960	         7.24962e+57
          1830.02590	         7.44864e+57
          1830.83220	         8.99387e+57
          1831.63850	         8.51477e+57
          1832.44480	         7.64359e+57
          1833.25110	         8.86123e+57
          1834.05740	         9.29860e+57
          1834.86370	         7.29741e+57
          1835.67000	         5.77142e+57
          1836.47630	         7.48811e+57
          1837.28260	         9.58794e+57
          1838.08890	         9.07122e+57
          1838.89520	         8.73538e+57
          1839.70150	         7.95195e+57
          1840.50780	         7.50389e+57
          1841.31410	         7.13203e+57
          1842.12040	         7.00654e+57
          1842.92670	         7.21102e+57
          1843.73300	         7.09678e+57
          1844.53930	         7.11308e+57
          1845.34560	         7.04303e+57
          1846.15190	         7.62933e+57
          1846.95820	         8.27111e+57
          1847.76450	         5.95716e+57
          1848.57080	         4.45531e+57
          1849.37710	         5.29824e+57
          1850.18340	         7.35962e+57
          1850.98970	         8.18414e+57
          1851.79600	         6.69024e+57
          1852.60230	         6.58857e+57
          1853.40860	         8.24826e+57
          1854.21490	         7.99869e+57
          1855.02120	         5.36791e+57
          1855.82750	         3.45694e+57
          1856.63380	         5.28331e+57
          1857.44010	         7.80083e+57
          1858.24640	         7.38197e+57
          1859.05270	         7.95410e+57
          1859.85900	         6.02644e+57
          1860.66530	         6.37382e+57
          1861.47160	         7.00447e+57
          1862.27790	         7.03460e+57
          1863.08420	         6.12623e+57
          1863.89050	         6.35963e+57
          1864.69680	         7.85320e+57
          1865.50310	         7.51672e+57
          1866.30940	         6.24421e+57
          1867.11570	         5.52455e+57
          1867.92200	         6.96315e+57
          1868.72830	         7.08768e+57
          1869.53460	         6.78444e+57
          1870.34090	         6.90200e+57
          1871.14720	         7.10413e+57
          1871.95350	         7.74935e+57
          1872.75980	         7.45873e+57
          1873.56610	         7.20228e+57
          1874.37240	         7.04919e+57
          1875.17870	         6.38387e+57
          1875.98500	         7.09214e+57
          1876.79130	         7.81662e+57
          1877.59760	         7.40620e+57
          1878.40390	         6.09577e+57
          1879.21020	         6.73039e+57
          1880.01650	         7.54582e+57
          1880.82280	         6.86067e+57
          1881.62910	         8.05032e+57
          1882.43540	         9.17136e+57
          1883.24170	         8.43771e+57
          1884.04800	         6.82907e+57
          1884.85430	         6.69577e+57
          1885.66060	         7.69895e+57
          1886.46690	         9.26837e+57
          1887.27320	         8.08323e+57
          1888.07950	         6.09301e+57
          1888.88580	         6.33865e+57
          1889.69210	         8.05916e+57
          1890.49840	         8.16452e+57
          1891.30470	         9.25291e+57
          1892.11100	         8.97264e+57
          1892.91730	         7.45141e+57
          1893.72360	         7.04879e+57
          1894.52990	         6.97306e+57
          1895.33620	         8.00838e+57
          1896.14250	         6.87070e+57
          1896.94880	         7.31576e+57
          1897.75510	         6.74710e+57
          1898.56140	         6.63947e+57
          1899.36770	         7.73616e+57
          1900.17400	         5.79708e+57
          1900.98030	         5.80511e+57
          1901.78660	         7.46264e+57
          1902.59290	         7.30708e+57
          1903.39920	         8.38479e+57
          1904.20550	         9.76131e+57
          1905.01180	         9.46555e+57
          1905.81810	         1.03583e+58
          1906.62440	         1.20283e+58
          1907.43070	         1.46134e+58
          1908.23700	         1.47528e+58
          1909.04330	         1.24049e+58
          1909.84960	         1.03286e+58
          1910.65590	         9.49601e+57
          1911.46220	         9.21221e+57
          1912.26850	         7.13043e+57
          1913.07480	         5.86330e+57
          1913.88110	         5.91866e+57
          1914.68740	         6.24105e+57
          1915.49370	         5.42833e+57
          1916.30000	         6.33042e+57
          1917.10630	         7.09663e+57
          1917.91260	         6.39931e+57
          1918.71890	         5.74666e+57
          1919.52520	         6.24013e+57
          1920.33150	         6.08176e+57
          1921.13780	         6.96734e+57
          1921.94410	         8.20413e+57
          1922.75040	         8.74243e+57
          1923.55670	         8.38947e+57
          1924.36300	         8.49710e+57
          1925.16930	         6.14615e+57
          1925.97560	         5.44123e+57
          1926.78190	         5.53775e+57
          1927.58820	         6.37960e+57
          1928.39450	         5.52977e+57
          1929.20080	         4.82639e+57
          1930.00710	         6.16711e+57
          1930.81340	         6.80065e+57
          1931.61970	         7.35010e+57
          1932.42600	         7.53624e+57
          1933.23230	         9.03948e+57
          1934.03860	         6.89357e+57
          1934.84490	         5.25869e+57
          1935.65120	         7.46585e+57
          1936.45750	         8.15765e+57
          1937.26380	         6.28610e+57
          1938.07010	         6.86323e+57
          1938.87640	         7.44727e+57
          1939.68270	         7.97175e+57
          1940.48900	         8.74548e+57
          1941.29530	         7.51000e+57
          1942.10160	         7.55042e+57
          1942.90790	         6.72366e+57
          1943.71420	         5.76427e+57
          1944.52050	         6.19096e+57
          1945.32680	         5.47221e+57
          1946.13310	         7.30808e+57
          1946.93940	         8.33160e+57
          1947.74570	         7.91634e+57
          1948.55200	         5.35077e+57
          1949.35830	         6.60582e+57
          1950.16460	         5.43873e+57
          1950.97090	         6.24620e+57
          1951.77720	         7.97294e+57
          1952.58350	         8.65622e+57
          1953.38980	         6.83222e+57
          1954.19610	         4.67724e+57
          1955.00240	         5.06924e+57
          1955.80870	         5.91974e+57
          1956.61500	         5.64677e+57
          1957.42130	         5.41756e+57
          1958.22760	         6.69099e+57
          1959.03390	         7.31254e+57
          1959.84020	         7.63494e+57
          1960.64650	         6.82520e+57
          1961.45280	         5.30343e+57
          1962.25910	         5.11890e+57
          1963.06540	         5.28841e+57
          1963.87170	         5.55540e+57
          1964.67800	         7.75741e+57
          1965.48430	         7.20105e+57
          1966.29060	         6.35340e+57
          1967.09690	         7.90987e+57
          1967.90320	         6.96237e+57
          1968.70950	         7.00141e+57
          1969.51580	         5.52267e+57
          1970.32210	         6.86412e+57
          1971.12840	         7.30046e+57
          1971.93470	         5.30265e+57
          1972.74100	         5.30501e+57
          1973.54730	         6.76179e+57
          1974.35360	         7.34336e+57
          1975.15990	         7.79812e+57
          1975.96620	         7.52510e+57
          1976.77250	         8.77916e+57
          1977.57880	         7.95643e+57
          1978.38510	         6.00097e+57
          1979.19140	         6.69153e+57
          1979.99770	         7.11021e+57
          1980.80400	         6.99344e+57
          1981.61030	         7.11955e+57
          1982.41660	         4.88708e+57
          1983.22290	         5.51862e+57
          1984.02920	         5.32254e+57
          1984.83550	         5.79754e+57
          1985.64180	         7.73890e+57
          1986.44810	         6.61786e+57
          1987.25440	         6.08624e+57
          1988.06070	         6.03724e+57
          1988.86700	         5.99734e+57
          1989.67330	         6.75228e+57
          1990.47960	         6.69220e+57
          1991.28590	         6.54272e+57
          1992.09220	         5.08871e+57
          1992.89850	         6.36554e+57
          1993.70480	         5.84880e+57
          1994.51110	         5.46415e+57
          1995.31740	         4.50183e+57
          1996.12370	         4.61478e+57
          1996.93000	         6.21159e+57
          1997.73630	         7.87453e+57
          1998.54260	         8.75057e+57
          1999.34890	         7.19436e+57
          2000.15520	         5.89714e+57
          2000.96150	         6.43787e+57
          2001.76780	         6.28293e+57
          2002.57410	         4.70450e+57
          2003.38040	         4.89281e+57
          2004.18670	         5.94485e+57
          2004.99300	         7.43462e+57
          2005.79930	         7.46311e+57
          2006.60560	         7.04929e+57
          2007.41190	         6.15351e+57
          2008.21820	         6.32428e+57
          2009.02450	         8.10200e+57
          2009.83080	         6.38133e+57
          2010.63710	         6.31034e+57
          2011.44340	         7.25639e+57
          2012.24970	         7.49397e+57
          2013.05600	         6.92572e+57
          2013.86230	         5.97274e+57
          2014.66860	         5.80937e+57
          2015.47490	         5.96003e+57
          2016.28120	         6.29192e+57
          2017.08750	         5.16235e+57
          2017.89380	         6.73912e+57
          2018.70010	         7.35123e+57
          2019.50640	         6.56194e+57
          2020.31270	         6.83850e+57
          2021.11900	         7.66239e+57
          2021.92530	         7.53655e+57
          2022.73160	         6.78703e+57
          2023.53790	         7.19998e+57
          2024.34420	         5.77318e+57
          2025.15050	         5.57210e+57
          2025.95680	         5.60414e+57
          2026.76310	         6.36347e+57
          2027.56940	         6.34607e+57
          2028.37570	         6.38689e+57
          2029.18200	         6.80733e+57
          2029.98830	         6.38934e+57
          2030.79460	         6.76954e+57
          2031.60090	         7.41249e+57
          2032.40720	         5.83125e+57
          2033.21350	         4.59647e+57
          2034.01980	         4.87315e+57
          2034.82610	         5.15986e+57
          2035.63240	         5.92219e+57
          2036.43870	         5.80443e+57
          2037.24500	         6.09819e+57
          2038.05130	         6.43945e+57
          2038.85760	         5.16812e+57
          2039.66390	         4.57214e+57
          2040.47020	         6.37444e+57
          2041.27650	         6.79155e+57
          2042.08280	         5.02968e+57
          2042.88910	         5.22219e+57
          2043.69540	         6.40807e+57
          2044.50170	         6.83172e+57
          2045.30800	         5.26682e+57
          2046.11430	         3.71790e+57
          2046.92060	         6.13892e+57
          2047.72690	         6.30029e+57
          2048.53320	         5.44158e+57
          2049.33950	         5.77185e+57
          2050.14580	         4.73610e+57
          2050.95210	         6.28061e+57
          2051.75840	         7.99001e+57
          2052.56470	         5.08579e+57
          2053.37100	         4.28185e+57
          2054.17730	         3.84169e+57
          2054.98360	         4.87088e+57
          2055.78990	         3.59586e+57
          2056.59620	         2.92501e+57
          2057.40250	         4.55588e+57
          2058.20880	         7.20757e+57
          2059.01510	         6.51106e+57
          2059.82140	         5.96756e+57
          2060.62770	         1.01640e+58
          2061.43400	         1.63442e+58
          2062.24030	         9.41398e+57
          2063.04660	         4.78287e+57
          2063.85290	         2.65075e+57
          2064.65920	        -3.12308e+57
          2065.46550	        -8.76284e+57
          2066.27180	        -7.29152e+57
          2067.07810	         4.57811e+57
          2067.88440	         6.02833e+57
          2068.69070	         6.46612e+57
          2069.49700	         6.87112e+57
          2070.30330	         4.40138e+57
          2071.10960	         5.36203e+57
          2071.91590	         5.84680e+57
          2072.72220	         3.96880e+57
          2073.52850	         3.82681e+57
          2074.33480	         4.82428e+57
          2075.14110	         4.10603e+57
          2075.94740	         4.62672e+57
          2076.75370	         4.62812e+57
          2077.56000	         5.09484e+57
          2078.36630	         6.10346e+57
          2079.17260	         4.64022e+57
          2079.97890	         6.21785e+57
          2080.78520	         5.91530e+57
          2081.59150	         6.35491e+57
          2082.39780	         4.29606e+57
          2083.20410	         4.03645e+57
          2084.01040	         2.71795e+57
          2084.81670	         2.89932e+57
          2085.62300	         3.00129e+57
          2086.42930	         2.80796e+57
          2087.23560	         2.86446e+57
          2088.04190	         4.76936e+57
          2088.84820	         4.92896e+57
          2089.65450	         2.09816e+57
          2090.46080	         2.25629e+57
          2091.26710	         4.36246e+57
          2092.07340	         4.52620e+57
          2092.87970	         3.63779e+57
          2093.68600	        -1.57185e+57
          2094.49230	         3.74370e+57
          2095.29860	         7.42037e+57
          2096.10490	         2.73387e+57
          2096.91120	        -1.93514e+56
          2097.71750	         2.39237e+57
          2098.52380	        -1.42737e+56
          2099.33010	         3.18075e+56
          2100.13640	         3.20642e+57
          2100.94270	         3.59920e+57
          2101.74900	         5.28390e+57
          2102.55530	         3.31322e+57
          2103.36160	         3.27128e+56
          2104.16790	         1.09551e+57
          2104.97420	         7.11593e+55
          2105.78050	         2.47761e+56
          2106.58680	         5.96136e+56
          2107.39310	        -1.01744e+57
          2108.19940	         6.39473e+56
          2109.00570	        -1.05927e+57
          2109.81200	        -1.30248e+57
          2110.61830	         2.94354e+57
          2111.42460	         2.23677e+57
          2112.23090	         4.94812e+56
          2113.03720	        -1.67666e+57
          2113.84350	        -8.70474e+56
          2114.64980	         1.57398e+57
          2115.45610	        -7.59375e+56
          2116.26240	         2.01696e+57
          2117.06870	         3.08844e+57
          2117.87500	         4.69325e+57
          2118.68130	        -2.03196e+57
          2119.48760	         1.04173e+57
          2120.29390	        -3.40615e+57
          2121.10020	        -1.91642e+57
          2121.90650	        -6.32939e+57
          2122.71280	        -5.38049e+57
          2123.51910	         1.97746e+56
          2124.32540	         3.72835e+57
          2125.13170	         2.97908e+57
          2125.93800	         5.40697e+57
          2126.74430	        -3.39193e+57
          2127.55060	        -9.53617e+57
          2128.35690	        -5.01073e+57
          2129.16320	        -2.49811e+57
          2129.96950	        -4.02901e+57
          2130.77580	         3.93512e+57
          2131.58210	        -2.06335e+57
          2132.38840	        -8.47170e+57
          2133.19470	        -4.62468e+57
          2134.00100	         1.91788e+57
          2134.80730	        -3.87549e+57
          2135.61360	         5.45852e+57
          2136.41990	         8.55352e+57
          2137.22620	         4.72006e+57
          2138.03250	         2.86550e+57
          2138.83880	        -2.39828e+57
          2139.64510	         3.12466e+57
          2140.45140	         3.57581e+57
          2141.25770	        -9.04081e+57
          2142.06400	        -9.27521e+57
          2142.87030	        -1.09424e+57
          2143.67660	         9.21799e+57
          2144.48290	         7.69059e+57
          2145.28920	         5.66242e+57
          2146.09550	        -3.84794e+57
          2146.90180	        -7.88694e+57
          2147.70810	        -1.27758e+58
          2148.51440	        -4.98088e+57
          2149.32070	        -5.11834e+57
          2150.12700	        -3.87701e+57
          2150.93330	        -5.84107e+57
          2151.73960	        -4.50214e+57
          2152.54590	        -2.96604e+57
          2153.35220	        -1.40069e+57
          2154.15850	         1.01177e+57
          2154.96480	         6.64554e+57
          2155.77110	        -1.25549e+58
          2156.57740	         1.93095e+57
          2157.38370	         3.97580e+57
          2158.19000	        -2.27564e+57
          2158.99630	        -3.25105e+57
          2159.80260	        -1.60292e+58
          2160.60890	        -1.59173e+58
          2161.41520	        -6.86460e+57
          2162.22150	         1.21347e+56
          2163.02780	        -3.46012e+57
          2163.83410	        -5.14416e+57
          2164.64040	        -1.38492e+58
          2165.44670	        -1.32539e+58
          2166.25300	        -7.61102e+56
          2167.05930	        -8.25135e+57
          2167.86560	        -4.74867e+57
          2168.67190	        -2.09915e+57
          2169.47820	         2.94220e+57
          2170.28450	         3.25273e+57
          2171.09080	        -6.09082e+56
          2171.89710	         1.74155e+57
          2172.70340	         2.91251e+57
          2173.50970	        -2.41214e+57
          2174.31600	        -3.34722e+57
          2175.12230	        -1.43029e+57
          2175.92860	        -9.61048e+56
          2176.73490	        -8.92052e+57
          2177.54120	        -9.07235e+57
          2178.34750	        -4.88354e+57
          2179.15380	                 nan
          2179.96010	                 nan
          2180.76640	                 nan
          2181.57270	                 nan
          2182.37900	                 nan
          2183.18530	                 nan
          2183.99160	                 nan
          2184.79790	                 nan
          2185.60420	                 nan
          2186.41050	                 nan
          2187.21680	                 nan
          2188.02310	                 nan
          2188.82940	                 nan
          2189.63570	                 nan
          2190.44200	                 nan
          2191.24830	                 nan
          2192.05460	                 nan
          2192.86090	                 nan
          2193.66720	                 nan
          2194.47350	                 nan
          2195.27980	                 nan
          2196.08610	                 nan
          2196.89240	                 nan
          2197.69870	                 nan
          2198.50500	                 nan
          2199.31130	                 nan
          2200.11760	                 nan
          2200.92390	                 nan
          2201.73020	                 nan
          2202.53650	                 nan
          2203.34280	                 nan
          2204.14910	                 nan
          2204.95540	                 nan
          2205.76170	                 nan
          2206.56800	                 nan
          2207.37430	                 nan
          2208.18060	                 nan
          2208.98690	                 nan
          2209.79320	                 nan
          2210.59950	                 nan
          2211.40580	                 nan
          2212.21210	                 nan
          2213.01840	                 nan
          2213.82470	                 nan
          2214.63100	                 nan
          2215.43730	         0.00000e+00
