#sample_93_stacked_spectrum_rest_UV-bands_median_H-alpha_noDC.txt
#median Lum: 1.71504e+42
#Rest-frame wavelength (A) | Luminosity (erg/s/A)
#
          1110.00000	         0.00000e+00
          1110.80630	        -2.09380e+59
          1111.61260	         5.72752e+59
          1112.41890	         7.73146e+58
          1113.22520	         1.39380e+59
          1114.03150	         1.45813e+59
          1114.83780	         2.15756e+59
          1115.64410	         6.86996e+58
          1116.45040	         9.76357e+58
          1117.25670	         1.80644e+59
          1118.06300	         1.17054e+59
          1118.86930	        -5.64150e+58
          1119.67560	         1.09165e+59
          1120.48190	         8.38181e+58
          1121.28820	        -8.18734e+58
          1122.09450	         7.91481e+58
          1122.90080	        -1.62247e+58
          1123.70710	         6.48743e+58
          1124.51340	         1.10296e+59
          1125.31970	        -5.19381e+58
          1126.12600	         8.63951e+57
          1126.93230	        -4.92502e+58
          1127.73860	        -4.75908e+58
          1128.54490	         1.85883e+58
          1129.35120	         1.07691e+58
          1130.15750	        -4.32772e+58
          1130.96380	        -3.26027e+57
          1131.77010	         5.70358e+58
          1132.57640	         7.88208e+58
          1133.38270	         5.24277e+58
          1134.18900	         3.49226e+58
          1134.99530	        -1.71629e+57
          1135.80160	         2.78267e+58
          1136.60790	         1.18511e+58
          1137.41420	         4.21169e+57
          1138.22050	         4.17668e+58
          1139.02680	         2.02812e+58
          1139.83310	        -7.04968e+57
          1140.63940	         1.24479e+58
          1141.44570	        -1.13270e+57
          1142.25200	         5.00730e+56
          1143.05830	         9.18944e+57
          1143.86460	         1.73329e+58
          1144.67090	         1.80547e+58
          1145.47720	         2.41522e+58
          1146.28350	         1.52543e+58
          1147.08980	         2.02781e+58
          1147.89610	         1.75045e+58
          1148.70240	         3.11031e+58
          1149.50870	         2.66504e+58
          1150.31500	         7.45992e+57
          1151.12130	         1.66802e+58
          1151.92760	         1.56281e+58
          1152.73390	         4.65582e+57
          1153.54020	         4.02397e+57
          1154.34650	         2.19659e+58
          1155.15280	         1.79742e+58
          1155.95910	         3.73804e+57
          1156.76540	        -8.33378e+56
          1157.57170	         3.90936e+57
          1158.37800	         2.96991e+57
          1159.18430	         7.28859e+57
          1159.99060	         1.35499e+58
          1160.79690	         5.86357e+56
          1161.60320	         4.55577e+56
          1162.40950	         2.17831e+58
          1163.21580	         1.99387e+58
          1164.02210	         1.62721e+58
          1164.82840	         1.19337e+58
          1165.63470	         1.70875e+58
          1166.44100	         2.18055e+58
          1167.24730	         1.73795e+58
          1168.05360	         1.12643e+58
          1168.85990	         1.11762e+58
          1169.66620	         1.00966e+58
          1170.47250	         7.58817e+57
          1171.27880	         8.67196e+56
          1172.08510	         9.94597e+57
          1172.89140	         1.08844e+58
          1173.69770	         5.72448e+57
          1174.50400	         1.00151e+58
          1175.31030	         1.98920e+58
          1176.11660	         1.89629e+58
          1176.92290	         1.32695e+58
          1177.72920	         9.56447e+57
          1178.53550	         5.03262e+57
          1179.34180	         8.39153e+57
          1180.14810	         1.06397e+58
          1180.95440	         1.62324e+58
          1181.76070	         1.43584e+58
          1182.56700	         1.08765e+58
          1183.37330	         5.94799e+57
          1184.17960	         9.04727e+57
          1184.98590	         1.19286e+58
          1185.79220	         9.06119e+57
          1186.59850	         1.32763e+58
          1187.40480	         1.42617e+58
          1188.21110	         1.44509e+58
          1189.01740	         1.35467e+58
          1189.82370	         1.09472e+58
          1190.63000	         9.42633e+57
          1191.43630	         1.42205e+58
          1192.24260	         1.03898e+58
          1193.04890	         1.30604e+58
          1193.85520	         1.03691e+58
          1194.66150	         3.52057e+57
          1195.46780	         8.56819e+57
          1196.27410	         1.15249e+58
          1197.08040	         1.01898e+58
          1197.88670	         1.23870e+58
          1198.69300	         1.28078e+58
          1199.49930	         1.48148e+58
          1200.30560	         1.33458e+58
          1201.11190	         1.32770e+58
          1201.91820	         1.44102e+58
          1202.72450	         9.77936e+57
          1203.53080	         1.26248e+58
          1204.33710	         7.57916e+57
          1205.14340	         7.66629e+57
          1205.94970	         9.09581e+57
          1206.75600	         4.60247e+57
          1207.56230	         5.01609e+57
          1208.36860	         9.51918e+57
          1209.17490	         7.66173e+57
          1209.98120	         5.92587e+57
          1210.78750	         5.33634e+57
          1211.59380	         9.79136e+57
          1212.40010	         1.99761e+58
          1213.20640	         2.03640e+58
          1214.01270	         2.27346e+58
          1214.81900	         2.79993e+58
          1215.62530	         4.54140e+58
          1216.43160	         9.24859e+58
          1217.23790	         1.50769e+59
          1218.04420	         1.21914e+59
          1218.85050	         8.92448e+58
          1219.65680	         5.88168e+58
          1220.46310	         3.71480e+58
          1221.26940	         2.56442e+58
          1222.07570	         1.51906e+58
          1222.88200	         1.45222e+58
          1223.68830	         1.07266e+58
          1224.49460	         6.90237e+57
          1225.30090	         5.01967e+57
          1226.10720	         6.59176e+57
          1226.91350	         8.84074e+57
          1227.71980	         1.00967e+58
          1228.52610	         1.07450e+58
          1229.33240	         8.19557e+57
          1230.13870	         5.04785e+57
          1230.94500	         8.27270e+57
          1231.75130	         6.98801e+57
          1232.55760	         7.11309e+57
          1233.36390	         9.02446e+57
          1234.17020	         8.11373e+57
          1234.97650	         8.62619e+57
          1235.78280	         7.66043e+57
          1236.58910	         9.25766e+57
          1237.39540	         1.02228e+58
          1238.20170	         1.15144e+58
          1239.00800	         1.58511e+58
          1239.81430	         1.67857e+58
          1240.62060	         1.17347e+58
          1241.42690	         1.01456e+58
          1242.23320	         1.08840e+58
          1243.03950	         8.08063e+57
          1243.84580	         8.24799e+57
          1244.65210	         1.16005e+58
          1245.45840	         1.05680e+58
          1246.26470	         8.32983e+57
          1247.07100	         6.72892e+57
          1247.87730	         7.78523e+57
          1248.68360	         4.45621e+57
          1249.48990	         8.34320e+57
          1250.29620	         1.05887e+58
          1251.10250	         8.60842e+57
          1251.90880	         5.79840e+57
          1252.71510	         7.36905e+57
          1253.52140	         9.49904e+57
          1254.32770	         1.07085e+58
          1255.13400	         1.13780e+58
          1255.94030	         1.04343e+58
          1256.74660	         1.12077e+58
          1257.55290	         1.19374e+58
          1258.35920	         1.01873e+58
          1259.16550	         7.42414e+57
          1259.97180	         5.18085e+57
          1260.77810	         7.61252e+57
          1261.58440	         1.17218e+58
          1262.39070	         7.36503e+57
          1263.19700	         6.81295e+57
          1264.00330	         1.02295e+58
          1264.80960	         1.19281e+58
          1265.61590	         1.37620e+58
          1266.42220	         1.20176e+58
          1267.22850	         9.22860e+57
          1268.03480	         1.34094e+58
          1268.84110	         1.71793e+58
          1269.64740	         1.56987e+58
          1270.45370	         1.53913e+58
          1271.26000	         1.20617e+58
          1272.06630	         1.32132e+58
          1272.87260	         1.45364e+58
          1273.67890	         1.20798e+58
          1274.48520	         1.24562e+58
          1275.29150	         1.43987e+58
          1276.09780	         1.30244e+58
          1276.90410	         1.44894e+58
          1277.71040	         1.40644e+58
          1278.51670	         1.24207e+58
          1279.32300	         1.50358e+58
          1280.12930	         1.39596e+58
          1280.93560	         1.05271e+58
          1281.74190	         1.12859e+58
          1282.54820	         1.39361e+58
          1283.35450	         1.19056e+58
          1284.16080	         1.11418e+58
          1284.96710	         1.26820e+58
          1285.77340	         1.14376e+58
          1286.57970	         1.23674e+58
          1287.38600	         1.55221e+58
          1288.19230	         1.57065e+58
          1288.99860	         1.53740e+58
          1289.80490	         1.25868e+58
          1290.61120	         1.38496e+58
          1291.41750	         1.58308e+58
          1292.22380	         1.27178e+58
          1293.03010	         1.24359e+58
          1293.83640	         1.18639e+58
          1294.64270	         1.14953e+58
          1295.44900	         8.07649e+57
          1296.25530	         8.56911e+57
          1297.06160	         1.04343e+58
          1297.86790	         9.70544e+57
          1298.67420	         8.15903e+57
          1299.48050	         8.50186e+57
          1300.28680	         1.04490e+58
          1301.09310	         7.69618e+57
          1301.89940	         5.12651e+57
          1302.70570	         6.08955e+57
          1303.51200	         6.89457e+57
          1304.31830	         1.05459e+58
          1305.12460	         1.03691e+58
          1305.93090	         1.13103e+58
          1306.73720	         1.33195e+58
          1307.54350	         1.51105e+58
          1308.34980	         1.56714e+58
          1309.15610	         1.65339e+58
          1309.96240	         1.58072e+58
          1310.76870	         1.22079e+58
          1311.57500	         9.58750e+57
          1312.38130	         1.10319e+58
          1313.18760	         1.38833e+58
          1313.99390	         1.56594e+58
          1314.80020	         1.74567e+58
          1315.60650	         1.46567e+58
          1316.41280	         1.26621e+58
          1317.21910	         1.10478e+58
          1318.02540	         1.09789e+58
          1318.83170	         1.22240e+58
          1319.63800	         1.35075e+58
          1320.44430	         1.22364e+58
          1321.25060	         1.28569e+58
          1322.05690	         1.29387e+58
          1322.86320	         1.14035e+58
          1323.66950	         1.00288e+58
          1324.47580	         9.45158e+57
          1325.28210	         9.86589e+57
          1326.08840	         1.28774e+58
          1326.89470	         1.41599e+58
          1327.70100	         1.12460e+58
          1328.50730	         8.93212e+57
          1329.31360	         1.01804e+58
          1330.11990	         1.08460e+58
          1330.92620	         9.78494e+57
          1331.73250	         9.43169e+57
          1332.53880	         9.15574e+57
          1333.34510	         9.25611e+57
          1334.15140	         9.31980e+57
          1334.95770	         8.54217e+57
          1335.76400	         9.98261e+57
          1336.57030	         1.09630e+58
          1337.37660	         1.05047e+58
          1338.18290	         1.00728e+58
          1338.98920	         1.12705e+58
          1339.79550	         1.17845e+58
          1340.60180	         1.18959e+58
          1341.40810	         1.23755e+58
          1342.21440	         1.13241e+58
          1343.02070	         1.10723e+58
          1343.82700	         1.27884e+58
          1344.63330	         1.28366e+58
          1345.43960	         1.20915e+58
          1346.24590	         1.14264e+58
          1347.05220	         1.26874e+58
          1347.85850	         1.27161e+58
          1348.66480	         1.23009e+58
          1349.47110	         1.23173e+58
          1350.27740	         1.14795e+58
          1351.08370	         1.20395e+58
          1351.89000	         1.25671e+58
          1352.69630	         1.10174e+58
          1353.50260	         1.16017e+58
          1354.30890	         1.30521e+58
          1355.11520	         1.16448e+58
          1355.92150	         9.74330e+57
          1356.72780	         1.03014e+58
          1357.53410	         1.01810e+58
          1358.34040	         9.26839e+57
          1359.14670	         9.83130e+57
          1359.95300	         1.06895e+58
          1360.75930	         1.08585e+58
          1361.56560	         1.01631e+58
          1362.37190	         1.13951e+58
          1363.17820	         1.17208e+58
          1363.98450	         1.15607e+58
          1364.79080	         1.16103e+58
          1365.59710	         1.19950e+58
          1366.40340	         1.16674e+58
          1367.20970	         1.03144e+58
          1368.01600	         9.50754e+57
          1368.82230	         9.43774e+57
          1369.62860	         1.06962e+58
          1370.43490	         8.84775e+57
          1371.24120	         7.94421e+57
          1372.04750	         9.07071e+57
          1372.85380	         1.00239e+58
          1373.66010	         1.05828e+58
          1374.46640	         1.11217e+58
          1375.27270	         1.16121e+58
          1376.07900	         9.82629e+57
          1376.88530	         8.00548e+57
          1377.69160	         8.58542e+57
          1378.49790	         7.64891e+57
          1379.30420	         6.68844e+57
          1380.11050	         9.40655e+57
          1380.91680	         9.77360e+57
          1381.72310	         8.90436e+57
          1382.52940	         9.10228e+57
          1383.33570	         9.17478e+57
          1384.14200	         1.14401e+58
          1384.94830	         1.08639e+58
          1385.75460	         9.27967e+57
          1386.56090	         1.05667e+58
          1387.36720	         1.13955e+58
          1388.17350	         1.32806e+58
          1388.97980	         1.15231e+58
          1389.78610	         9.52615e+57
          1390.59240	         8.97101e+57
          1391.39870	         7.41709e+57
          1392.20500	         8.79857e+57
          1393.01130	         7.52858e+57
          1393.81760	         7.59881e+57
          1394.62390	         7.89189e+57
          1395.43020	         6.62889e+57
          1396.23650	         6.31396e+57
          1397.04280	         6.43444e+57
          1397.84910	         7.76269e+57
          1398.65540	         8.02217e+57
          1399.46170	         9.98547e+57
          1400.26800	         9.07562e+57
          1401.07430	         8.49589e+57
          1401.88060	         7.95148e+57
          1402.68690	         8.86309e+57
          1403.49320	         9.06417e+57
          1404.29950	         8.99879e+57
          1405.10580	         1.08547e+58
          1405.91210	         1.15943e+58
          1406.71840	         1.07103e+58
          1407.52470	         9.67708e+57
          1408.33100	         1.03892e+58
          1409.13730	         1.16608e+58
          1409.94360	         1.18045e+58
          1410.74990	         1.09692e+58
          1411.55620	         1.04987e+58
          1412.36250	         1.00224e+58
          1413.16880	         8.24511e+57
          1413.97510	         7.59894e+57
          1414.78140	         8.73125e+57
          1415.58770	         1.07819e+58
          1416.39400	         1.16913e+58
          1417.20030	         1.05376e+58
          1418.00660	         9.72912e+57
          1418.81290	         1.10183e+58
          1419.61920	         1.18277e+58
          1420.42550	         1.21767e+58
          1421.23180	         1.41078e+58
          1422.03810	         1.33096e+58
          1422.84440	         1.05724e+58
          1423.65070	         1.11221e+58
          1424.45700	         1.03002e+58
          1425.26330	         8.43329e+57
          1426.06960	         8.70027e+57
          1426.87590	         9.92029e+57
          1427.68220	         1.06041e+58
          1428.48850	         1.08788e+58
          1429.29480	         1.09264e+58
          1430.10110	         1.02332e+58
          1430.90740	         8.58562e+57
          1431.71370	         9.41337e+57
          1432.52000	         1.00937e+58
          1433.32630	         8.51001e+57
          1434.13260	         8.72591e+57
          1434.93890	         8.46533e+57
          1435.74520	         8.90036e+57
          1436.55150	         9.00525e+57
          1437.35780	         8.56483e+57
          1438.16410	         8.98637e+57
          1438.97040	         9.02141e+57
          1439.77670	         9.51530e+57
          1440.58300	         1.00242e+58
          1441.38930	         9.92583e+57
          1442.19560	         1.01499e+58
          1443.00190	         9.41720e+57
          1443.80820	         1.14022e+58
          1444.61450	         9.71147e+57
          1445.42080	         8.25414e+57
          1446.22710	         9.34989e+57
          1447.03340	         9.65188e+57
          1447.83970	         1.15719e+58
          1448.64600	         1.11946e+58
          1449.45230	         1.03177e+58
          1450.25860	         1.11466e+58
          1451.06490	         1.01236e+58
          1451.87120	         8.16216e+57
          1452.67750	         6.27148e+57
          1453.48380	         7.71349e+57
          1454.29010	         8.33194e+57
          1455.09640	         7.95902e+57
          1455.90270	         7.85287e+57
          1456.70900	         8.41507e+57
          1457.51530	         1.10131e+58
          1458.32160	         1.21222e+58
          1459.12790	         1.06735e+58
          1459.93420	         9.60606e+57
          1460.74050	         8.39410e+57
          1461.54680	         7.42445e+57
          1462.35310	         8.63839e+57
          1463.15940	         1.03753e+58
          1463.96570	         1.02131e+58
          1464.77200	         1.07165e+58
          1465.57830	         1.17657e+58
          1466.38460	         1.04016e+58
          1467.19090	         8.61159e+57
          1467.99720	         8.93495e+57
          1468.80350	         1.03537e+58
          1469.60980	         1.02673e+58
          1470.41610	         1.05272e+58
          1471.22240	         9.87164e+57
          1472.02870	         1.00672e+58
          1472.83500	         1.08040e+58
          1473.64130	         1.06063e+58
          1474.44760	         1.02124e+58
          1475.25390	         9.72645e+57
          1476.06020	         8.42400e+57
          1476.86650	         8.32145e+57
          1477.67280	         8.29261e+57
          1478.47910	         7.97044e+57
          1479.28540	         7.89432e+57
          1480.09170	         8.43645e+57
          1480.89800	         8.66545e+57
          1481.70430	         8.11704e+57
          1482.51060	         8.47684e+57
          1483.31690	         8.62912e+57
          1484.12320	         7.95985e+57
          1484.92950	         7.09152e+57
          1485.73580	         7.73659e+57
          1486.54210	         9.11950e+57
          1487.34840	         9.12457e+57
          1488.15470	         8.02740e+57
          1488.96100	         8.20036e+57
          1489.76730	         8.67778e+57
          1490.57360	         8.45173e+57
          1491.37990	         7.14747e+57
          1492.18620	         7.38288e+57
          1492.99250	         8.34453e+57
          1493.79880	         7.67032e+57
          1494.60510	         8.61403e+57
          1495.41140	         8.21420e+57
          1496.21770	         9.20986e+57
          1497.02400	         1.18335e+58
          1497.83030	         9.85268e+57
          1498.63660	         6.63683e+57
          1499.44290	         6.57380e+57
          1500.24920	         7.72131e+57
          1501.05550	         7.98928e+57
          1501.86180	         8.44509e+57
          1502.66810	         8.97763e+57
          1503.47440	         8.95216e+57
          1504.28070	         8.48966e+57
          1505.08700	         8.71450e+57
          1505.89330	         8.55400e+57
          1506.69960	         7.62169e+57
          1507.50590	         7.35102e+57
          1508.31220	         8.17399e+57
          1509.11850	         9.50507e+57
          1509.92480	         1.00048e+58
          1510.73110	         8.87165e+57
          1511.53740	         7.56063e+57
          1512.34370	         7.50918e+57
          1513.15000	         8.57423e+57
          1513.95630	         9.94802e+57
          1514.76260	         9.55863e+57
          1515.56890	         8.33724e+57
          1516.37520	         8.10724e+57
          1517.18150	         7.94503e+57
          1517.98780	         7.73038e+57
          1518.79410	         7.18105e+57
          1519.60040	         7.72109e+57
          1520.40670	         9.60324e+57
          1521.21300	         8.72925e+57
          1522.01930	         7.83413e+57
          1522.82560	         9.16140e+57
          1523.63190	         1.03191e+58
          1524.43820	         8.05244e+57
          1525.24450	         5.85025e+57
          1526.05080	         6.28958e+57
          1526.85710	         6.18940e+57
          1527.66340	         6.90949e+57
          1528.46970	         7.43492e+57
          1529.27600	         6.95855e+57
          1530.08230	         7.50036e+57
          1530.88860	         7.97916e+57
          1531.69490	         8.88881e+57
          1532.50120	         1.00651e+58
          1533.30750	         1.09721e+58
          1534.11380	         9.89104e+57
          1534.92010	         8.36383e+57
          1535.72640	         9.05982e+57
          1536.53270	         9.14166e+57
          1537.33900	         8.98321e+57
          1538.14530	         8.93167e+57
          1538.95160	         9.70570e+57
          1539.75790	         9.72655e+57
          1540.56420	         7.75658e+57
          1541.37050	         7.26246e+57
          1542.17680	         7.72730e+57
          1542.98310	         7.36018e+57
          1543.78940	         7.60457e+57
          1544.59570	         7.98294e+57
          1545.40200	         8.60925e+57
          1546.20830	         1.00645e+58
          1547.01460	         1.14486e+58
          1547.82090	         1.07167e+58
          1548.62720	         1.20196e+58
          1549.43350	         1.17469e+58
          1550.23980	         1.07821e+58
          1551.04610	         1.22650e+58
          1551.85240	         1.27337e+58
          1552.65870	         1.20457e+58
          1553.46500	         1.04928e+58
          1554.27130	         9.80198e+57
          1555.07760	         1.00449e+58
          1555.88390	         8.42331e+57
          1556.69020	         8.79816e+57
          1557.49650	         9.49160e+57
          1558.30280	         8.29896e+57
          1559.10910	         8.53512e+57
          1559.91540	         9.19588e+57
          1560.72170	         8.47150e+57
          1561.52800	         8.17303e+57
          1562.33430	         8.71770e+57
          1563.14060	         7.94167e+57
          1563.94690	         8.51420e+57
          1564.75320	         9.32923e+57
          1565.55950	         7.96378e+57
          1566.36580	         8.05856e+57
          1567.17210	         9.76964e+57
          1567.97840	         1.01079e+58
          1568.78470	         8.74662e+57
          1569.59100	         9.08090e+57
          1570.39730	         8.78731e+57
          1571.20360	         7.58107e+57
          1572.00990	         7.48392e+57
          1572.81620	         8.63124e+57
          1573.62250	         1.08707e+58
          1574.42880	         1.01224e+58
          1575.23510	         8.81447e+57
          1576.04140	         9.10492e+57
          1576.84770	         8.84384e+57
          1577.65400	         9.56065e+57
          1578.46030	         9.59036e+57
          1579.26660	         1.06919e+58
          1580.07290	         9.76240e+57
          1580.87920	         7.38334e+57
          1581.68550	         6.96070e+57
          1582.49180	         7.75607e+57
          1583.29810	         8.01733e+57
          1584.10440	         9.05236e+57
          1584.91070	         8.34244e+57
          1585.71700	         7.72654e+57
          1586.52330	         8.65055e+57
          1587.32960	         8.39486e+57
          1588.13590	         8.56707e+57
          1588.94220	         8.78292e+57
          1589.74850	         8.64213e+57
          1590.55480	         8.75602e+57
          1591.36110	         8.86254e+57
          1592.16740	         8.47781e+57
          1592.97370	         8.32487e+57
          1593.78000	         9.70997e+57
          1594.58630	         1.09121e+58
          1595.39260	         9.31495e+57
          1596.19890	         9.59197e+57
          1597.00520	         1.01724e+58
          1597.81150	         9.15120e+57
          1598.61780	         7.03711e+57
          1599.42410	         6.60132e+57
          1600.23040	         6.98199e+57
          1601.03670	         7.66714e+57
          1601.84300	         7.88318e+57
          1602.64930	         8.88952e+57
          1603.45560	         9.05392e+57
          1604.26190	         8.00343e+57
          1605.06820	         7.97883e+57
          1605.87450	         8.22443e+57
          1606.68080	         8.05462e+57
          1607.48710	         5.73735e+57
          1608.29340	         5.88003e+57
          1609.09970	         7.80845e+57
          1609.90600	         7.71160e+57
          1610.71230	         6.92387e+57
          1611.51860	         7.72606e+57
          1612.32490	         7.70923e+57
          1613.13120	         7.79464e+57
          1613.93750	         8.75202e+57
          1614.74380	         9.08799e+57
          1615.55010	         8.58863e+57
          1616.35640	         9.47580e+57
          1617.16270	         1.03773e+58
          1617.96900	         9.85194e+57
          1618.77530	         7.97272e+57
          1619.58160	         8.23178e+57
          1620.38790	         8.40592e+57
          1621.19420	         8.03081e+57
          1622.00050	         7.38307e+57
          1622.80680	         8.62054e+57
          1623.61310	         8.61322e+57
          1624.41940	         8.45878e+57
          1625.22570	         9.62172e+57
          1626.03200	         8.97730e+57
          1626.83830	         8.15269e+57
          1627.64460	         7.68257e+57
          1628.45090	         6.57329e+57
          1629.25720	         8.27023e+57
          1630.06350	         1.00052e+58
          1630.86980	         6.90788e+57
          1631.67610	         7.46706e+57
          1632.48240	         8.63862e+57
          1633.28870	         9.26751e+57
          1634.09500	         9.45521e+57
          1634.90130	         1.06705e+58
          1635.70760	         1.00352e+58
          1636.51390	         8.49886e+57
          1637.32020	         7.86637e+57
          1638.12650	         8.86710e+57
          1638.93280	         9.10061e+57
          1639.73910	         9.54541e+57
          1640.54540	         1.12709e+58
          1641.35170	         9.05208e+57
          1642.15800	         8.73735e+57
          1642.96430	         8.16017e+57
          1643.77060	         7.82645e+57
          1644.57690	         8.13111e+57
          1645.38320	         8.46604e+57
          1646.18950	         7.99316e+57
          1646.99580	         9.58780e+57
          1647.80210	         9.40612e+57
          1648.60840	         8.10586e+57
          1649.41470	         7.78955e+57
          1650.22100	         7.24053e+57
          1651.02730	         7.60783e+57
          1651.83360	         7.76799e+57
          1652.63990	         8.26144e+57
          1653.44620	         9.74936e+57
          1654.25250	         9.06780e+57
          1655.05880	         7.42995e+57
          1655.86510	         8.56345e+57
          1656.67140	         9.43121e+57
          1657.47770	         8.37125e+57
          1658.28400	         8.36853e+57
          1659.09030	         9.64385e+57
          1659.89660	         1.04246e+58
          1660.70290	         1.00980e+58
          1661.50920	         9.62868e+57
          1662.31550	         8.78804e+57
          1663.12180	         8.92858e+57
          1663.92810	         1.04131e+58
          1664.73440	         1.10654e+58
          1665.54070	         1.24521e+58
          1666.34700	         1.29003e+58
          1667.15330	         1.11724e+58
          1667.95960	         8.56505e+57
          1668.76590	         7.64469e+57
          1669.57220	         7.39073e+57
          1670.37850	         6.81280e+57
          1671.18480	         7.81696e+57
          1671.99110	         8.28699e+57
          1672.79740	         6.57201e+57
          1673.60370	         5.66725e+57
          1674.41000	         7.29755e+57
          1675.21630	         7.93563e+57
          1676.02260	         6.75060e+57
          1676.82890	         7.49658e+57
          1677.63520	         7.76182e+57
          1678.44150	         7.17168e+57
          1679.24780	         8.88916e+57
          1680.05410	         8.10637e+57
          1680.86040	         7.27079e+57
          1681.66670	         8.65248e+57
          1682.47300	         8.68054e+57
          1683.27930	         8.90483e+57
          1684.08560	         8.41427e+57
          1684.89190	         8.10606e+57
          1685.69820	         6.86489e+57
          1686.50450	         5.52166e+57
          1687.31080	         6.43518e+57
          1688.11710	         7.68868e+57
          1688.92340	         6.77165e+57
          1689.72970	         6.42346e+57
          1690.53600	         6.73872e+57
          1691.34230	         7.44960e+57
          1692.14860	         8.95450e+57
          1692.95490	         8.45851e+57
          1693.76120	         7.46914e+57
          1694.56750	         7.72287e+57
          1695.37380	         9.38978e+57
          1696.18010	         9.42170e+57
          1696.98640	         9.48294e+57
          1697.79270	         9.19549e+57
          1698.59900	         9.06507e+57
          1699.40530	         7.63673e+57
          1700.21160	         7.79199e+57
          1701.01790	         8.88779e+57
          1701.82420	         8.11941e+57
          1702.63050	         7.46287e+57
          1703.43680	         8.44687e+57
          1704.24310	         8.56712e+57
          1705.04940	         8.14994e+57
          1705.85570	         7.37652e+57
          1706.66200	         8.55318e+57
          1707.46830	         8.56905e+57
          1708.27460	         7.57983e+57
          1709.08090	         6.06714e+57
          1709.88720	         4.83417e+57
          1710.69350	         5.40858e+57
          1711.49980	         6.93529e+57
          1712.30610	         7.21148e+57
          1713.11240	         8.17411e+57
          1713.91870	         7.18791e+57
          1714.72500	         7.58496e+57
          1715.53130	         7.85655e+57
          1716.33760	         6.72238e+57
          1717.14390	         6.72257e+57
          1717.95020	         8.85371e+57
          1718.75650	         9.83456e+57
          1719.56280	         9.45478e+57
          1720.36910	         8.13767e+57
          1721.17540	         6.94300e+57
          1721.98170	         5.72753e+57
          1722.78800	         6.17974e+57
          1723.59430	         7.26081e+57
          1724.40060	         8.28140e+57
          1725.20690	         8.65179e+57
          1726.01320	         7.71350e+57
          1726.81950	         6.94658e+57
          1727.62580	         6.69221e+57
          1728.43210	         6.78748e+57
          1729.23840	         8.01002e+57
          1730.04470	         7.83904e+57
          1730.85100	         9.13850e+57
          1731.65730	         8.68373e+57
          1732.46360	         7.94692e+57
          1733.26990	         7.43416e+57
          1734.07620	         6.71003e+57
          1734.88250	         7.29842e+57
          1735.68880	         7.77058e+57
          1736.49510	         8.82212e+57
          1737.30140	         8.55947e+57
          1738.10770	         6.81949e+57
          1738.91400	         7.42005e+57
          1739.72030	         7.55331e+57
          1740.52660	         6.17478e+57
          1741.33290	         6.08829e+57
          1742.13920	         6.75942e+57
          1742.94550	         7.48752e+57
          1743.75180	         7.81539e+57
          1744.55810	         9.01984e+57
          1745.36440	         7.44050e+57
          1746.17070	         4.69028e+57
          1746.97700	         5.97567e+57
          1747.78330	         7.56697e+57
          1748.58960	         7.10566e+57
          1749.39590	         7.27114e+57
          1750.20220	         7.09788e+57
          1751.00850	         5.93385e+57
          1751.81480	         4.80788e+57
          1752.62110	         6.39248e+57
          1753.42740	         7.47836e+57
          1754.23370	         6.68128e+57
          1755.04000	         7.52296e+57
          1755.84630	         6.84691e+57
          1756.65260	         8.91658e+57
          1757.45890	         9.53261e+57
          1758.26520	         7.45233e+57
          1759.07150	         8.17316e+57
          1759.87780	         6.88648e+57
          1760.68410	         6.31519e+57
          1761.49040	         7.45085e+57
          1762.29670	         7.08098e+57
          1763.10300	         8.55170e+57
          1763.90930	         8.10182e+57
          1764.71560	         8.65504e+57
          1765.52190	         8.95543e+57
          1766.32820	         8.60057e+57
          1767.13450	         8.21794e+57
          1767.94080	         6.49949e+57
          1768.74710	         6.29448e+57
          1769.55340	         6.56714e+57
          1770.35970	         5.98999e+57
          1771.16600	         7.26724e+57
          1771.97230	         8.25290e+57
          1772.77860	         8.07840e+57
          1773.58490	         7.88111e+57
          1774.39120	         7.19089e+57
          1775.19750	         7.29063e+57
          1776.00380	         7.60224e+57
          1776.81010	         7.69757e+57
          1777.61640	         6.91320e+57
          1778.42270	         7.16587e+57
          1779.22900	         7.94181e+57
          1780.03530	         7.35052e+57
          1780.84160	         7.43198e+57
          1781.64790	         9.20040e+57
          1782.45420	         8.03854e+57
          1783.26050	         6.81368e+57
          1784.06680	         7.35352e+57
          1784.87310	         7.38801e+57
          1785.67940	         7.21097e+57
          1786.48570	         7.21712e+57
          1787.29200	         7.22897e+57
          1788.09830	         6.98763e+57
          1788.90460	         6.35232e+57
          1789.71090	         6.12093e+57
          1790.51720	         5.60799e+57
          1791.32350	         7.39664e+57
          1792.12980	         9.30128e+57
          1792.93610	         8.31497e+57
          1793.74240	         7.56135e+57
          1794.54870	         8.53166e+57
          1795.35500	         8.67964e+57
          1796.16130	         7.82471e+57
          1796.96760	         6.82659e+57
          1797.77390	         6.99394e+57
          1798.58020	         8.16710e+57
          1799.38650	         6.95156e+57
          1800.19280	         7.31447e+57
          1800.99910	         8.12697e+57
          1801.80540	         7.95019e+57
          1802.61170	         8.58175e+57
          1803.41800	         8.71971e+57
          1804.22430	         6.15468e+57
          1805.03060	         5.58446e+57
          1805.83690	         6.71351e+57
          1806.64320	         7.00241e+57
          1807.44950	         7.02029e+57
          1808.25580	         6.85180e+57
          1809.06210	         7.78249e+57
          1809.86840	         6.60894e+57
          1810.67470	         8.05020e+57
          1811.48100	         9.12491e+57
          1812.28730	         7.85052e+57
          1813.09360	         7.52220e+57
          1813.89990	         7.57336e+57
          1814.70620	         7.14226e+57
          1815.51250	         8.33643e+57
          1816.31880	         8.58827e+57
          1817.12510	         8.01099e+57
          1817.93140	         7.12781e+57
          1818.73770	         7.81673e+57
          1819.54400	         8.54130e+57
          1820.35030	         9.05256e+57
          1821.15660	         7.64785e+57
          1821.96290	         6.51896e+57
          1822.76920	         6.88512e+57
          1823.57550	         7.15916e+57
          1824.38180	         8.01766e+57
          1825.18810	         8.13921e+57
          1825.99440	         8.22339e+57
          1826.80070	         7.91368e+57
          1827.60700	         7.14534e+57
          1828.41330	         6.90843e+57
          1829.21960	         6.99886e+57
          1830.02590	         7.08542e+57
          1830.83220	         8.45737e+57
          1831.63850	         9.20243e+57
          1832.44480	         7.94277e+57
          1833.25110	         7.99715e+57
          1834.05740	         9.02430e+57
          1834.86370	         7.90809e+57
          1835.67000	         6.71848e+57
          1836.47630	         7.92842e+57
          1837.28260	         9.71694e+57
          1838.08890	         8.70484e+57
          1838.89520	         9.17238e+57
          1839.70150	         7.81420e+57
          1840.50780	         7.21819e+57
          1841.31410	         6.09423e+57
          1842.12040	         6.44018e+57
          1842.92670	         6.83800e+57
          1843.73300	         6.94256e+57
          1844.53930	         7.10147e+57
          1845.34560	         7.47378e+57
          1846.15190	         7.85582e+57
          1846.95820	         7.91494e+57
          1847.76450	         7.79962e+57
          1848.57080	         6.17308e+57
          1849.37710	         6.84172e+57
          1850.18340	         7.73410e+57
          1850.98970	         7.59543e+57
          1851.79600	         7.63336e+57
          1852.60230	         7.30500e+57
          1853.40860	         7.50004e+57
          1854.21490	         5.82444e+57
          1855.02120	         4.44248e+57
          1855.82750	         3.85728e+57
          1856.63380	         5.75807e+57
          1857.44010	         7.11033e+57
          1858.24640	         7.39150e+57
          1859.05270	         8.00331e+57
          1859.85900	         7.05357e+57
          1860.66530	         6.42029e+57
          1861.47160	         7.35876e+57
          1862.27790	         7.59874e+57
          1863.08420	         7.38067e+57
          1863.89050	         8.14287e+57
          1864.69680	         7.97909e+57
          1865.50310	         7.84950e+57
          1866.30940	         6.61204e+57
          1867.11570	         6.36106e+57
          1867.92200	         7.58482e+57
          1868.72830	         7.51379e+57
          1869.53460	         6.40360e+57
          1870.34090	         7.36674e+57
          1871.14720	         8.28284e+57
          1871.95350	         7.81551e+57
          1872.75980	         7.21415e+57
          1873.56610	         7.60513e+57
          1874.37240	         6.64124e+57
          1875.17870	         6.54450e+57
          1875.98500	         7.59520e+57
          1876.79130	         8.04695e+57
          1877.59760	         6.80658e+57
          1878.40390	         5.89631e+57
          1879.21020	         5.99986e+57
          1880.01650	         7.48659e+57
          1880.82280	         8.96276e+57
          1881.62910	         9.26919e+57
          1882.43540	         9.38935e+57
          1883.24170	         9.12257e+57
          1884.04800	         7.04601e+57
          1884.85430	         6.86724e+57
          1885.66060	         8.26632e+57
          1886.46690	         7.96406e+57
          1887.27320	         6.85268e+57
          1888.07950	         6.59452e+57
          1888.88580	         7.10061e+57
          1889.69210	         8.71902e+57
          1890.49840	         8.55902e+57
          1891.30470	         7.16639e+57
          1892.11100	         7.90133e+57
          1892.91730	         8.34273e+57
          1893.72360	         7.49178e+57
          1894.52990	         7.85981e+57
          1895.33620	         8.94335e+57
          1896.14250	         8.35463e+57
          1896.94880	         7.51900e+57
          1897.75510	         5.84935e+57
          1898.56140	         6.58411e+57
          1899.36770	         7.73013e+57
          1900.17400	         5.83399e+57
          1900.98030	         6.85256e+57
          1901.78660	         7.59554e+57
          1902.59290	         6.81307e+57
          1903.39920	         8.27988e+57
          1904.20550	         9.17488e+57
          1905.01180	         8.41530e+57
          1905.81810	         9.26455e+57
          1906.62440	         1.22958e+58
          1907.43070	         1.45835e+58
          1908.23700	         1.55314e+58
          1909.04330	         1.32001e+58
          1909.84960	         1.06265e+58
          1910.65590	         9.44037e+57
          1911.46220	         9.42998e+57
          1912.26850	         8.46379e+57
          1913.07480	         6.37052e+57
          1913.88110	         5.71643e+57
          1914.68740	         5.74458e+57
          1915.49370	         6.12136e+57
          1916.30000	         5.72026e+57
          1917.10630	         6.67194e+57
          1917.91260	         6.93658e+57
          1918.71890	         6.94513e+57
          1919.52520	         5.87514e+57
          1920.33150	         5.71034e+57
          1921.13780	         6.32418e+57
          1921.94410	         7.84817e+57
          1922.75040	         7.78738e+57
          1923.55670	         7.72080e+57
          1924.36300	         7.80678e+57
          1925.16930	         6.37374e+57
          1925.97560	         5.44882e+57
          1926.78190	         5.57245e+57
          1927.58820	         5.96349e+57
          1928.39450	         5.54377e+57
          1929.20080	         5.40782e+57
          1930.00710	         6.44405e+57
          1930.81340	         8.28227e+57
          1931.61970	         8.19940e+57
          1932.42600	         6.64673e+57
          1933.23230	         6.41446e+57
          1934.03860	         6.07118e+57
          1934.84490	         6.48503e+57
          1935.65120	         8.54893e+57
          1936.45750	         9.95486e+57
          1937.26380	         7.99312e+57
          1938.07010	         7.71501e+57
          1938.87640	         7.68689e+57
          1939.68270	         7.04475e+57
          1940.48900	         7.68915e+57
          1941.29530	         8.78415e+57
          1942.10160	         8.49790e+57
          1942.90790	         7.43848e+57
          1943.71420	         6.67687e+57
          1944.52050	         5.97156e+57
          1945.32680	         5.12681e+57
          1946.13310	         7.12630e+57
          1946.93940	         8.65542e+57
          1947.74570	         7.42402e+57
          1948.55200	         6.55489e+57
          1949.35830	         6.81652e+57
          1950.16460	         6.86288e+57
          1950.97090	         7.14861e+57
          1951.77720	         7.84912e+57
          1952.58350	         7.68718e+57
          1953.38980	         7.46254e+57
          1954.19610	         5.41901e+57
          1955.00240	         5.47470e+57
          1955.80870	         6.21833e+57
          1956.61500	         6.02208e+57
          1957.42130	         6.74292e+57
          1958.22760	         7.20711e+57
          1959.03390	         7.67433e+57
          1959.84020	         7.79152e+57
          1960.64650	         7.49868e+57
          1961.45280	         6.24434e+57
          1962.25910	         6.01957e+57
          1963.06540	         6.79425e+57
          1963.87170	         7.55913e+57
          1964.67800	         6.68523e+57
          1965.48430	         7.16254e+57
          1966.29060	         6.43293e+57
          1967.09690	         8.36546e+57
          1967.90320	         7.29757e+57
          1968.70950	         6.43282e+57
          1969.51580	         5.64388e+57
          1970.32210	         6.55929e+57
          1971.12840	         6.07547e+57
          1971.93470	         4.65094e+57
          1972.74100	         5.94142e+57
          1973.54730	         7.61159e+57
          1974.35360	         7.17460e+57
          1975.15990	         6.95505e+57
          1975.96620	         7.00703e+57
          1976.77250	         7.41893e+57
          1977.57880	         7.87315e+57
          1978.38510	         6.85193e+57
          1979.19140	         6.87747e+57
          1979.99770	         7.34934e+57
          1980.80400	         7.63122e+57
          1981.61030	         7.32561e+57
          1982.41660	         6.37536e+57
          1983.22290	         6.02423e+57
          1984.02920	         4.88144e+57
          1984.83550	         5.08363e+57
          1985.64180	         6.50474e+57
          1986.44810	         7.33636e+57
          1987.25440	         5.91521e+57
          1988.06070	         5.63649e+57
          1988.86700	         6.32595e+57
          1989.67330	         7.16785e+57
          1990.47960	         6.44238e+57
          1991.28590	         6.47641e+57
          1992.09220	         5.67294e+57
          1992.89850	         5.16764e+57
          1993.70480	         5.38087e+57
          1994.51110	         4.76096e+57
          1995.31740	         5.10512e+57
          1996.12370	         5.62559e+57
          1996.93000	         7.24861e+57
          1997.73630	         7.70448e+57
          1998.54260	         8.05254e+57
          1999.34890	         7.60055e+57
          2000.15520	         6.49276e+57
          2000.96150	         7.21039e+57
          2001.76780	         5.85009e+57
          2002.57410	         5.15089e+57
          2003.38040	         7.07320e+57
          2004.18670	         6.04411e+57
          2004.99300	         6.40996e+57
          2005.79930	         7.72799e+57
          2006.60560	         7.21683e+57
          2007.41190	         7.07695e+57
          2008.21820	         5.93963e+57
          2009.02450	         6.30769e+57
          2009.83080	         6.00476e+57
          2010.63710	         6.70379e+57
          2011.44340	         7.49705e+57
          2012.24970	         7.26894e+57
          2013.05600	         6.90452e+57
          2013.86230	         6.19034e+57
          2014.66860	         5.00457e+57
          2015.47490	         6.90053e+57
          2016.28120	         5.88222e+57
          2017.08750	         4.65776e+57
          2017.89380	         6.02143e+57
          2018.70010	         6.84156e+57
          2019.50640	         7.03484e+57
          2020.31270	         6.97399e+57
          2021.11900	         6.36904e+57
          2021.92530	         6.37900e+57
          2022.73160	         7.48091e+57
          2023.53790	         6.70396e+57
          2024.34420	         7.53242e+57
          2025.15050	         6.13695e+57
          2025.95680	         5.52513e+57
          2026.76310	         5.53105e+57
          2027.56940	         6.24371e+57
          2028.37570	         7.23358e+57
          2029.18200	         5.12534e+57
          2029.98830	         4.87614e+57
          2030.79460	         6.14625e+57
          2031.60090	         6.11448e+57
          2032.40720	         6.53859e+57
          2033.21350	         5.67230e+57
          2034.01980	         4.68819e+57
          2034.82610	         4.00072e+57
          2035.63240	         5.74652e+57
          2036.43870	         5.58604e+57
          2037.24500	         6.79048e+57
          2038.05130	         6.47157e+57
          2038.85760	         6.52336e+57
          2039.66390	         5.87554e+57
          2040.47020	         6.15800e+57
          2041.27650	         6.49334e+57
          2042.08280	         5.35138e+57
          2042.88910	         5.80706e+57
          2043.69540	         6.42426e+57
          2044.50170	         7.34484e+57
          2045.30800	         6.68405e+57
          2046.11430	         4.92059e+57
          2046.92060	         5.63785e+57
          2047.72690	         6.92226e+57
          2048.53320	         6.24188e+57
          2049.33950	         5.49974e+57
          2050.14580	         5.49366e+57
          2050.95210	         6.92808e+57
          2051.75840	         6.96655e+57
          2052.56470	         5.96091e+57
          2053.37100	         4.85342e+57
          2054.17730	         5.46624e+57
          2054.98360	         5.90384e+57
          2055.78990	         4.86089e+57
          2056.59620	         2.59695e+57
          2057.40250	         5.75143e+57
          2058.20880	         7.52863e+57
          2059.01510	         5.81909e+57
          2059.82140	         6.71689e+57
          2060.62770	         1.13554e+58
          2061.43400	         1.75103e+58
          2062.24030	         1.08524e+58
          2063.04660	         5.55046e+57
          2063.85290	         1.57051e+57
          2064.65920	        -2.78656e+57
          2065.46550	        -8.40829e+57
          2066.27180	        -5.23692e+57
          2067.07810	         4.45975e+57
          2067.88440	         6.17866e+57
          2068.69070	         6.90294e+57
          2069.49700	         6.13095e+57
          2070.30330	         5.06297e+57
          2071.10960	         4.84105e+57
          2071.91590	         6.89849e+57
          2072.72220	         3.85268e+57
          2073.52850	         5.07943e+57
          2074.33480	         5.61072e+57
          2075.14110	         5.80587e+57
          2075.94740	         5.30242e+57
          2076.75370	         4.17994e+57
          2077.56000	         5.07683e+57
          2078.36630	         5.55974e+57
          2079.17260	         5.33124e+57
          2079.97890	         5.23623e+57
          2080.78520	         6.35004e+57
          2081.59150	         5.84794e+57
          2082.39780	         4.40944e+57
          2083.20410	         1.60780e+57
          2084.01040	         2.87494e+57
          2084.81670	         6.37201e+57
          2085.62300	         4.21089e+57
          2086.42930	         3.29122e+57
          2087.23560	         4.08433e+57
          2088.04190	         2.27874e+57
          2088.84820	         3.79973e+57
          2089.65450	         2.69231e+57
          2090.46080	         1.61204e+57
          2091.26710	         3.35271e+57
          2092.07340	         2.88182e+57
          2092.87970	         2.72408e+57
          2093.68600	         1.12415e+57
          2094.49230	         3.43014e+56
          2095.29860	         3.12759e+57
          2096.10490	         1.76341e+57
          2096.91120	        -1.03187e+57
          2097.71750	        -1.24551e+57
          2098.52380	         1.76039e+57
          2099.33010	         2.13841e+57
          2100.13640	         1.18070e+57
          2100.94270	         1.21863e+57
          2101.74900	         4.16069e+57
          2102.55530	         2.14294e+57
          2103.36160	         6.61917e+56
          2104.16790	         3.09101e+57
          2104.97420	         2.47621e+57
          2105.78050	        -7.66053e+56
          2106.58680	         8.49545e+55
          2107.39310	        -1.95761e+57
          2108.19940	        -2.86460e+57
          2109.00570	        -2.61143e+57
          2109.81200	        -4.71136e+55
          2110.61830	         2.50161e+57
          2111.42460	         2.79310e+57
          2112.23090	         9.51312e+56
          2113.03720	         1.24424e+57
          2113.84350	         3.63051e+57
          2114.64980	         3.18471e+57
          2115.45610	        -9.31514e+56
          2116.26240	        -2.31374e+57
          2117.06870	        -6.54473e+55
          2117.87500	        -3.68350e+57
          2118.68130	        -1.16867e+57
          2119.48760	         3.14568e+57
          2120.29390	         5.48019e+57
          2121.10020	         3.56812e+56
          2121.90650	         1.04169e+57
          2122.71280	         1.86744e+57
          2123.51910	         4.98499e+57
          2124.32540	         3.33208e+57
          2125.13170	         8.22336e+56
          2125.93800	         5.96637e+57
          2126.74430	        -1.96273e+56
          2127.55060	        -6.01890e+57
          2128.35690	        -5.22165e+57
          2129.16320	         1.49345e+57
          2129.96950	        -1.23917e+57
          2130.77580	        -2.44858e+57
          2131.58210	         6.53547e+55
          2132.38840	         2.75216e+56
          2133.19470	        -8.22165e+56
          2134.00100	         2.94983e+57
          2134.80730	        -4.45889e+57
          2135.61360	         3.84459e+57
          2136.41990	         6.68286e+57
          2137.22620	         6.10230e+57
          2138.03250	         2.24655e+57
          2138.83880	        -3.75672e+57
          2139.64510	        -1.63049e+57
          2140.45140	         1.86736e+57
          2141.25770	        -4.72741e+57
          2142.06400	        -2.48662e+57
          2142.87030	         1.44468e+57
          2143.67660	         5.81901e+57
          2144.48290	         6.06178e+57
          2145.28920	         1.45906e+58
          2146.09550	        -2.16583e+57
          2146.90180	        -8.93143e+57
          2147.70810	        -3.19974e+57
          2148.51440	        -8.64587e+57
          2149.32070	        -1.09794e+58
          2150.12700	        -7.76560e+57
          2150.93330	        -8.35635e+56
          2151.73960	         1.62099e+57
          2152.54590	        -3.56748e+56
          2153.35220	        -6.98038e+57
          2154.15850	         2.45596e+57
          2154.96480	         4.49870e+57
          2155.77110	        -9.24839e+57
          2156.57740	        -2.60945e+57
          2157.38370	        -2.78881e+57
          2158.19000	        -1.78477e+57
          2158.99630	        -1.51413e+57
          2159.80260	        -9.85139e+57
          2160.60890	        -1.10408e+58
          2161.41520	        -1.92065e+57
          2162.22150	        -7.30720e+56
          2163.02780	         3.47716e+57
          2163.83410	        -3.74994e+57
          2164.64040	        -1.40630e+58
          2165.44670	        -1.62904e+58
          2166.25300	        -8.30326e+57
          2167.05930	         2.29585e+57
          2167.86560	        -2.11037e+57
          2168.67190	        -4.11516e+57
          2169.47820	         8.54341e+55
          2170.28450	        -8.02645e+57
          2171.09080	        -5.41928e+57
          2171.89710	         5.23824e+57
          2172.70340	         8.34741e+57
          2173.50970	        -3.18458e+57
          2174.31600	        -4.58462e+57
          2175.12230	        -7.95226e+57
          2175.92860	        -2.74562e+57
          2176.73490	        -1.82168e+57
          2177.54120	         9.13645e+56
          2178.34750	        -4.24028e+57
          2179.15380	                 nan
          2179.96010	                 nan
          2180.76640	                 nan
          2181.57270	                 nan
          2182.37900	                 nan
          2183.18530	                 nan
          2183.99160	                 nan
          2184.79790	                 nan
          2185.60420	                 nan
          2186.41050	                 nan
          2187.21680	                 nan
          2188.02310	                 nan
          2188.82940	                 nan
          2189.63570	                 nan
          2190.44200	                 nan
          2191.24830	                 nan
          2192.05460	                 nan
          2192.86090	                 nan
          2193.66720	                 nan
          2194.47350	                 nan
          2195.27980	                 nan
          2196.08610	                 nan
          2196.89240	                 nan
          2197.69870	                 nan
          2198.50500	                 nan
          2199.31130	                 nan
          2200.11760	                 nan
          2200.92390	                 nan
          2201.73020	                 nan
          2202.53650	                 nan
          2203.34280	                 nan
          2204.14910	                 nan
          2204.95540	                 nan
          2205.76170	                 nan
          2206.56800	                 nan
          2207.37430	                 nan
          2208.18060	                 nan
          2208.98690	                 nan
          2209.79320	                 nan
          2210.59950	                 nan
          2211.40580	                 nan
          2212.21210	                 nan
          2213.01840	                 nan
          2213.82470	                 nan
          2214.63100	                 nan
          2215.43730	         0.00000e+00
