#sample_157_stacked_spectrum_rest_UV-bands_median_H-alpha_noDC.txt
#median Lum: 1.72691e+42
#Rest-frame wavelength (A) | Luminosity (erg/s/A)
#
          1110.00000	         0.00000e+00
          1110.80630	        -4.90182e+59
          1111.61260	         1.28419e+57
          1112.41890	         2.20116e+59
          1113.22520	        -1.08165e+58
          1114.03150	        -1.74276e+59
          1114.83780	         1.65025e+59
          1115.64410	        -3.92997e+57
          1116.45040	         5.50320e+57
          1117.25670	         2.81087e+58
          1118.06300	         1.22645e+58
          1118.86930	         4.90899e+58
          1119.67560	         1.53777e+59
          1120.48190	         2.40959e+58
          1121.28820	        -3.35771e+57
          1122.09450	         2.97607e+58
          1122.90080	         5.94327e+58
          1123.70710	         8.24245e+58
          1124.51340	         9.57114e+58
          1125.31970	         2.21019e+58
          1126.12600	        -1.88788e+58
          1126.93230	        -1.02801e+58
          1127.73860	        -5.46405e+58
          1128.54490	         1.18177e+58
          1129.35120	         8.33681e+57
          1130.15750	        -2.01604e+58
          1130.96380	        -5.11944e+58
          1131.77010	         2.57316e+58
          1132.57640	         6.06452e+58
          1133.38270	         2.47590e+58
          1134.18900	         1.49601e+58
          1134.99530	         2.17912e+58
          1135.80160	         2.04394e+58
          1136.60790	         3.62211e+58
          1137.41420	         2.35213e+58
          1138.22050	         3.42111e+58
          1139.02680	         1.98357e+58
          1139.83310	         3.29492e+58
          1140.63940	         2.53412e+58
          1141.44570	        -1.20936e+58
          1142.25200	        -2.91536e+58
          1143.05830	         2.05346e+57
          1143.86460	         1.40091e+58
          1144.67090	         2.29867e+58
          1145.47720	         9.31006e+57
          1146.28350	         1.19065e+58
          1147.08980	         1.80584e+58
          1147.89610	         2.28673e+58
          1148.70240	         2.20932e+58
          1149.50870	         2.22423e+58
          1150.31500	         1.82959e+57
          1151.12130	         1.14833e+58
          1151.92760	         9.07201e+57
          1152.73390	         8.55950e+57
          1153.54020	         2.03897e+58
          1154.34650	         1.73884e+58
          1155.15280	         2.07385e+58
          1155.95910	         1.49644e+58
          1156.76540	         7.18431e+57
          1157.57170	        -2.14010e+57
          1158.37800	        -8.86889e+57
          1159.18430	        -3.81462e+57
          1159.99060	         4.27204e+57
          1160.79690	         2.38265e+57
          1161.60320	         1.63339e+58
          1162.40950	         1.39583e+58
          1163.21580	         1.72653e+58
          1164.02210	         1.13982e+58
          1164.82840	         8.08406e+57
          1165.63470	         1.91127e+58
          1166.44100	         2.54023e+58
          1167.24730	         2.41688e+58
          1168.05360	         1.23837e+58
          1168.85990	         3.82116e+57
          1169.66620	         4.94562e+57
          1170.47250	         9.33562e+57
          1171.27880	         8.58183e+57
          1172.08510	         1.30817e+58
          1172.89140	         7.34937e+57
          1173.69770	         8.21980e+57
          1174.50400	         7.65909e+57
          1175.31030	         1.99514e+58
          1176.11660	         2.05648e+58
          1176.92290	         1.97469e+58
          1177.72920	         1.09441e+58
          1178.53550	         1.00759e+58
          1179.34180	         4.51542e+57
          1180.14810	         5.09710e+57
          1180.95440	         7.75170e+57
          1181.76070	         9.14692e+57
          1182.56700	         1.16150e+58
          1183.37330	         5.60441e+57
          1184.17960	         8.04147e+57
          1184.98590	         1.17056e+58
          1185.79220	         6.15926e+57
          1186.59850	         4.32463e+57
          1187.40480	         6.14684e+57
          1188.21110	         8.61713e+57
          1189.01740	         9.59553e+57
          1189.82370	         1.22340e+58
          1190.63000	         5.59016e+57
          1191.43630	         1.04399e+58
          1192.24260	         1.25126e+58
          1193.04890	         1.24773e+58
          1193.85520	         1.20902e+58
          1194.66150	         2.73033e+57
          1195.46780	         1.15085e+58
          1196.27410	         1.38470e+58
          1197.08040	         1.04964e+58
          1197.88670	         1.32070e+58
          1198.69300	         1.41912e+58
          1199.49930	         1.57503e+58
          1200.30560	         1.20321e+58
          1201.11190	         1.24697e+58
          1201.91820	         1.32951e+58
          1202.72450	         9.34932e+57
          1203.53080	         1.68693e+58
          1204.33710	         1.33589e+58
          1205.14340	         7.78485e+57
          1205.94970	         6.29915e+57
          1206.75600	         7.39001e+57
          1207.56230	         4.68136e+57
          1208.36860	         1.08085e+58
          1209.17490	         5.03942e+57
          1209.98120	         5.19199e+57
          1210.78750	         7.40079e+57
          1211.59380	         1.45223e+58
          1212.40010	         1.90275e+58
          1213.20640	         1.99055e+58
          1214.01270	         2.06448e+58
          1214.81900	         2.61480e+58
          1215.62530	         4.35620e+58
          1216.43160	         8.83715e+58
          1217.23790	         1.50152e+59
          1218.04420	         1.17757e+59
          1218.85050	         8.63585e+58
          1219.65680	         5.56259e+58
          1220.46310	         3.35955e+58
          1221.26940	         2.40527e+58
          1222.07570	         1.84134e+58
          1222.88200	         1.62201e+58
          1223.68830	         1.02601e+58
          1224.49460	         4.08110e+57
          1225.30090	         6.04148e+57
          1226.10720	         5.05066e+57
          1226.91350	         5.61218e+57
          1227.71980	         1.15550e+58
          1228.52610	         9.55758e+57
          1229.33240	         7.01154e+57
          1230.13870	         8.93459e+57
          1230.94500	         1.14493e+58
          1231.75130	         6.72679e+57
          1232.55760	         7.47057e+57
          1233.36390	         9.72968e+57
          1234.17020	         1.11089e+58
          1234.97650	         7.65821e+57
          1235.78280	         8.05408e+57
          1236.58910	         8.48094e+57
          1237.39540	         1.14626e+58
          1238.20170	         1.04853e+58
          1239.00800	         9.74123e+57
          1239.81430	         1.44880e+58
          1240.62060	         1.28812e+58
          1241.42690	         1.05514e+58
          1242.23320	         1.06431e+58
          1243.03950	         8.32553e+57
          1243.84580	         8.13525e+57
          1244.65210	         7.32811e+57
          1245.45840	         7.09229e+57
          1246.26470	         7.83586e+57
          1247.07100	         9.06660e+57
          1247.87730	         6.67580e+57
          1248.68360	         3.64348e+57
          1249.48990	         8.30584e+57
          1250.29620	         1.05364e+58
          1251.10250	         7.66372e+57
          1251.90880	         4.79437e+57
          1252.71510	         6.61323e+57
          1253.52140	         7.91874e+57
          1254.32770	         8.74426e+57
          1255.13400	         1.19442e+58
          1255.94030	         1.08581e+58
          1256.74660	         9.03702e+57
          1257.55290	         1.09927e+58
          1258.35920	         8.34952e+57
          1259.16550	         5.31118e+57
          1259.97180	         4.85448e+57
          1260.77810	         7.76360e+57
          1261.58440	         1.11087e+58
          1262.39070	         9.09098e+57
          1263.19700	         6.55049e+57
          1264.00330	         9.41538e+57
          1264.80960	         1.16031e+58
          1265.61590	         1.21761e+58
          1266.42220	         1.20373e+58
          1267.22850	         9.95568e+57
          1268.03480	         1.46033e+58
          1268.84110	         1.55571e+58
          1269.64740	         1.28210e+58
          1270.45370	         1.43198e+58
          1271.26000	         1.29109e+58
          1272.06630	         1.29874e+58
          1272.87260	         1.15892e+58
          1273.67890	         1.26242e+58
          1274.48520	         1.43027e+58
          1275.29150	         1.35733e+58
          1276.09780	         1.15453e+58
          1276.90410	         1.51720e+58
          1277.71040	         1.46704e+58
          1278.51670	         1.27972e+58
          1279.32300	         1.31408e+58
          1280.12930	         1.19684e+58
          1280.93560	         1.07763e+58
          1281.74190	         1.20096e+58
          1282.54820	         1.29201e+58
          1283.35450	         1.07995e+58
          1284.16080	         1.03661e+58
          1284.96710	         1.19672e+58
          1285.77340	         1.13723e+58
          1286.57970	         1.20048e+58
          1287.38600	         1.48544e+58
          1288.19230	         1.76463e+58
          1288.99860	         1.62935e+58
          1289.80490	         1.26957e+58
          1290.61120	         1.14146e+58
          1291.41750	         1.23875e+58
          1292.22380	         1.32598e+58
          1293.03010	         1.17109e+58
          1293.83640	         1.18542e+58
          1294.64270	         1.04911e+58
          1295.44900	         4.59149e+57
          1296.25530	         6.85119e+57
          1297.06160	         1.02103e+58
          1297.86790	         1.03439e+58
          1298.67420	         9.31742e+57
          1299.48050	         1.06333e+58
          1300.28680	         1.10236e+58
          1301.09310	         7.47166e+57
          1301.89940	         3.33877e+57
          1302.70570	         4.78779e+57
          1303.51200	         6.08023e+57
          1304.31830	         9.27763e+57
          1305.12460	         1.13783e+58
          1305.93090	         1.20215e+58
          1306.73720	         1.34102e+58
          1307.54350	         1.40609e+58
          1308.34980	         1.46194e+58
          1309.15610	         1.53933e+58
          1309.96240	         1.52400e+58
          1310.76870	         1.07360e+58
          1311.57500	         8.25331e+57
          1312.38130	         9.04969e+57
          1313.18760	         9.98479e+57
          1313.99390	         1.33512e+58
          1314.80020	         1.59602e+58
          1315.60650	         1.57036e+58
          1316.41280	         1.43867e+58
          1317.21910	         1.15005e+58
          1318.02540	         1.17171e+58
          1318.83170	         1.51684e+58
          1319.63800	         1.42198e+58
          1320.44430	         1.13994e+58
          1321.25060	         1.13163e+58
          1322.05690	         1.14771e+58
          1322.86320	         1.24859e+58
          1323.66950	         1.21547e+58
          1324.47580	         9.86231e+57
          1325.28210	         1.00477e+58
          1326.08840	         1.28910e+58
          1326.89470	         1.30912e+58
          1327.70100	         1.02758e+58
          1328.50730	         9.47231e+57
          1329.31360	         9.28303e+57
          1330.11990	         1.00077e+58
          1330.92620	         8.90853e+57
          1331.73250	         1.04758e+58
          1332.53880	         1.04942e+58
          1333.34510	         9.52398e+57
          1334.15140	         8.66356e+57
          1334.95770	         7.53611e+57
          1335.76400	         9.60682e+57
          1336.57030	         1.13453e+58
          1337.37660	         1.08890e+58
          1338.18290	         1.20320e+58
          1338.98920	         1.19633e+58
          1339.79550	         9.68716e+57
          1340.60180	         1.01731e+58
          1341.40810	         1.23149e+58
          1342.21440	         1.18663e+58
          1343.02070	         1.21892e+58
          1343.82700	         1.26680e+58
          1344.63330	         1.25302e+58
          1345.43960	         1.37071e+58
          1346.24590	         1.23748e+58
          1347.05220	         1.25242e+58
          1347.85850	         1.03072e+58
          1348.66480	         1.21202e+58
          1349.47110	         1.34824e+58
          1350.27740	         1.14009e+58
          1351.08370	         1.07920e+58
          1351.89000	         9.86619e+57
          1352.69630	         1.15364e+58
          1353.50260	         1.25986e+58
          1354.30890	         1.32315e+58
          1355.11520	         1.32082e+58
          1355.92150	         1.19135e+58
          1356.72780	         1.09568e+58
          1357.53410	         1.21683e+58
          1358.34040	         1.22517e+58
          1359.14670	         1.12239e+58
          1359.95300	         1.15927e+58
          1360.75930	         1.03429e+58
          1361.56560	         9.81482e+57
          1362.37190	         1.05172e+58
          1363.17820	         9.86333e+57
          1363.98450	         1.16312e+58
          1364.79080	         1.34829e+58
          1365.59710	         1.36910e+58
          1366.40340	         1.31193e+58
          1367.20970	         1.13920e+58
          1368.01600	         1.10407e+58
          1368.82230	         1.06150e+58
          1369.62860	         1.09574e+58
          1370.43490	         9.22023e+57
          1371.24120	         9.38804e+57
          1372.04750	         8.88263e+57
          1372.85380	         9.83096e+57
          1373.66010	         9.34584e+57
          1374.46640	         9.83027e+57
          1375.27270	         1.08320e+58
          1376.07900	         8.66802e+57
          1376.88530	         8.32533e+57
          1377.69160	         8.84492e+57
          1378.49790	         7.01649e+57
          1379.30420	         7.64299e+57
          1380.11050	         9.63494e+57
          1380.91680	         8.80460e+57
          1381.72310	         8.04114e+57
          1382.52940	         7.58444e+57
          1383.33570	         6.57128e+57
          1384.14200	         8.04934e+57
          1384.94830	         1.04614e+58
          1385.75460	         1.05097e+58
          1386.56090	         1.17514e+58
          1387.36720	         1.07207e+58
          1388.17350	         1.27249e+58
          1388.97980	         1.13963e+58
          1389.78610	         8.77711e+57
          1390.59240	         7.79770e+57
          1391.39870	         6.73357e+57
          1392.20500	         8.25296e+57
          1393.01130	         8.31595e+57
          1393.81760	         7.47113e+57
          1394.62390	         8.00133e+57
          1395.43020	         7.32474e+57
          1396.23650	         7.04374e+57
          1397.04280	         8.33645e+57
          1397.84910	         9.43445e+57
          1398.65540	         8.26739e+57
          1399.46170	         8.90560e+57
          1400.26800	         8.63498e+57
          1401.07430	         8.36101e+57
          1401.88060	         8.95843e+57
          1402.68690	         9.52038e+57
          1403.49320	         1.01953e+58
          1404.29950	         1.00143e+58
          1405.10580	         1.01634e+58
          1405.91210	         9.85869e+57
          1406.71840	         1.08817e+58
          1407.52470	         1.01326e+58
          1408.33100	         9.97064e+57
          1409.13730	         1.18197e+58
          1409.94360	         1.22726e+58
          1410.74990	         1.17062e+58
          1411.55620	         1.05731e+58
          1412.36250	         9.67795e+57
          1413.16880	         1.00756e+58
          1413.97510	         9.04292e+57
          1414.78140	         9.36537e+57
          1415.58770	         1.14670e+58
          1416.39400	         1.08088e+58
          1417.20030	         1.08296e+58
          1418.00660	         1.03854e+58
          1418.81290	         1.02340e+58
          1419.61920	         9.79855e+57
          1420.42550	         1.15221e+58
          1421.23180	         1.42241e+58
          1422.03810	         1.35289e+58
          1422.84440	         1.10815e+58
          1423.65070	         1.10004e+58
          1424.45700	         1.12270e+58
          1425.26330	         9.41719e+57
          1426.06960	         8.90853e+57
          1426.87590	         1.01941e+58
          1427.68220	         1.00169e+58
          1428.48850	         1.08536e+58
          1429.29480	         1.07762e+58
          1430.10110	         1.08011e+58
          1430.90740	         8.89542e+57
          1431.71370	         9.21702e+57
          1432.52000	         9.33584e+57
          1433.32630	         7.63016e+57
          1434.13260	         7.26322e+57
          1434.93890	         7.54012e+57
          1435.74520	         8.39480e+57
          1436.55150	         8.49344e+57
          1437.35780	         8.33514e+57
          1438.16410	         8.99681e+57
          1438.97040	         9.09363e+57
          1439.77670	         8.56759e+57
          1440.58300	         8.57536e+57
          1441.38930	         1.03913e+58
          1442.19560	         1.06208e+58
          1443.00190	         9.87666e+57
          1443.80820	         1.04921e+58
          1444.61450	         9.61882e+57
          1445.42080	         8.45094e+57
          1446.22710	         8.51694e+57
          1447.03340	         9.49583e+57
          1447.83970	         1.10647e+58
          1448.64600	         1.15985e+58
          1449.45230	         1.01883e+58
          1450.25860	         9.55776e+57
          1451.06490	         9.62219e+57
          1451.87120	         8.03214e+57
          1452.67750	         6.13286e+57
          1453.48380	         8.26212e+57
          1454.29010	         7.51715e+57
          1455.09640	         8.15933e+57
          1455.90270	         9.15209e+57
          1456.70900	         9.82918e+57
          1457.51530	         1.08930e+58
          1458.32160	         1.19567e+58
          1459.12790	         1.23145e+58
          1459.93420	         1.11021e+58
          1460.74050	         8.52831e+57
          1461.54680	         7.58401e+57
          1462.35310	         7.98205e+57
          1463.15940	         8.06951e+57
          1463.96570	         9.36100e+57
          1464.77200	         1.24064e+58
          1465.57830	         1.18560e+58
          1466.38460	         9.66430e+57
          1467.19090	         8.45815e+57
          1467.99720	         8.46962e+57
          1468.80350	         9.46477e+57
          1469.60980	         9.09748e+57
          1470.41610	         1.10086e+58
          1471.22240	         9.78699e+57
          1472.02870	         8.74375e+57
          1472.83500	         9.99752e+57
          1473.64130	         9.20270e+57
          1474.44760	         9.44565e+57
          1475.25390	         9.45189e+57
          1476.06020	         9.47265e+57
          1476.86650	         8.90360e+57
          1477.67280	         8.07038e+57
          1478.47910	         7.13629e+57
          1479.28540	         7.44927e+57
          1480.09170	         9.24604e+57
          1480.89800	         9.14494e+57
          1481.70430	         8.65132e+57
          1482.51060	         9.83825e+57
          1483.31690	         8.80209e+57
          1484.12320	         7.57760e+57
          1484.92950	         7.42182e+57
          1485.73580	         7.93951e+57
          1486.54210	         8.01451e+57
          1487.34840	         9.13006e+57
          1488.15470	         8.17872e+57
          1488.96100	         7.59496e+57
          1489.76730	         9.52231e+57
          1490.57360	         9.13661e+57
          1491.37990	         7.36115e+57
          1492.18620	         6.99522e+57
          1492.99250	         8.25287e+57
          1493.79880	         9.57937e+57
          1494.60510	         9.48967e+57
          1495.41140	         7.03983e+57
          1496.21770	         6.97665e+57
          1497.02400	         1.02800e+58
          1497.83030	         8.94495e+57
          1498.63660	         7.46963e+57
          1499.44290	         8.11019e+57
          1500.24920	         7.50271e+57
          1501.05550	         7.85269e+57
          1501.86180	         8.18472e+57
          1502.66810	         8.76424e+57
          1503.47440	         7.27925e+57
          1504.28070	         7.66852e+57
          1505.08700	         9.38814e+57
          1505.89330	         9.31865e+57
          1506.69960	         8.45366e+57
          1507.50590	         8.29054e+57
          1508.31220	         8.25875e+57
          1509.11850	         8.83528e+57
          1509.92480	         8.97155e+57
          1510.73110	         9.21011e+57
          1511.53740	         7.14003e+57
          1512.34370	         6.36632e+57
          1513.15000	         8.52169e+57
          1513.95630	         1.01041e+58
          1514.76260	         9.56700e+57
          1515.56890	         8.86278e+57
          1516.37520	         9.00862e+57
          1517.18150	         8.32820e+57
          1517.98780	         7.06665e+57
          1518.79410	         7.33704e+57
          1519.60040	         7.87998e+57
          1520.40670	         9.04528e+57
          1521.21300	         9.39294e+57
          1522.01930	         9.65066e+57
          1522.82560	         9.54996e+57
          1523.63190	         1.02338e+58
          1524.43820	         9.06359e+57
          1525.24450	         6.19578e+57
          1526.05080	         6.98147e+57
          1526.85710	         6.73034e+57
          1527.66340	         6.45468e+57
          1528.46970	         7.89689e+57
          1529.27600	         7.47873e+57
          1530.08230	         7.88404e+57
          1530.88860	         7.68530e+57
          1531.69490	         8.20506e+57
          1532.50120	         9.36324e+57
          1533.30750	         1.04294e+58
          1534.11380	         9.52752e+57
          1534.92010	         9.02377e+57
          1535.72640	         9.66044e+57
          1536.53270	         9.67279e+57
          1537.33900	         8.21752e+57
          1538.14530	         8.02901e+57
          1538.95160	         8.69313e+57
          1539.75790	         8.63210e+57
          1540.56420	         8.67164e+57
          1541.37050	         9.03482e+57
          1542.17680	         8.06011e+57
          1542.98310	         7.74159e+57
          1543.78940	         8.28412e+57
          1544.59570	         7.33402e+57
          1545.40200	         7.96946e+57
          1546.20830	         8.51886e+57
          1547.01460	         1.00994e+58
          1547.82090	         1.21483e+58
          1548.62720	         1.25470e+58
          1549.43350	         1.24578e+58
          1550.23980	         1.06984e+58
          1551.04610	         1.19694e+58
          1551.85240	         1.17137e+58
          1552.65870	         1.06465e+58
          1553.46500	         1.12119e+58
          1554.27130	         9.90502e+57
          1555.07760	         9.50672e+57
          1555.88390	         8.85196e+57
          1556.69020	         9.04034e+57
          1557.49650	         9.49511e+57
          1558.30280	         8.44571e+57
          1559.10910	         8.56135e+57
          1559.91540	         8.93478e+57
          1560.72170	         8.69874e+57
          1561.52800	         8.61827e+57
          1562.33430	         8.69140e+57
          1563.14060	         8.10442e+57
          1563.94690	         7.39043e+57
          1564.75320	         8.14688e+57
          1565.55950	         7.69659e+57
          1566.36580	         7.00125e+57
          1567.17210	         8.58345e+57
          1567.97840	         9.63223e+57
          1568.78470	         8.98579e+57
          1569.59100	         9.39749e+57
          1570.39730	         9.50573e+57
          1571.20360	         8.31837e+57
          1572.00990	         8.20252e+57
          1572.81620	         9.18452e+57
          1573.62250	         9.61975e+57
          1574.42880	         8.57086e+57
          1575.23510	         7.82880e+57
          1576.04140	         8.73858e+57
          1576.84770	         9.19473e+57
          1577.65400	         9.33326e+57
          1578.46030	         9.89724e+57
          1579.26660	         1.02830e+58
          1580.07290	         9.37467e+57
          1580.87920	         7.78356e+57
          1581.68550	         7.43984e+57
          1582.49180	         7.88121e+57
          1583.29810	         7.73549e+57
          1584.10440	         8.11794e+57
          1584.91070	         8.23533e+57
          1585.71700	         8.27930e+57
          1586.52330	         9.25101e+57
          1587.32960	         9.14749e+57
          1588.13590	         9.15179e+57
          1588.94220	         9.02232e+57
          1589.74850	         8.96178e+57
          1590.55480	         9.98065e+57
          1591.36110	         9.50565e+57
          1592.16740	         8.48180e+57
          1592.97370	         8.19080e+57
          1593.78000	         9.15756e+57
          1594.58630	         9.43354e+57
          1595.39260	         8.70201e+57
          1596.19890	         9.48657e+57
          1597.00520	         1.01117e+58
          1597.81150	         8.66286e+57
          1598.61780	         7.02561e+57
          1599.42410	         6.65862e+57
          1600.23040	         6.57039e+57
          1601.03670	         7.18937e+57
          1601.84300	         8.06154e+57
          1602.64930	         8.84175e+57
          1603.45560	         8.57913e+57
          1604.26190	         8.21075e+57
          1605.06820	         7.67341e+57
          1605.87450	         7.11028e+57
          1606.68080	         6.73688e+57
          1607.48710	         5.61427e+57
          1608.29340	         6.24762e+57
          1609.09970	         7.06746e+57
          1609.90600	         7.30212e+57
          1610.71230	         6.82968e+57
          1611.51860	         6.51310e+57
          1612.32490	         5.75055e+57
          1613.13120	         7.41899e+57
          1613.93750	         7.99810e+57
          1614.74380	         7.78953e+57
          1615.55010	         8.62888e+57
          1616.35640	         9.26144e+57
          1617.16270	         9.57661e+57
          1617.96900	         1.08201e+58
          1618.77530	         9.80509e+57
          1619.58160	         8.14605e+57
          1620.38790	         7.42569e+57
          1621.19420	         8.76800e+57
          1622.00050	         8.67118e+57
          1622.80680	         8.78579e+57
          1623.61310	         8.43001e+57
          1624.41940	         7.88574e+57
          1625.22570	         8.82479e+57
          1626.03200	         8.92053e+57
          1626.83830	         8.40569e+57
          1627.64460	         7.81502e+57
          1628.45090	         6.47479e+57
          1629.25720	         8.81650e+57
          1630.06350	         9.04952e+57
          1630.86980	         5.90764e+57
          1631.67610	         6.70819e+57
          1632.48240	         8.54373e+57
          1633.28870	         8.90094e+57
          1634.09500	         9.07513e+57
          1634.90130	         1.10802e+58
          1635.70760	         9.88111e+57
          1636.51390	         8.22002e+57
          1637.32020	         7.93332e+57
          1638.12650	         9.03913e+57
          1638.93280	         8.88061e+57
          1639.73910	         9.35409e+57
          1640.54540	         1.00517e+58
          1641.35170	         7.67712e+57
          1642.15800	         7.93408e+57
          1642.96430	         8.90850e+57
          1643.77060	         8.24711e+57
          1644.57690	         8.15667e+57
          1645.38320	         9.09861e+57
          1646.18950	         7.50703e+57
          1646.99580	         7.93726e+57
          1647.80210	         8.40242e+57
          1648.60840	         6.92837e+57
          1649.41470	         6.56815e+57
          1650.22100	         5.48802e+57
          1651.02730	         6.39892e+57
          1651.83360	         7.76020e+57
          1652.63990	         8.24455e+57
          1653.44620	         9.48613e+57
          1654.25250	         8.85914e+57
          1655.05880	         7.44740e+57
          1655.86510	         7.97817e+57
          1656.67140	         8.17971e+57
          1657.47770	         6.84712e+57
          1658.28400	         6.71013e+57
          1659.09030	         8.77906e+57
          1659.89660	         9.19577e+57
          1660.70290	         9.10753e+57
          1661.50920	         9.20618e+57
          1662.31550	         7.80036e+57
          1663.12180	         7.68517e+57
          1663.92810	         8.96630e+57
          1664.73440	         1.01607e+58
          1665.54070	         1.14154e+58
          1666.34700	         1.22473e+58
          1667.15330	         1.13509e+58
          1667.95960	         8.72742e+57
          1668.76590	         6.92878e+57
          1669.57220	         6.78921e+57
          1670.37850	         7.96241e+57
          1671.18480	         8.78293e+57
          1671.99110	         7.66669e+57
          1672.79740	         7.70465e+57
          1673.60370	         7.40072e+57
          1674.41000	         7.98121e+57
          1675.21630	         7.49806e+57
          1676.02260	         6.80592e+57
          1676.82890	         6.82063e+57
          1677.63520	         6.68120e+57
          1678.44150	         7.87991e+57
          1679.24780	         8.74212e+57
          1680.05410	         6.87088e+57
          1680.86040	         5.09971e+57
          1681.66670	         7.30115e+57
          1682.47300	         8.73845e+57
          1683.27930	         8.90983e+57
          1684.08560	         9.37496e+57
          1684.89190	         8.20052e+57
          1685.69820	         5.21217e+57
          1686.50450	         5.13517e+57
          1687.31080	         6.16285e+57
          1688.11710	         6.18925e+57
          1688.92340	         6.14265e+57
          1689.72970	         6.49250e+57
          1690.53600	         6.04895e+57
          1691.34230	         6.77315e+57
          1692.14860	         7.48613e+57
          1692.95490	         7.38098e+57
          1693.76120	         6.42292e+57
          1694.56750	         6.66710e+57
          1695.37380	         8.16240e+57
          1696.18010	         8.61301e+57
          1696.98640	         8.50047e+57
          1697.79270	         8.53686e+57
          1698.59900	         8.30919e+57
          1699.40530	         8.29263e+57
          1700.21160	         8.39130e+57
          1701.01790	         8.12697e+57
          1701.82420	         6.86820e+57
          1702.63050	         7.54728e+57
          1703.43680	         8.88231e+57
          1704.24310	         9.62066e+57
          1705.04940	         8.85227e+57
          1705.85570	         7.15132e+57
          1706.66200	         7.79224e+57
          1707.46830	         7.86093e+57
          1708.27460	         7.64413e+57
          1709.08090	         7.30016e+57
          1709.88720	         6.55081e+57
          1710.69350	         6.57104e+57
          1711.49980	         6.71148e+57
          1712.30610	         7.37199e+57
          1713.11240	         8.57375e+57
          1713.91870	         7.47776e+57
          1714.72500	         7.48006e+57
          1715.53130	         9.08931e+57
          1716.33760	         8.22059e+57
          1717.14390	         7.53401e+57
          1717.95020	         9.26921e+57
          1718.75650	         9.41233e+57
          1719.56280	         8.33126e+57
          1720.36910	         6.89891e+57
          1721.17540	         7.14267e+57
          1721.98170	         6.78536e+57
          1722.78800	         5.78560e+57
          1723.59430	         7.11742e+57
          1724.40060	         7.84178e+57
          1725.20690	         8.40870e+57
          1726.01320	         8.00344e+57
          1726.81950	         7.53485e+57
          1727.62580	         7.59765e+57
          1728.43210	         6.67558e+57
          1729.23840	         7.39584e+57
          1730.04470	         8.66733e+57
          1730.85100	         8.15463e+57
          1731.65730	         7.86113e+57
          1732.46360	         8.04726e+57
          1733.26990	         7.46749e+57
          1734.07620	         7.73856e+57
          1734.88250	         7.37730e+57
          1735.68880	         6.66223e+57
          1736.49510	         7.25213e+57
          1737.30140	         8.00113e+57
          1738.10770	         7.47141e+57
          1738.91400	         6.77040e+57
          1739.72030	         6.24965e+57
          1740.52660	         5.86742e+57
          1741.33290	         5.13167e+57
          1742.13920	         5.58672e+57
          1742.94550	         6.88747e+57
          1743.75180	         7.92458e+57
          1744.55810	         8.13388e+57
          1745.36440	         8.27886e+57
          1746.17070	         6.20992e+57
          1746.97700	         5.01874e+57
          1747.78330	         5.99493e+57
          1748.58960	         6.79417e+57
          1749.39590	         6.57066e+57
          1750.20220	         6.56238e+57
          1751.00850	         6.35562e+57
          1751.81480	         6.60898e+57
          1752.62110	         6.84656e+57
          1753.42740	         8.00448e+57
          1754.23370	         7.34555e+57
          1755.04000	         7.69888e+57
          1755.84630	         8.41358e+57
          1756.65260	         9.42799e+57
          1757.45890	         9.52356e+57
          1758.26520	         7.71937e+57
          1759.07150	         8.16406e+57
          1759.87780	         8.63108e+57
          1760.68410	         7.97418e+57
          1761.49040	         8.26853e+57
          1762.29670	         6.31965e+57
          1763.10300	         7.21270e+57
          1763.90930	         8.61734e+57
          1764.71560	         8.04916e+57
          1765.52190	         7.91379e+57
          1766.32820	         9.02752e+57
          1767.13450	         9.36144e+57
          1767.94080	         8.09487e+57
          1768.74710	         7.28796e+57
          1769.55340	         7.80841e+57
          1770.35970	         7.06959e+57
          1771.16600	         7.15203e+57
          1771.97230	         7.83025e+57
          1772.77860	         8.92827e+57
          1773.58490	         8.75720e+57
          1774.39120	         6.36136e+57
          1775.19750	         5.62027e+57
          1776.00380	         6.43494e+57
          1776.81010	         6.84259e+57
          1777.61640	         6.30053e+57
          1778.42270	         6.37951e+57
          1779.22900	         6.45550e+57
          1780.03530	         5.79529e+57
          1780.84160	         6.58552e+57
          1781.64790	         8.64206e+57
          1782.45420	         7.67005e+57
          1783.26050	         5.35878e+57
          1784.06680	         6.31549e+57
          1784.87310	         7.95568e+57
          1785.67940	         8.01581e+57
          1786.48570	         6.94575e+57
          1787.29200	         6.59158e+57
          1788.09830	         6.51594e+57
          1788.90460	         6.84081e+57
          1789.71090	         5.95475e+57
          1790.51720	         5.71580e+57
          1791.32350	         7.24511e+57
          1792.12980	         7.89982e+57
          1792.93610	         8.44826e+57
          1793.74240	         8.19557e+57
          1794.54870	         8.10267e+57
          1795.35500	         8.43142e+57
          1796.16130	         8.20927e+57
          1796.96760	         7.00744e+57
          1797.77390	         7.69621e+57
          1798.58020	         8.12477e+57
          1799.38650	         7.02338e+57
          1800.19280	         6.98018e+57
          1800.99910	         7.74307e+57
          1801.80540	         7.67315e+57
          1802.61170	         8.32457e+57
          1803.41800	         8.15676e+57
          1804.22430	         7.61490e+57
          1805.03060	         7.47289e+57
          1805.83690	         7.49028e+57
          1806.64320	         8.42912e+57
          1807.44950	         8.69726e+57
          1808.25580	         7.05597e+57
          1809.06210	         7.03290e+57
          1809.86840	         6.93655e+57
          1810.67470	         7.63954e+57
          1811.48100	         9.26947e+57
          1812.28730	         9.27560e+57
          1813.09360	         7.86194e+57
          1813.89990	         7.95075e+57
          1814.70620	         7.75450e+57
          1815.51250	         8.00821e+57
          1816.31880	         8.64755e+57
          1817.12510	         8.17535e+57
          1817.93140	         6.30230e+57
          1818.73770	         6.07184e+57
          1819.54400	         8.21776e+57
          1820.35030	         8.21167e+57
          1821.15660	         6.60494e+57
          1821.96290	         6.33343e+57
          1822.76920	         7.06144e+57
          1823.57550	         7.10297e+57
          1824.38180	         7.29999e+57
          1825.18810	         7.58290e+57
          1825.99440	         9.13844e+57
          1826.80070	         8.92668e+57
          1827.60700	         7.04531e+57
          1828.41330	         6.13850e+57
          1829.21960	         6.45265e+57
          1830.02590	         7.05392e+57
          1830.83220	         8.05189e+57
          1831.63850	         7.38318e+57
          1832.44480	         6.77263e+57
          1833.25110	         7.17856e+57
          1834.05740	         8.98210e+57
          1834.86370	         8.27413e+57
          1835.67000	         6.08011e+57
          1836.47630	         7.18251e+57
          1837.28260	         8.78755e+57
          1838.08890	         8.72855e+57
          1838.89520	         7.97415e+57
          1839.70150	         7.87175e+57
          1840.50780	         7.64336e+57
          1841.31410	         7.63419e+57
          1842.12040	         6.95219e+57
          1842.92670	         7.38972e+57
          1843.73300	         7.14811e+57
          1844.53930	         5.98348e+57
          1845.34560	         6.82693e+57
          1846.15190	         7.10969e+57
          1846.95820	         7.58726e+57
          1847.76450	         7.77101e+57
          1848.57080	         5.74362e+57
          1849.37710	         5.48783e+57
          1850.18340	         6.15808e+57
          1850.98970	         8.25220e+57
          1851.79600	         8.93861e+57
          1852.60230	         6.65739e+57
          1853.40860	         6.76976e+57
          1854.21490	         6.75304e+57
          1855.02120	         5.63796e+57
          1855.82750	         4.87108e+57
          1856.63380	         4.96984e+57
          1857.44010	         6.17711e+57
          1858.24640	         7.62544e+57
          1859.05270	         6.88101e+57
          1859.85900	         5.79612e+57
          1860.66530	         6.24988e+57
          1861.47160	         6.23804e+57
          1862.27790	         7.03527e+57
          1863.08420	         7.20411e+57
          1863.89050	         6.84916e+57
          1864.69680	         6.83408e+57
          1865.50310	         7.17461e+57
          1866.30940	         6.02778e+57
          1867.11570	         5.97627e+57
          1867.92200	         6.56745e+57
          1868.72830	         6.87521e+57
          1869.53460	         7.25155e+57
          1870.34090	         7.16475e+57
          1871.14720	         7.43712e+57
          1871.95350	         8.07899e+57
          1872.75980	         7.68818e+57
          1873.56610	         7.11068e+57
          1874.37240	         5.84227e+57
          1875.17870	         4.79455e+57
          1875.98500	         6.57809e+57
          1876.79130	         8.12680e+57
          1877.59760	         7.73737e+57
          1878.40390	         6.24078e+57
          1879.21020	         6.63969e+57
          1880.01650	         7.35610e+57
          1880.82280	         8.20893e+57
          1881.62910	         8.84566e+57
          1882.43540	         8.94680e+57
          1883.24170	         7.44444e+57
          1884.04800	         6.63278e+57
          1884.85430	         6.99420e+57
          1885.66060	         8.98396e+57
          1886.46690	         8.71062e+57
          1887.27320	         8.30821e+57
          1888.07950	         6.82931e+57
          1888.88580	         6.32208e+57
          1889.69210	         8.85140e+57
          1890.49840	         7.46376e+57
          1891.30470	         7.34633e+57
          1892.11100	         8.67383e+57
          1892.91730	         8.02119e+57
          1893.72360	         7.99602e+57
          1894.52990	         7.96171e+57
          1895.33620	         7.96238e+57
          1896.14250	         6.36682e+57
          1896.94880	         5.33886e+57
          1897.75510	         5.64414e+57
          1898.56140	         6.74106e+57
          1899.36770	         7.91506e+57
          1900.17400	         6.83217e+57
          1900.98030	         6.57285e+57
          1901.78660	         6.42808e+57
          1902.59290	         6.88590e+57
          1903.39920	         8.51456e+57
          1904.20550	         9.22505e+57
          1905.01180	         8.97584e+57
          1905.81810	         1.02319e+58
          1906.62440	         1.18048e+58
          1907.43070	         1.51536e+58
          1908.23700	         1.63278e+58
          1909.04330	         1.32213e+58
          1909.84960	         1.17268e+58
          1910.65590	         1.10843e+58
          1911.46220	         9.93782e+57
          1912.26850	         7.67526e+57
          1913.07480	         6.24257e+57
          1913.88110	         5.63133e+57
          1914.68740	         5.88129e+57
          1915.49370	         5.30719e+57
          1916.30000	         5.66640e+57
          1917.10630	         6.51947e+57
          1917.91260	         5.84791e+57
          1918.71890	         6.64147e+57
          1919.52520	         6.72659e+57
          1920.33150	         5.88380e+57
          1921.13780	         6.37891e+57
          1921.94410	         7.42056e+57
          1922.75040	         7.71009e+57
          1923.55670	         7.66301e+57
          1924.36300	         7.35683e+57
          1925.16930	         6.15000e+57
          1925.97560	         5.29479e+57
          1926.78190	         4.71083e+57
          1927.58820	         5.72890e+57
          1928.39450	         5.53819e+57
          1929.20080	         4.57468e+57
          1930.00710	         5.43908e+57
          1930.81340	         7.00947e+57
          1931.61970	         6.69061e+57
          1932.42600	         8.02628e+57
          1933.23230	         7.99163e+57
          1934.03860	         7.05616e+57
          1934.84490	         5.35268e+57
          1935.65120	         6.73944e+57
          1936.45750	         8.26619e+57
          1937.26380	         7.14516e+57
          1938.07010	         6.81954e+57
          1938.87640	         6.75643e+57
          1939.68270	         7.06582e+57
          1940.48900	         7.59693e+57
          1941.29530	         7.86581e+57
          1942.10160	         6.97975e+57
          1942.90790	         6.91556e+57
          1943.71420	         6.85472e+57
          1944.52050	         6.35630e+57
          1945.32680	         5.37228e+57
          1946.13310	         6.46568e+57
          1946.93940	         8.43366e+57
          1947.74570	         8.02660e+57
          1948.55200	         6.90802e+57
          1949.35830	         6.61168e+57
          1950.16460	         5.56700e+57
          1950.97090	         6.25087e+57
          1951.77720	         7.67259e+57
          1952.58350	         8.23673e+57
          1953.38980	         6.26899e+57
          1954.19610	         5.02514e+57
          1955.00240	         5.43290e+57
          1955.80870	         6.30842e+57
          1956.61500	         6.36139e+57
          1957.42130	         6.98536e+57
          1958.22760	         6.88533e+57
          1959.03390	         7.50499e+57
          1959.84020	         7.42677e+57
          1960.64650	         7.43350e+57
          1961.45280	         6.47710e+57
          1962.25910	         5.71713e+57
          1963.06540	         6.11161e+57
          1963.87170	         6.41645e+57
          1964.67800	         7.30846e+57
          1965.48430	         7.28775e+57
          1966.29060	         7.49188e+57
          1967.09690	         8.40256e+57
          1967.90320	         7.10815e+57
          1968.70950	         5.86500e+57
          1969.51580	         5.84894e+57
          1970.32210	         6.74172e+57
          1971.12840	         7.43463e+57
          1971.93470	         4.69685e+57
          1972.74100	         4.49466e+57
          1973.54730	         6.09552e+57
          1974.35360	         6.67302e+57
          1975.15990	         8.21937e+57
          1975.96620	         8.11618e+57
          1976.77250	         8.27529e+57
          1977.57880	         7.94011e+57
          1978.38510	         5.19981e+57
          1979.19140	         6.81132e+57
          1979.99770	         7.84168e+57
          1980.80400	         8.33871e+57
          1981.61030	         6.90634e+57
          1982.41660	         6.90067e+57
          1983.22290	         6.29857e+57
          1984.02920	         5.67506e+57
          1984.83550	         5.96075e+57
          1985.64180	         6.91483e+57
          1986.44810	         6.36008e+57
          1987.25440	         5.42146e+57
          1988.06070	         5.14170e+57
          1988.86700	         6.41350e+57
          1989.67330	         7.53250e+57
          1990.47960	         6.71444e+57
          1991.28590	         6.29251e+57
          1992.09220	         6.42109e+57
          1992.89850	         5.39504e+57
          1993.70480	         4.34699e+57
          1994.51110	         4.53738e+57
          1995.31740	         4.80378e+57
          1996.12370	         4.42811e+57
          1996.93000	         6.39499e+57
          1997.73630	         8.08124e+57
          1998.54260	         6.60688e+57
          1999.34890	         5.97729e+57
          2000.15520	         6.45274e+57
          2000.96150	         6.52097e+57
          2001.76780	         6.34460e+57
          2002.57410	         4.82302e+57
          2003.38040	         6.74548e+57
          2004.18670	         7.72406e+57
          2004.99300	         6.25240e+57
          2005.79930	         6.82869e+57
          2006.60560	         6.02732e+57
          2007.41190	         6.01545e+57
          2008.21820	         6.69253e+57
          2009.02450	         6.98329e+57
          2009.83080	         5.91997e+57
          2010.63710	         7.04130e+57
          2011.44340	         7.00757e+57
          2012.24970	         6.84798e+57
          2013.05600	         6.13970e+57
          2013.86230	         6.30313e+57
          2014.66860	         4.71685e+57
          2015.47490	         6.50544e+57
          2016.28120	         5.65268e+57
          2017.08750	         5.28686e+57
          2017.89380	         5.87324e+57
          2018.70010	         6.77889e+57
          2019.50640	         6.05145e+57
          2020.31270	         6.83129e+57
          2021.11900	         6.63357e+57
          2021.92530	         7.56430e+57
          2022.73160	         6.83857e+57
          2023.53790	         6.94535e+57
          2024.34420	         6.02547e+57
          2025.15050	         5.89757e+57
          2025.95680	         5.66476e+57
          2026.76310	         6.65645e+57
          2027.56940	         6.30216e+57
          2028.37570	         6.36009e+57
          2029.18200	         6.93594e+57
          2029.98830	         7.42035e+57
          2030.79460	         7.40613e+57
          2031.60090	         6.05737e+57
          2032.40720	         6.97725e+57
          2033.21350	         5.98414e+57
          2034.01980	         5.26672e+57
          2034.82610	         4.76485e+57
          2035.63240	         5.69543e+57
          2036.43870	         5.15477e+57
          2037.24500	         6.43121e+57
          2038.05130	         7.02213e+57
          2038.85760	         4.92710e+57
          2039.66390	         5.56216e+57
          2040.47020	         5.83778e+57
          2041.27650	         5.99764e+57
          2042.08280	         5.66009e+57
          2042.88910	         5.91681e+57
          2043.69540	         5.80363e+57
          2044.50170	         5.70218e+57
          2045.30800	         5.83413e+57
          2046.11430	         4.41105e+57
          2046.92060	         5.38779e+57
          2047.72690	         6.41974e+57
          2048.53320	         4.88229e+57
          2049.33950	         4.78923e+57
          2050.14580	         5.15010e+57
          2050.95210	         6.06367e+57
          2051.75840	         7.36336e+57
          2052.56470	         6.15242e+57
          2053.37100	         4.52055e+57
          2054.17730	         6.32590e+57
          2054.98360	         5.43634e+57
          2055.78990	         4.52430e+57
          2056.59620	         3.01749e+57
          2057.40250	         4.90817e+57
          2058.20880	         7.59462e+57
          2059.01510	         7.20287e+57
          2059.82140	         7.19038e+57
          2060.62770	         1.07518e+58
          2061.43400	         1.66401e+58
          2062.24030	         1.09866e+58
          2063.04660	         4.96470e+57
          2063.85290	         1.12614e+57
          2064.65920	        -9.18717e+56
          2065.46550	        -8.70892e+57
          2066.27180	        -6.89673e+57
          2067.07810	         1.15725e+57
          2067.88440	         4.53167e+57
          2068.69070	         6.04148e+57
          2069.49700	         6.18986e+57
          2070.30330	         6.12461e+57
          2071.10960	         5.13640e+57
          2071.91590	         7.08550e+57
          2072.72220	         3.88427e+57
          2073.52850	         4.26497e+57
          2074.33480	         3.73153e+57
          2075.14110	         4.44782e+57
          2075.94740	         4.07683e+57
          2076.75370	         5.51735e+57
          2077.56000	         5.57702e+57
          2078.36630	         6.47840e+57
          2079.17260	         4.31831e+57
          2079.97890	         6.11887e+57
          2080.78520	         4.72524e+57
          2081.59150	         4.85359e+57
          2082.39780	         4.74663e+57
          2083.20410	         2.04477e+57
          2084.01040	         1.71803e+57
          2084.81670	         3.94136e+57
          2085.62300	         5.23684e+57
          2086.42930	         3.54226e+57
          2087.23560	         2.12655e+57
          2088.04190	         4.19689e+57
          2088.84820	         2.67492e+57
          2089.65450	         5.11486e+57
          2090.46080	         1.05393e+57
          2091.26710	         2.49460e+57
          2092.07340	         3.85346e+57
          2092.87970	         1.30834e+57
          2093.68600	        -1.80407e+57
          2094.49230	         9.89632e+56
          2095.29860	         4.89801e+57
          2096.10490	         2.13469e+57
          2096.91120	         4.88943e+56
          2097.71750	        -8.42411e+55
          2098.52380	         1.44058e+57
          2099.33010	         1.16105e+57
          2100.13640	         4.02689e+56
          2100.94270	         1.54951e+57
          2101.74900	         4.92348e+57
          2102.55530	         3.83095e+57
          2103.36160	         1.14304e+57
          2104.16790	         2.62339e+57
          2104.97420	         2.15748e+57
          2105.78050	        -2.92889e+55
          2106.58680	        -1.12700e+57
          2107.39310	        -1.24374e+57
          2108.19940	         3.57656e+57
          2109.00570	         1.75881e+57
          2109.81200	         1.39727e+57
          2110.61830	         3.39503e+57
          2111.42460	         1.68628e+57
          2112.23090	         2.42507e+56
          2113.03720	        -1.30374e+57
          2113.84350	        -2.69993e+57
          2114.64980	         4.37052e+55
          2115.45610	        -2.18201e+57
          2116.26240	        -5.47561e+56
          2117.06870	        -1.44054e+57
          2117.87500	        -3.36867e+57
          2118.68130	        -6.52675e+56
          2119.48760	         4.22940e+57
          2120.29390	        -1.76160e+57
          2121.10020	        -8.42598e+57
          2121.90650	        -1.38985e+57
          2122.71280	         2.36505e+57
          2123.51910	         4.39420e+57
          2124.32540	         3.55220e+56
          2125.13170	        -2.74932e+57
          2125.93800	        -2.54091e+57
          2126.74430	        -3.23307e+57
          2127.55060	        -5.12462e+57
          2128.35690	        -7.48767e+57
          2129.16320	        -4.47865e+57
          2129.96950	        -3.44750e+56
          2130.77580	         4.24981e+57
          2131.58210	         2.08258e+57
          2132.38840	         4.59758e+55
          2133.19470	         1.45719e+56
          2134.00100	         5.48521e+57
          2134.80730	        -5.38342e+57
          2135.61360	        -1.66838e+57
          2136.41990	         7.14632e+57
          2137.22620	         5.28100e+57
          2138.03250	         2.63889e+57
          2138.83880	        -2.29888e+57
          2139.64510	        -4.43643e+57
          2140.45140	        -2.99578e+57
          2141.25770	        -1.01787e+58
          2142.06400	        -5.32216e+57
          2142.87030	         8.10441e+57
          2143.67660	         6.99213e+57
          2144.48290	         8.01601e+57
          2145.28920	         1.38549e+58
          2146.09550	        -1.35800e+57
          2146.90180	        -1.30745e+58
          2147.70810	        -9.68834e+57
          2148.51440	        -1.28699e+58
          2149.32070	        -2.45042e+57
          2150.12700	         9.86963e+56
          2150.93330	        -4.37664e+57
          2151.73960	        -4.00723e+57
          2152.54590	        -2.74530e+57
          2153.35220	        -1.62634e+57
          2154.15850	         2.85400e+57
          2154.96480	         8.09650e+57
          2155.77110	         2.58095e+57
          2156.57740	        -1.42458e+58
          2157.38370	        -4.54588e+57
          2158.19000	        -2.27990e+56
          2158.99630	         1.24736e+58
          2159.80260	        -1.17669e+56
          2160.60890	        -1.28583e+58
          2161.41520	        -9.00586e+57
          2162.22150	         2.89140e+57
          2163.02780	         2.23678e+57
          2163.83410	        -2.47669e+57
          2164.64040	        -8.71008e+57
          2165.44670	        -1.59671e+58
          2166.25300	        -1.32433e+58
          2167.05930	        -5.69697e+56
          2167.86560	        -9.55736e+57
          2168.67190	        -7.67509e+57
          2169.47820	        -1.34843e+58
          2170.28450	        -1.69819e+57
          2171.09080	        -6.81393e+56
          2171.89710	         3.59874e+57
          2172.70340	         8.70695e+56
          2173.50970	        -3.51871e+57
          2174.31600	        -2.47347e+57
          2175.12230	        -8.58250e+55
          2175.92860	        -3.09086e+57
          2176.73490	        -4.43865e+57
          2177.54120	        -7.28099e+57
          2178.34750	        -5.02916e+57
          2179.15380	                 nan
          2179.96010	                 nan
          2180.76640	                 nan
          2181.57270	                 nan
          2182.37900	                 nan
          2183.18530	                 nan
          2183.99160	                 nan
          2184.79790	                 nan
          2185.60420	                 nan
          2186.41050	                 nan
          2187.21680	                 nan
          2188.02310	                 nan
          2188.82940	                 nan
          2189.63570	                 nan
          2190.44200	                 nan
          2191.24830	                 nan
          2192.05460	                 nan
          2192.86090	                 nan
          2193.66720	                 nan
          2194.47350	                 nan
          2195.27980	                 nan
          2196.08610	                 nan
          2196.89240	                 nan
          2197.69870	                 nan
          2198.50500	                 nan
          2199.31130	                 nan
          2200.11760	                 nan
          2200.92390	                 nan
          2201.73020	                 nan
          2202.53650	                 nan
          2203.34280	                 nan
          2204.14910	                 nan
          2204.95540	                 nan
          2205.76170	                 nan
          2206.56800	                 nan
          2207.37430	                 nan
          2208.18060	                 nan
          2208.98690	                 nan
          2209.79320	                 nan
          2210.59950	                 nan
          2211.40580	                 nan
          2212.21210	                 nan
          2213.01840	                 nan
          2213.82470	                 nan
          2214.63100	                 nan
          2215.43730	         0.00000e+00
