#sample_130_stacked_spectrum_rest_UV-bands_median_H-alpha_noDC.txt
#median Lum: 1.69755e+42
#Rest-frame wavelength (A) | Luminosity (erg/s/A)
#
          1110.00000	         0.00000e+00
          1110.80630	         1.89297e+59
          1111.61260	        -5.65163e+57
          1112.41890	         1.56064e+59
          1113.22520	         1.38435e+59
          1114.03150	        -1.76090e+58
          1114.83780	         2.47324e+59
          1115.64410	         1.35752e+59
          1116.45040	         2.08538e+59
          1117.25670	         2.22391e+58
          1118.06300	         2.69252e+59
          1118.86930	        -1.21985e+58
          1119.67560	        -2.22536e+58
          1120.48190	        -2.35929e+58
          1121.28820	        -1.28615e+59
          1122.09450	         6.32329e+57
          1122.90080	         1.32694e+59
          1123.70710	         8.04842e+58
          1124.51340	         1.15860e+59
          1125.31970	         2.76166e+58
          1126.12600	        -2.31895e+58
          1126.93230	        -5.26250e+58
          1127.73860	        -4.11020e+57
          1128.54490	        -4.65443e+58
          1129.35120	        -1.10681e+58
          1130.15750	        -3.32699e+58
          1130.96380	        -4.14816e+58
          1131.77010	         7.64103e+58
          1132.57640	         6.37673e+58
          1133.38270	         2.02163e+58
          1134.18900	         6.11568e+57
          1134.99530	         3.23999e+58
          1135.80160	         4.00929e+58
          1136.60790	         1.70595e+58
          1137.41420	        -8.49013e+57
          1138.22050	         5.59793e+58
          1139.02680	         3.92619e+58
          1139.83310	         3.12975e+58
          1140.63940	         9.78423e+57
          1141.44570	        -1.31760e+58
          1142.25200	        -1.67337e+58
          1143.05830	         2.05853e+58
          1143.86460	         1.08017e+58
          1144.67090	         2.54146e+58
          1145.47720	         1.97128e+58
          1146.28350	         1.08406e+58
          1147.08980	         1.78485e+58
          1147.89610	         1.54134e+58
          1148.70240	         3.02186e+58
          1149.50870	         2.57905e+58
          1150.31500	         2.09888e+58
          1151.12130	        -4.09699e+57
          1151.92760	        -8.68867e+57
          1152.73390	         1.07652e+57
          1153.54020	         1.05861e+58
          1154.34650	         2.55424e+58
          1155.15280	         2.33094e+58
          1155.95910	         1.18810e+58
          1156.76540	         1.83138e+58
          1157.57170	         3.15067e+57
          1158.37800	        -2.77102e+57
          1159.18430	        -1.21227e+58
          1159.99060	        -2.78142e+55
          1160.79690	        -4.74067e+56
          1161.60320	         1.31850e+58
          1162.40950	         1.12765e+58
          1163.21580	         2.24032e+58
          1164.02210	         1.38127e+58
          1164.82840	         1.78190e+58
          1165.63470	         2.36548e+58
          1166.44100	         2.68508e+58
          1167.24730	         1.44953e+58
          1168.05360	         6.00749e+57
          1168.85990	         8.65134e+57
          1169.66620	         8.31695e+57
          1170.47250	         1.15691e+58
          1171.27880	         1.51905e+58
          1172.08510	         1.75410e+58
          1172.89140	         1.90580e+58
          1173.69770	        -3.06046e+57
          1174.50400	         7.14086e+57
          1175.31030	         1.85150e+58
          1176.11660	         1.49019e+58
          1176.92290	         1.64274e+58
          1177.72920	         1.08808e+58
          1178.53550	         7.18629e+57
          1179.34180	         6.53163e+57
          1180.14810	         3.80190e+57
          1180.95440	         5.75899e+57
          1181.76070	         6.97468e+57
          1182.56700	         7.47409e+57
          1183.37330	         9.20876e+57
          1184.17960	         1.39418e+58
          1184.98590	         1.07012e+58
          1185.79220	         6.81863e+57
          1186.59850	         8.35479e+57
          1187.40480	         6.40547e+57
          1188.21110	         1.71364e+58
          1189.01740	         9.38981e+57
          1189.82370	         1.26111e+58
          1190.63000	         1.34639e+58
          1191.43630	         1.00507e+58
          1192.24260	         6.78332e+57
          1193.04890	         1.11437e+58
          1193.85520	         9.10475e+57
          1194.66150	         3.85638e+57
          1195.46780	         1.24227e+58
          1196.27410	         1.46820e+58
          1197.08040	         1.10727e+58
          1197.88670	         1.85326e+58
          1198.69300	         1.96389e+58
          1199.49930	         1.80202e+58
          1200.30560	         9.91920e+57
          1201.11190	         9.18028e+57
          1201.91820	         1.15048e+58
          1202.72450	         7.16995e+57
          1203.53080	         1.04619e+58
          1204.33710	         6.16866e+57
          1205.14340	         6.41738e+57
          1205.94970	         3.30057e+57
          1206.75600	         6.38696e+57
          1207.56230	         3.94595e+57
          1208.36860	         7.96891e+57
          1209.17490	         1.39547e+57
          1209.98120	         5.59328e+57
          1210.78750	         8.95091e+57
          1211.59380	         1.32579e+58
          1212.40010	         1.73943e+58
          1213.20640	         2.54343e+58
          1214.01270	         2.50327e+58
          1214.81900	         2.30235e+58
          1215.62530	         4.49439e+58
          1216.43160	         9.10580e+58
          1217.23790	         1.51758e+59
          1218.04420	         1.17988e+59
          1218.85050	         8.72802e+58
          1219.65680	         5.72881e+58
          1220.46310	         3.53015e+58
          1221.26940	         2.28080e+58
          1222.07570	         1.31573e+58
          1222.88200	         1.08723e+58
          1223.68830	         1.06507e+58
          1224.49460	         5.99025e+57
          1225.30090	         5.52333e+57
          1226.10720	         5.85489e+57
          1226.91350	         8.28635e+57
          1227.71980	         8.65961e+57
          1228.52610	         9.31925e+57
          1229.33240	         7.11836e+57
          1230.13870	         8.08700e+57
          1230.94500	         9.09972e+57
          1231.75130	         7.01111e+57
          1232.55760	         8.83725e+57
          1233.36390	         9.30159e+57
          1234.17020	         6.61720e+57
          1234.97650	         5.83365e+57
          1235.78280	         5.19073e+57
          1236.58910	         5.86576e+57
          1237.39540	         1.05794e+58
          1238.20170	         9.82283e+57
          1239.00800	         1.02567e+58
          1239.81430	         1.39891e+58
          1240.62060	         1.07246e+58
          1241.42690	         1.09826e+58
          1242.23320	         1.31653e+58
          1243.03950	         1.06268e+58
          1243.84580	         1.02942e+58
          1244.65210	         9.73428e+57
          1245.45840	         9.26576e+57
          1246.26470	         6.53044e+57
          1247.07100	         7.85744e+57
          1247.87730	         7.18051e+57
          1248.68360	         4.70957e+57
          1249.48990	         7.10580e+57
          1250.29620	         9.97157e+57
          1251.10250	         8.70252e+57
          1251.90880	         5.46607e+57
          1252.71510	         5.30231e+57
          1253.52140	         8.31122e+57
          1254.32770	         9.42192e+57
          1255.13400	         1.35867e+58
          1255.94030	         1.27748e+58
          1256.74660	         1.02733e+58
          1257.55290	         1.18875e+58
          1258.35920	         8.27655e+57
          1259.16550	         5.57334e+57
          1259.97180	         5.26073e+57
          1260.77810	         8.64611e+57
          1261.58440	         1.25661e+58
          1262.39070	         6.68191e+57
          1263.19700	         7.26925e+57
          1264.00330	         8.75701e+57
          1264.80960	         1.07535e+58
          1265.61590	         1.34888e+58
          1266.42220	         1.20047e+58
          1267.22850	         1.15532e+58
          1268.03480	         1.45932e+58
          1268.84110	         1.41427e+58
          1269.64740	         1.30885e+58
          1270.45370	         1.41620e+58
          1271.26000	         1.21713e+58
          1272.06630	         1.38240e+58
          1272.87260	         1.37599e+58
          1273.67890	         1.30921e+58
          1274.48520	         1.18366e+58
          1275.29150	         1.26065e+58
          1276.09780	         1.27603e+58
          1276.90410	         1.46992e+58
          1277.71040	         1.37604e+58
          1278.51670	         1.16197e+58
          1279.32300	         1.23744e+58
          1280.12930	         1.39803e+58
          1280.93560	         1.27278e+58
          1281.74190	         1.14697e+58
          1282.54820	         1.24140e+58
          1283.35450	         1.13148e+58
          1284.16080	         1.31412e+58
          1284.96710	         1.50355e+58
          1285.77340	         9.94481e+57
          1286.57970	         7.36145e+57
          1287.38600	         1.36541e+58
          1288.19230	         1.71003e+58
          1288.99860	         1.67605e+58
          1289.80490	         1.40532e+58
          1290.61120	         1.32408e+58
          1291.41750	         1.55339e+58
          1292.22380	         1.53017e+58
          1293.03010	         1.31805e+58
          1293.83640	         1.27634e+58
          1294.64270	         1.00293e+58
          1295.44900	         6.93380e+57
          1296.25530	         8.97292e+57
          1297.06160	         1.12998e+58
          1297.86790	         9.62192e+57
          1298.67420	         7.26711e+57
          1299.48050	         8.04287e+57
          1300.28680	         9.89036e+57
          1301.09310	         9.02560e+57
          1301.89940	         5.22629e+57
          1302.70570	         7.08985e+57
          1303.51200	         9.14480e+57
          1304.31830	         8.95467e+57
          1305.12460	         1.13806e+58
          1305.93090	         1.19889e+58
          1306.73720	         1.28773e+58
          1307.54350	         1.56332e+58
          1308.34980	         1.61583e+58
          1309.15610	         1.40566e+58
          1309.96240	         1.36841e+58
          1310.76870	         1.49206e+58
          1311.57500	         1.27689e+58
          1312.38130	         1.06683e+58
          1313.18760	         1.35212e+58
          1313.99390	         1.48860e+58
          1314.80020	         1.64464e+58
          1315.60650	         1.58443e+58
          1316.41280	         1.28697e+58
          1317.21910	         1.13990e+58
          1318.02540	         1.08968e+58
          1318.83170	         1.25157e+58
          1319.63800	         1.36105e+58
          1320.44430	         1.37168e+58
          1321.25060	         1.38883e+58
          1322.05690	         1.28971e+58
          1322.86320	         1.31268e+58
          1323.66950	         1.16445e+58
          1324.47580	         9.15946e+57
          1325.28210	         9.87920e+57
          1326.08840	         1.18897e+58
          1326.89470	         1.27661e+58
          1327.70100	         1.06076e+58
          1328.50730	         7.67568e+57
          1329.31360	         8.63476e+57
          1330.11990	         9.10345e+57
          1330.92620	         9.78161e+57
          1331.73250	         9.99070e+57
          1332.53880	         8.84270e+57
          1333.34510	         8.45307e+57
          1334.15140	         8.45615e+57
          1334.95770	         7.92907e+57
          1335.76400	         9.13002e+57
          1336.57030	         1.07942e+58
          1337.37660	         1.05321e+58
          1338.18290	         1.07686e+58
          1338.98920	         1.20268e+58
          1339.79550	         1.23925e+58
          1340.60180	         1.18348e+58
          1341.40810	         1.37350e+58
          1342.21440	         1.13452e+58
          1343.02070	         1.07261e+58
          1343.82700	         1.23819e+58
          1344.63330	         1.03189e+58
          1345.43960	         9.84054e+57
          1346.24590	         9.40219e+57
          1347.05220	         1.14149e+58
          1347.85850	         1.21601e+58
          1348.66480	         1.30716e+58
          1349.47110	         1.48267e+58
          1350.27740	         1.26938e+58
          1351.08370	         1.10714e+58
          1351.89000	         1.17272e+58
          1352.69630	         1.23458e+58
          1353.50260	         1.30231e+58
          1354.30890	         1.30256e+58
          1355.11520	         1.21689e+58
          1355.92150	         1.16097e+58
          1356.72780	         1.12873e+58
          1357.53410	         1.06094e+58
          1358.34040	         1.03998e+58
          1359.14670	         1.12437e+58
          1359.95300	         1.17174e+58
          1360.75930	         1.16954e+58
          1361.56560	         1.10938e+58
          1362.37190	         1.11266e+58
          1363.17820	         1.09591e+58
          1363.98450	         1.12011e+58
          1364.79080	         1.17835e+58
          1365.59710	         1.36747e+58
          1366.40340	         1.30917e+58
          1367.20970	         1.12088e+58
          1368.01600	         1.16822e+58
          1368.82230	         9.55848e+57
          1369.62860	         9.74333e+57
          1370.43490	         9.81499e+57
          1371.24120	         1.01064e+58
          1372.04750	         9.05926e+57
          1372.85380	         1.22437e+58
          1373.66010	         1.17001e+58
          1374.46640	         1.00830e+58
          1375.27270	         1.00454e+58
          1376.07900	         8.72683e+57
          1376.88530	         8.94391e+57
          1377.69160	         8.80284e+57
          1378.49790	         6.61320e+57
          1379.30420	         6.48262e+57
          1380.11050	         8.69621e+57
          1380.91680	         8.75110e+57
          1381.72310	         7.36170e+57
          1382.52940	         7.82613e+57
          1383.33570	         9.13286e+57
          1384.14200	         9.93129e+57
          1384.94830	         1.07535e+58
          1385.75460	         1.04912e+58
          1386.56090	         1.09542e+58
          1387.36720	         1.04409e+58
          1388.17350	         1.18223e+58
          1388.97980	         1.17560e+58
          1389.78610	         9.54349e+57
          1390.59240	         8.30237e+57
          1391.39870	         7.37035e+57
          1392.20500	         8.15388e+57
          1393.01130	         8.56335e+57
          1393.81760	         8.08055e+57
          1394.62390	         7.23871e+57
          1395.43020	         7.06961e+57
          1396.23650	         6.54677e+57
          1397.04280	         6.25562e+57
          1397.84910	         8.24951e+57
          1398.65540	         8.76682e+57
          1399.46170	         9.40827e+57
          1400.26800	         8.32579e+57
          1401.07430	         7.34237e+57
          1401.88060	         7.94040e+57
          1402.68690	         1.02346e+58
          1403.49320	         1.07497e+58
          1404.29950	         1.02223e+58
          1405.10580	         1.04969e+58
          1405.91210	         1.01836e+58
          1406.71840	         1.01383e+58
          1407.52470	         1.08564e+58
          1408.33100	         1.14489e+58
          1409.13730	         1.16977e+58
          1409.94360	         1.18601e+58
          1410.74990	         1.09884e+58
          1411.55620	         9.62014e+57
          1412.36250	         8.70586e+57
          1413.16880	         8.71122e+57
          1413.97510	         8.15807e+57
          1414.78140	         8.10709e+57
          1415.58770	         1.06641e+58
          1416.39400	         1.12483e+58
          1417.20030	         1.10480e+58
          1418.00660	         9.57725e+57
          1418.81290	         1.11274e+58
          1419.61920	         1.19778e+58
          1420.42550	         1.26490e+58
          1421.23180	         1.33744e+58
          1422.03810	         1.10222e+58
          1422.84440	         1.12362e+58
          1423.65070	         1.23325e+58
          1424.45700	         1.13457e+58
          1425.26330	         8.90138e+57
          1426.06960	         9.49197e+57
          1426.87590	         9.73830e+57
          1427.68220	         1.00739e+58
          1428.48850	         1.11425e+58
          1429.29480	         9.58682e+57
          1430.10110	         8.56288e+57
          1430.90740	         8.66119e+57
          1431.71370	         8.86491e+57
          1432.52000	         8.74374e+57
          1433.32630	         8.04237e+57
          1434.13260	         7.72199e+57
          1434.93890	         8.28128e+57
          1435.74520	         9.28862e+57
          1436.55150	         1.04144e+58
          1437.35780	         1.03417e+58
          1438.16410	         9.36905e+57
          1438.97040	         9.04105e+57
          1439.77670	         8.53497e+57
          1440.58300	         8.81384e+57
          1441.38930	         9.78997e+57
          1442.19560	         1.02695e+58
          1443.00190	         9.98249e+57
          1443.80820	         1.02604e+58
          1444.61450	         9.58164e+57
          1445.42080	         9.60773e+57
          1446.22710	         9.81697e+57
          1447.03340	         9.46483e+57
          1447.83970	         1.14872e+58
          1448.64600	         1.08322e+58
          1449.45230	         9.92218e+57
          1450.25860	         9.73237e+57
          1451.06490	         8.67543e+57
          1451.87120	         7.36954e+57
          1452.67750	         6.62155e+57
          1453.48380	         7.93181e+57
          1454.29010	         7.89741e+57
          1455.09640	         8.40795e+57
          1455.90270	         9.80117e+57
          1456.70900	         9.11904e+57
          1457.51530	         9.89027e+57
          1458.32160	         1.26188e+58
          1459.12790	         1.31668e+58
          1459.93420	         1.15255e+58
          1460.74050	         9.10488e+57
          1461.54680	         8.33597e+57
          1462.35310	         6.84267e+57
          1463.15940	         9.39840e+57
          1463.96570	         1.17983e+58
          1464.77200	         1.14570e+58
          1465.57830	         1.05329e+58
          1466.38460	         8.17358e+57
          1467.19090	         8.12230e+57
          1467.99720	         8.97810e+57
          1468.80350	         9.42776e+57
          1469.60980	         8.90698e+57
          1470.41610	         9.97328e+57
          1471.22240	         1.04290e+58
          1472.02870	         1.02483e+58
          1472.83500	         1.06704e+58
          1473.64130	         9.98938e+57
          1474.44760	         9.86103e+57
          1475.25390	         9.00445e+57
          1476.06020	         8.62047e+57
          1476.86650	         8.38880e+57
          1477.67280	         8.39421e+57
          1478.47910	         7.74458e+57
          1479.28540	         7.47326e+57
          1480.09170	         8.65430e+57
          1480.89800	         9.33302e+57
          1481.70430	         9.28998e+57
          1482.51060	         9.28314e+57
          1483.31690	         8.80212e+57
          1484.12320	         7.70051e+57
          1484.92950	         6.77131e+57
          1485.73580	         7.46062e+57
          1486.54210	         8.92039e+57
          1487.34840	         8.84929e+57
          1488.15470	         7.93018e+57
          1488.96100	         8.20926e+57
          1489.76730	         8.73573e+57
          1490.57360	         8.69612e+57
          1491.37990	         8.16772e+57
          1492.18620	         7.62208e+57
          1492.99250	         8.35573e+57
          1493.79880	         8.09303e+57
          1494.60510	         7.13974e+57
          1495.41140	         7.19949e+57
          1496.21770	         8.44093e+57
          1497.02400	         9.92067e+57
          1497.83030	         9.10957e+57
          1498.63660	         6.58016e+57
          1499.44290	         5.61767e+57
          1500.24920	         6.78622e+57
          1501.05550	         7.41458e+57
          1501.86180	         8.96317e+57
          1502.66810	         8.42482e+57
          1503.47440	         7.94902e+57
          1504.28070	         8.55584e+57
          1505.08700	         8.70705e+57
          1505.89330	         8.48220e+57
          1506.69960	         8.17175e+57
          1507.50590	         8.29195e+57
          1508.31220	         8.51475e+57
          1509.11850	         8.35521e+57
          1509.92480	         8.71995e+57
          1510.73110	         8.69300e+57
          1511.53740	         7.46232e+57
          1512.34370	         7.23032e+57
          1513.15000	         9.15920e+57
          1513.95630	         1.01279e+58
          1514.76260	         9.52484e+57
          1515.56890	         8.30027e+57
          1516.37520	         8.54464e+57
          1517.18150	         8.13119e+57
          1517.98780	         6.62875e+57
          1518.79410	         6.82523e+57
          1519.60040	         7.68446e+57
          1520.40670	         9.19034e+57
          1521.21300	         9.71571e+57
          1522.01930	         8.65268e+57
          1522.82560	         8.47073e+57
          1523.63190	         1.00294e+58
          1524.43820	         7.71381e+57
          1525.24450	         5.37742e+57
          1526.05080	         6.03284e+57
          1526.85710	         6.12272e+57
          1527.66340	         7.26017e+57
          1528.46970	         7.90814e+57
          1529.27600	         7.56082e+57
          1530.08230	         7.84551e+57
          1530.88860	         7.55068e+57
          1531.69490	         8.28523e+57
          1532.50120	         8.68298e+57
          1533.30750	         9.47357e+57
          1534.11380	         9.01865e+57
          1534.92010	         9.20748e+57
          1535.72640	         8.73551e+57
          1536.53270	         9.66833e+57
          1537.33900	         8.73188e+57
          1538.14530	         7.55165e+57
          1538.95160	         8.32863e+57
          1539.75790	         8.83146e+57
          1540.56420	         8.95149e+57
          1541.37050	         8.18586e+57
          1542.17680	         7.55476e+57
          1542.98310	         7.23977e+57
          1543.78940	         8.00637e+57
          1544.59570	         8.03315e+57
          1545.40200	         8.38166e+57
          1546.20830	         9.13309e+57
          1547.01460	         1.07310e+58
          1547.82090	         1.13918e+58
          1548.62720	         1.27837e+58
          1549.43350	         1.28972e+58
          1550.23980	         1.12326e+58
          1551.04610	         1.10097e+58
          1551.85240	         1.19882e+58
          1552.65870	         1.18421e+58
          1553.46500	         1.02049e+58
          1554.27130	         9.70042e+57
          1555.07760	         1.00781e+58
          1555.88390	         8.25743e+57
          1556.69020	         8.75534e+57
          1557.49650	         9.74082e+57
          1558.30280	         9.75426e+57
          1559.10910	         9.19675e+57
          1559.91540	         9.58760e+57
          1560.72170	         9.48464e+57
          1561.52800	         8.11391e+57
          1562.33430	         8.83364e+57
          1563.14060	         8.68187e+57
          1563.94690	         7.93341e+57
          1564.75320	         8.02332e+57
          1565.55950	         7.47251e+57
          1566.36580	         7.41909e+57
          1567.17210	         8.64620e+57
          1567.97840	         9.25988e+57
          1568.78470	         8.15047e+57
          1569.59100	         8.80072e+57
          1570.39730	         9.18984e+57
          1571.20360	         7.08815e+57
          1572.00990	         6.79006e+57
          1572.81620	         8.40750e+57
          1573.62250	         9.48383e+57
          1574.42880	         9.14986e+57
          1575.23510	         7.73064e+57
          1576.04140	         7.99980e+57
          1576.84770	         8.28113e+57
          1577.65400	         8.67441e+57
          1578.46030	         1.03488e+58
          1579.26660	         1.00798e+58
          1580.07290	         8.76966e+57
          1580.87920	         7.18142e+57
          1581.68550	         6.82270e+57
          1582.49180	         7.83898e+57
          1583.29810	         7.91564e+57
          1584.10440	         8.41231e+57
          1584.91070	         8.53751e+57
          1585.71700	         8.38745e+57
          1586.52330	         7.79020e+57
          1587.32960	         8.50932e+57
          1588.13590	         9.12926e+57
          1588.94220	         8.53119e+57
          1589.74850	         8.98363e+57
          1590.55480	         9.65439e+57
          1591.36110	         8.63120e+57
          1592.16740	         8.37461e+57
          1592.97370	         8.24347e+57
          1593.78000	         9.22111e+57
          1594.58630	         9.27079e+57
          1595.39260	         9.34526e+57
          1596.19890	         9.41094e+57
          1597.00520	         9.66493e+57
          1597.81150	         8.62773e+57
          1598.61780	         7.34192e+57
          1599.42410	         6.11845e+57
          1600.23040	         5.74180e+57
          1601.03670	         7.61232e+57
          1601.84300	         7.08489e+57
          1602.64930	         7.74943e+57
          1603.45560	         8.58534e+57
          1604.26190	         7.37406e+57
          1605.06820	         7.27385e+57
          1605.87450	         7.37416e+57
          1606.68080	         7.42999e+57
          1607.48710	         6.50608e+57
          1608.29340	         5.10160e+57
          1609.09970	         6.43082e+57
          1609.90600	         6.82196e+57
          1610.71230	         6.23096e+57
          1611.51860	         6.53184e+57
          1612.32490	         6.31932e+57
          1613.13120	         7.27861e+57
          1613.93750	         8.45158e+57
          1614.74380	         9.25729e+57
          1615.55010	         8.81909e+57
          1616.35640	         8.60648e+57
          1617.16270	         9.13788e+57
          1617.96900	         9.73110e+57
          1618.77530	         8.24182e+57
          1619.58160	         8.12599e+57
          1620.38790	         8.33731e+57
          1621.19420	         9.11011e+57
          1622.00050	         9.05392e+57
          1622.80680	         9.56889e+57
          1623.61310	         9.56117e+57
          1624.41940	         7.74768e+57
          1625.22570	         8.92594e+57
          1626.03200	         9.67828e+57
          1626.83830	         9.21694e+57
          1627.64460	         8.10272e+57
          1628.45090	         7.46410e+57
          1629.25720	         9.00131e+57
          1630.06350	         9.87558e+57
          1630.86980	         7.46837e+57
          1631.67610	         7.48394e+57
          1632.48240	         8.38974e+57
          1633.28870	         7.97687e+57
          1634.09500	         9.11935e+57
          1634.90130	         1.07568e+58
          1635.70760	         1.04416e+58
          1636.51390	         7.83453e+57
          1637.32020	         7.13385e+57
          1638.12650	         7.74591e+57
          1638.93280	         8.52115e+57
          1639.73910	         1.15796e+58
          1640.54540	         1.17436e+58
          1641.35170	         9.53546e+57
          1642.15800	         8.61512e+57
          1642.96430	         7.83486e+57
          1643.77060	         9.62664e+57
          1644.57690	         9.07653e+57
          1645.38320	         8.21162e+57
          1646.18950	         7.84835e+57
          1646.99580	         8.80409e+57
          1647.80210	         7.49062e+57
          1648.60840	         7.70823e+57
          1649.41470	         8.37824e+57
          1650.22100	         7.29971e+57
          1651.02730	         7.58553e+57
          1651.83360	         7.82567e+57
          1652.63990	         8.29575e+57
          1653.44620	         9.59737e+57
          1654.25250	         8.68550e+57
          1655.05880	         7.46870e+57
          1655.86510	         7.72797e+57
          1656.67140	         8.53711e+57
          1657.47770	         7.86840e+57
          1658.28400	         8.55389e+57
          1659.09030	         8.78080e+57
          1659.89660	         8.92073e+57
          1660.70290	         1.00973e+58
          1661.50920	         1.01825e+58
          1662.31550	         8.49272e+57
          1663.12180	         8.57822e+57
          1663.92810	         9.54338e+57
          1664.73440	         1.09754e+58
          1665.54070	         1.22513e+58
          1666.34700	         1.19391e+58
          1667.15330	         1.08554e+58
          1667.95960	         9.19518e+57
          1668.76590	         7.75338e+57
          1669.57220	         7.19811e+57
          1670.37850	         7.64234e+57
          1671.18480	         8.23493e+57
          1671.99110	         8.45568e+57
          1672.79740	         7.20438e+57
          1673.60370	         7.47801e+57
          1674.41000	         7.58200e+57
          1675.21630	         7.50188e+57
          1676.02260	         7.49374e+57
          1676.82890	         7.54637e+57
          1677.63520	         6.93478e+57
          1678.44150	         6.88547e+57
          1679.24780	         7.86689e+57
          1680.05410	         7.73853e+57
          1680.86040	         5.62675e+57
          1681.66670	         6.28081e+57
          1682.47300	         7.34708e+57
          1683.27930	         8.54744e+57
          1684.08560	         9.41474e+57
          1684.89190	         8.21603e+57
          1685.69820	         5.60381e+57
          1686.50450	         4.85674e+57
          1687.31080	         6.89628e+57
          1688.11710	         7.26365e+57
          1688.92340	         6.90375e+57
          1689.72970	         6.59107e+57
          1690.53600	         5.90391e+57
          1691.34230	         7.01310e+57
          1692.14860	         8.69688e+57
          1692.95490	         8.15252e+57
          1693.76120	         7.01503e+57
          1694.56750	         7.12949e+57
          1695.37380	         8.23057e+57
          1696.18010	         8.40449e+57
          1696.98640	         8.43416e+57
          1697.79270	         8.65624e+57
          1698.59900	         8.80743e+57
          1699.40530	         8.15240e+57
          1700.21160	         7.17874e+57
          1701.01790	         7.21257e+57
          1701.82420	         6.36565e+57
          1702.63050	         7.21481e+57
          1703.43680	         8.99011e+57
          1704.24310	         9.87824e+57
          1705.04940	         8.96751e+57
          1705.85570	         7.07242e+57
          1706.66200	         7.61657e+57
          1707.46830	         8.90874e+57
          1708.27460	         8.49099e+57
          1709.08090	         7.38787e+57
          1709.88720	         6.20713e+57
          1710.69350	         7.00776e+57
          1711.49980	         7.55159e+57
          1712.30610	         7.96434e+57
          1713.11240	         8.73403e+57
          1713.91870	         7.16456e+57
          1714.72500	         7.58129e+57
          1715.53130	         8.95911e+57
          1716.33760	         7.81720e+57
          1717.14390	         7.11723e+57
          1717.95020	         9.20920e+57
          1718.75650	         9.64505e+57
          1719.56280	         8.88311e+57
          1720.36910	         7.13659e+57
          1721.17540	         7.20949e+57
          1721.98170	         6.77138e+57
          1722.78800	         5.92060e+57
          1723.59430	         6.25743e+57
          1724.40060	         8.56047e+57
          1725.20690	         8.64764e+57
          1726.01320	         8.24727e+57
          1726.81950	         7.19583e+57
          1727.62580	         6.59309e+57
          1728.43210	         7.13084e+57
          1729.23840	         7.19738e+57
          1730.04470	         7.73913e+57
          1730.85100	         8.43239e+57
          1731.65730	         8.13113e+57
          1732.46360	         7.31760e+57
          1733.26990	         7.30937e+57
          1734.07620	         7.08783e+57
          1734.88250	         7.18705e+57
          1735.68880	         7.54506e+57
          1736.49510	         7.69549e+57
          1737.30140	         8.28151e+57
          1738.10770	         6.74164e+57
          1738.91400	         7.40559e+57
          1739.72030	         6.65506e+57
          1740.52660	         5.36397e+57
          1741.33290	         5.52721e+57
          1742.13920	         6.52505e+57
          1742.94550	         7.30746e+57
          1743.75180	         7.13235e+57
          1744.55810	         8.33131e+57
          1745.36440	         7.80251e+57
          1746.17070	         4.70727e+57
          1746.97700	         4.47469e+57
          1747.78330	         6.67501e+57
          1748.58960	         7.14868e+57
          1749.39590	         7.39300e+57
          1750.20220	         6.90276e+57
          1751.00850	         6.16654e+57
          1751.81480	         5.21032e+57
          1752.62110	         6.39349e+57
          1753.42740	         7.96688e+57
          1754.23370	         7.55749e+57
          1755.04000	         6.89696e+57
          1755.84630	         7.12263e+57
          1756.65260	         8.73503e+57
          1757.45890	         8.61613e+57
          1758.26520	         5.85713e+57
          1759.07150	         7.83756e+57
          1759.87780	         8.46398e+57
          1760.68410	         7.27787e+57
          1761.49040	         6.88281e+57
          1762.29670	         5.76009e+57
          1763.10300	         7.53681e+57
          1763.90930	         7.28977e+57
          1764.71560	         7.32054e+57
          1765.52190	         8.03393e+57
          1766.32820	         8.68439e+57
          1767.13450	         8.29203e+57
          1767.94080	         6.61401e+57
          1768.74710	         7.18347e+57
          1769.55340	         7.64239e+57
          1770.35970	         7.23704e+57
          1771.16600	         8.20697e+57
          1771.97230	         8.58574e+57
          1772.77860	         8.86417e+57
          1773.58490	         8.32926e+57
          1774.39120	         6.79377e+57
          1775.19750	         5.98763e+57
          1776.00380	         7.08050e+57
          1776.81010	         7.12235e+57
          1777.61640	         6.57392e+57
          1778.42270	         7.21376e+57
          1779.22900	         6.73519e+57
          1780.03530	         6.87501e+57
          1780.84160	         7.07432e+57
          1781.64790	         8.25404e+57
          1782.45420	         6.78740e+57
          1783.26050	         6.18521e+57
          1784.06680	         7.71592e+57
          1784.87310	         7.08027e+57
          1785.67940	         6.23805e+57
          1786.48570	         5.91195e+57
          1787.29200	         5.35071e+57
          1788.09830	         5.53909e+57
          1788.90460	         5.56633e+57
          1789.71090	         5.13456e+57
          1790.51720	         4.88288e+57
          1791.32350	         7.34096e+57
          1792.12980	         9.38848e+57
          1792.93610	         9.07950e+57
          1793.74240	         8.13061e+57
          1794.54870	         7.49495e+57
          1795.35500	         8.75656e+57
          1796.16130	         7.96645e+57
          1796.96760	         6.44743e+57
          1797.77390	         7.14488e+57
          1798.58020	         7.71407e+57
          1799.38650	         7.01330e+57
          1800.19280	         6.45043e+57
          1800.99910	         7.38415e+57
          1801.80540	         7.48507e+57
          1802.61170	         7.34281e+57
          1803.41800	         7.22525e+57
          1804.22430	         7.21556e+57
          1805.03060	         7.86644e+57
          1805.83690	         8.56846e+57
          1806.64320	         7.65696e+57
          1807.44950	         7.04198e+57
          1808.25580	         7.62124e+57
          1809.06210	         8.44560e+57
          1809.86840	         7.57572e+57
          1810.67470	         7.59435e+57
          1811.48100	         8.33937e+57
          1812.28730	         8.11638e+57
          1813.09360	         7.07789e+57
          1813.89990	         7.41524e+57
          1814.70620	         6.99318e+57
          1815.51250	         7.36400e+57
          1816.31880	         8.51154e+57
          1817.12510	         7.71279e+57
          1817.93140	         6.29523e+57
          1818.73770	         7.43569e+57
          1819.54400	         8.88556e+57
          1820.35030	         9.06588e+57
          1821.15660	         7.40482e+57
          1821.96290	         6.77237e+57
          1822.76920	         7.13230e+57
          1823.57550	         7.62647e+57
          1824.38180	         8.26960e+57
          1825.18810	         8.16807e+57
          1825.99440	         8.74318e+57
          1826.80070	         8.71592e+57
          1827.60700	         6.77457e+57
          1828.41330	         6.64559e+57
          1829.21960	         7.11034e+57
          1830.02590	         7.85102e+57
          1830.83220	         9.12302e+57
          1831.63850	         8.02623e+57
          1832.44480	         7.51525e+57
          1833.25110	         8.23212e+57
          1834.05740	         8.43996e+57
          1834.86370	         6.73412e+57
          1835.67000	         5.70887e+57
          1836.47630	         7.02390e+57
          1837.28260	         9.39329e+57
          1838.08890	         9.49132e+57
          1838.89520	         8.30809e+57
          1839.70150	         7.77827e+57
          1840.50780	         7.71286e+57
          1841.31410	         7.27394e+57
          1842.12040	         6.43951e+57
          1842.92670	         6.77334e+57
          1843.73300	         6.33297e+57
          1844.53930	         6.11031e+57
          1845.34560	         6.72228e+57
          1846.15190	         7.89559e+57
          1846.95820	         8.01894e+57
          1847.76450	         7.17628e+57
          1848.57080	         5.72661e+57
          1849.37710	         5.95852e+57
          1850.18340	         6.77489e+57
          1850.98970	         7.92597e+57
          1851.79600	         8.41176e+57
          1852.60230	         7.39557e+57
          1853.40860	         5.92519e+57
          1854.21490	         5.85299e+57
          1855.02120	         5.54161e+57
          1855.82750	         4.28998e+57
          1856.63380	         6.62260e+57
          1857.44010	         6.95889e+57
          1858.24640	         7.69868e+57
          1859.05270	         7.58471e+57
          1859.85900	         5.96679e+57
          1860.66530	         4.95852e+57
          1861.47160	         6.38449e+57
          1862.27790	         8.08753e+57
          1863.08420	         7.84617e+57
          1863.89050	         7.91942e+57
          1864.69680	         7.14363e+57
          1865.50310	         7.12670e+57
          1866.30940	         5.94342e+57
          1867.11570	         5.13249e+57
          1867.92200	         6.40677e+57
          1868.72830	         7.18664e+57
          1869.53460	         7.34540e+57
          1870.34090	         6.70435e+57
          1871.14720	         6.72095e+57
          1871.95350	         8.06367e+57
          1872.75980	         7.73808e+57
          1873.56610	         6.89402e+57
          1874.37240	         5.44162e+57
          1875.17870	         5.47758e+57
          1875.98500	         7.44834e+57
          1876.79130	         7.50951e+57
          1877.59760	         6.38273e+57
          1878.40390	         6.23781e+57
          1879.21020	         6.43499e+57
          1880.01650	         7.52909e+57
          1880.82280	         8.42366e+57
          1881.62910	         9.06481e+57
          1882.43540	         1.00008e+58
          1883.24170	         8.38654e+57
          1884.04800	         6.65520e+57
          1884.85430	         7.74473e+57
          1885.66060	         8.16939e+57
          1886.46690	         7.90921e+57
          1887.27320	         7.89966e+57
          1888.07950	         6.61529e+57
          1888.88580	         6.38774e+57
          1889.69210	         7.49802e+57
          1890.49840	         8.04461e+57
          1891.30470	         7.73445e+57
          1892.11100	         8.38832e+57
          1892.91730	         6.54463e+57
          1893.72360	         6.33137e+57
          1894.52990	         7.47492e+57
          1895.33620	         8.11552e+57
          1896.14250	         6.44688e+57
          1896.94880	         6.70549e+57
          1897.75510	         4.97137e+57
          1898.56140	         5.52604e+57
          1899.36770	         6.94259e+57
          1900.17400	         6.02371e+57
          1900.98030	         5.74841e+57
          1901.78660	         5.92733e+57
          1902.59290	         7.66079e+57
          1903.39920	         8.47628e+57
          1904.20550	         8.73114e+57
          1905.01180	         9.30218e+57
          1905.81810	         9.80720e+57
          1906.62440	         1.17410e+58
          1907.43070	         1.39682e+58
          1908.23700	         1.72331e+58
          1909.04330	         1.34411e+58
          1909.84960	         1.14772e+58
          1910.65590	         1.00779e+58
          1911.46220	         8.35234e+57
          1912.26850	         7.31652e+57
          1913.07480	         6.37810e+57
          1913.88110	         6.55329e+57
          1914.68740	         5.97885e+57
          1915.49370	         5.86409e+57
          1916.30000	         6.56904e+57
          1917.10630	         7.79992e+57
          1917.91260	         7.50329e+57
          1918.71890	         6.06753e+57
          1919.52520	         6.40020e+57
          1920.33150	         6.10839e+57
          1921.13780	         6.31883e+57
          1921.94410	         7.72964e+57
          1922.75040	         8.69987e+57
          1923.55670	         7.36870e+57
          1924.36300	         7.01060e+57
          1925.16930	         6.42562e+57
          1925.97560	         5.88460e+57
          1926.78190	         4.62340e+57
          1927.58820	         5.50947e+57
          1928.39450	         6.03053e+57
          1929.20080	         6.22407e+57
          1930.00710	         6.70533e+57
          1930.81340	         6.81486e+57
          1931.61970	         5.87762e+57
          1932.42600	         6.58905e+57
          1933.23230	         7.88926e+57
          1934.03860	         7.34911e+57
          1934.84490	         5.58901e+57
          1935.65120	         7.94026e+57
          1936.45750	         9.07362e+57
          1937.26380	         7.00358e+57
          1938.07010	         6.73834e+57
          1938.87640	         6.39924e+57
          1939.68270	         7.72265e+57
          1940.48900	         8.36501e+57
          1941.29530	         7.45710e+57
          1942.10160	         7.21708e+57
          1942.90790	         6.32509e+57
          1943.71420	         5.96851e+57
          1944.52050	         6.52713e+57
          1945.32680	         5.55384e+57
          1946.13310	         7.37987e+57
          1946.93940	         8.83066e+57
          1947.74570	         7.69278e+57
          1948.55200	         6.01037e+57
          1949.35830	         6.75621e+57
          1950.16460	         4.85803e+57
          1950.97090	         6.71096e+57
          1951.77720	         7.82830e+57
          1952.58350	         8.70445e+57
          1953.38980	         7.19074e+57
          1954.19610	         4.85618e+57
          1955.00240	         5.46550e+57
          1955.80870	         5.60836e+57
          1956.61500	         6.34487e+57
          1957.42130	         6.93656e+57
          1958.22760	         6.71467e+57
          1959.03390	         7.02369e+57
          1959.84020	         7.46392e+57
          1960.64650	         6.88543e+57
          1961.45280	         6.38726e+57
          1962.25910	         6.03865e+57
          1963.06540	         5.74793e+57
          1963.87170	         6.84195e+57
          1964.67800	         6.56036e+57
          1965.48430	         6.38424e+57
          1966.29060	         6.69061e+57
          1967.09690	         7.42325e+57
          1967.90320	         6.44854e+57
          1968.70950	         6.12078e+57
          1969.51580	         5.55046e+57
          1970.32210	         6.78774e+57
          1971.12840	         6.64026e+57
          1971.93470	         5.01784e+57
          1972.74100	         5.09137e+57
          1973.54730	         7.69296e+57
          1974.35360	         7.24864e+57
          1975.15990	         7.31338e+57
          1975.96620	         7.20198e+57
          1976.77250	         7.26796e+57
          1977.57880	         7.13060e+57
          1978.38510	         6.36484e+57
          1979.19140	         6.77203e+57
          1979.99770	         7.54228e+57
          1980.80400	         6.99654e+57
          1981.61030	         6.10254e+57
          1982.41660	         5.16080e+57
          1983.22290	         6.27739e+57
          1984.02920	         5.53527e+57
          1984.83550	         5.42902e+57
          1985.64180	         6.38003e+57
          1986.44810	         6.26822e+57
          1987.25440	         5.45474e+57
          1988.06070	         5.69139e+57
          1988.86700	         6.87294e+57
          1989.67330	         7.23251e+57
          1990.47960	         6.73095e+57
          1991.28590	         6.23411e+57
          1992.09220	         6.64170e+57
          1992.89850	         6.63477e+57
          1993.70480	         6.44606e+57
          1994.51110	         5.55709e+57
          1995.31740	         5.42753e+57
          1996.12370	         5.21239e+57
          1996.93000	         6.20408e+57
          1997.73630	         8.19077e+57
          1998.54260	         8.22051e+57
          1999.34890	         7.38263e+57
          2000.15520	         5.97804e+57
          2000.96150	         6.88913e+57
          2001.76780	         6.77100e+57
          2002.57410	         4.71278e+57
          2003.38040	         5.47679e+57
          2004.18670	         6.21358e+57
          2004.99300	         6.81383e+57
          2005.79930	         7.30759e+57
          2006.60560	         6.98867e+57
          2007.41190	         6.66208e+57
          2008.21820	         6.71794e+57
          2009.02450	         6.93575e+57
          2009.83080	         6.26907e+57
          2010.63710	         6.40992e+57
          2011.44340	         6.93517e+57
          2012.24970	         6.92266e+57
          2013.05600	         6.28112e+57
          2013.86230	         5.76449e+57
          2014.66860	         5.24618e+57
          2015.47490	         5.54203e+57
          2016.28120	         6.80717e+57
          2017.08750	         6.60129e+57
          2017.89380	         6.17765e+57
          2018.70010	         6.79836e+57
          2019.50640	         5.79300e+57
          2020.31270	         6.21192e+57
          2021.11900	         6.70204e+57
          2021.92530	         7.30682e+57
          2022.73160	         7.83910e+57
          2023.53790	         5.58730e+57
          2024.34420	         4.59191e+57
          2025.15050	         5.35287e+57
          2025.95680	         5.57837e+57
          2026.76310	         5.59945e+57
          2027.56940	         7.72282e+57
          2028.37570	         7.70331e+57
          2029.18200	         6.43690e+57
          2029.98830	         5.10637e+57
          2030.79460	         6.13575e+57
          2031.60090	         6.23156e+57
          2032.40720	         6.77396e+57
          2033.21350	         6.75138e+57
          2034.01980	         5.70257e+57
          2034.82610	         4.54969e+57
          2035.63240	         5.46613e+57
          2036.43870	         5.80213e+57
          2037.24500	         6.58917e+57
          2038.05130	         7.44982e+57
          2038.85760	         6.99844e+57
          2039.66390	         5.95282e+57
          2040.47020	         4.68167e+57
          2041.27650	         6.32029e+57
          2042.08280	         5.44211e+57
          2042.88910	         4.80489e+57
          2043.69540	         4.94161e+57
          2044.50170	         5.72352e+57
          2045.30800	         5.14491e+57
          2046.11430	         4.44606e+57
          2046.92060	         5.15166e+57
          2047.72690	         6.42691e+57
          2048.53320	         6.37800e+57
          2049.33950	         4.89420e+57
          2050.14580	         5.69870e+57
          2050.95210	         6.31838e+57
          2051.75840	         5.93557e+57
          2052.56470	         5.84452e+57
          2053.37100	         4.07125e+57
          2054.17730	         5.01736e+57
          2054.98360	         6.45588e+57
          2055.78990	         4.49447e+57
          2056.59620	         3.91969e+57
          2057.40250	         5.26609e+57
          2058.20880	         6.19629e+57
          2059.01510	         5.98408e+57
          2059.82140	         5.47339e+57
          2060.62770	         1.01401e+58
          2061.43400	         1.78993e+58
          2062.24030	         1.34692e+58
          2063.04660	         3.70052e+57
          2063.85290	         3.02321e+57
          2064.65920	        -5.42201e+57
          2065.46550	        -8.09805e+57
          2066.27180	        -6.78198e+57
          2067.07810	         4.15490e+57
          2067.88440	         6.12553e+57
          2068.69070	         5.42593e+57
          2069.49700	         4.63823e+57
          2070.30330	         3.04373e+57
          2071.10960	         5.69756e+57
          2071.91590	         6.95081e+57
          2072.72220	         4.33543e+57
          2073.52850	         4.99329e+57
          2074.33480	         4.98232e+57
          2075.14110	         4.52531e+57
          2075.94740	         4.01158e+57
          2076.75370	         4.77105e+57
          2077.56000	         5.97563e+57
          2078.36630	         6.52999e+57
          2079.17260	         4.82583e+57
          2079.97890	         4.63872e+57
          2080.78520	         5.97339e+57
          2081.59150	         5.33902e+57
          2082.39780	         4.98461e+57
          2083.20410	         2.99225e+57
          2084.01040	         2.32375e+57
          2084.81670	         2.12101e+57
          2085.62300	         3.23107e+57
          2086.42930	         3.37162e+57
          2087.23560	         2.90607e+57
          2088.04190	         3.26459e+57
          2088.84820	         4.39843e+57
          2089.65450	         1.75952e+57
          2090.46080	         1.47890e+57
          2091.26710	         3.61098e+57
          2092.07340	         3.60503e+57
          2092.87970	         1.95421e+57
          2093.68600	        -1.68493e+57
          2094.49230	         7.61876e+56
          2095.29860	         4.44490e+57
          2096.10490	         2.52651e+57
          2096.91120	         2.99990e+57
          2097.71750	         1.24847e+57
          2098.52380	         2.08880e+57
          2099.33010	         3.13553e+57
          2100.13640	         3.50231e+57
          2100.94270	         3.54021e+57
          2101.74900	         4.47894e+57
          2102.55530	         4.17913e+57
          2103.36160	         2.91683e+57
          2104.16790	         4.30025e+57
          2104.97420	         1.29127e+57
          2105.78050	        -1.67752e+57
          2106.58680	        -4.73781e+56
          2107.39310	        -4.52374e+56
          2108.19940	         6.93566e+56
          2109.00570	         6.03751e+56
          2109.81200	        -1.09761e+57
          2110.61830	         1.47777e+57
          2111.42460	        -1.80050e+56
          2112.23090	         9.27817e+56
          2113.03720	         9.46203e+55
          2113.84350	        -2.45468e+56
          2114.64980	         5.54045e+57
          2115.45610	        -3.24160e+57
          2116.26240	        -1.23715e+57
          2117.06870	        -2.90448e+57
          2117.87500	        -3.38505e+57
          2118.68130	         5.58972e+56
          2119.48760	         1.10751e+55
          2120.29390	        -3.69199e+57
          2121.10020	        -5.89674e+57
          2121.90650	        -2.60913e+57
          2122.71280	         1.91878e+57
          2123.51910	         3.77622e+57
          2124.32540	         3.70340e+57
          2125.13170	         2.40828e+56
          2125.93800	        -2.81256e+57
          2126.74430	        -2.74866e+57
          2127.55060	        -7.89006e+57
          2128.35690	        -1.09000e+57
          2129.16320	        -6.40469e+56
          2129.96950	        -9.21557e+57
          2130.77580	        -6.71656e+57
          2131.58210	         2.27318e+57
          2132.38840	         5.45900e+57
          2133.19470	         1.21543e+57
          2134.00100	         1.22481e+57
          2134.80730	        -1.02642e+58
          2135.61360	        -3.04319e+57
          2136.41990	         4.25384e+57
          2137.22620	         1.84901e+57
          2138.03250	         1.92347e+57
          2138.83880	        -3.80108e+57
          2139.64510	        -1.34363e+57
          2140.45140	        -6.21098e+57
          2141.25770	        -1.50278e+58
          2142.06400	        -5.08040e+57
          2142.87030	         3.36241e+57
          2143.67660	         8.20021e+57
          2144.48290	         7.15851e+57
          2145.28920	         9.27811e+57
          2146.09550	         1.11832e+57
          2146.90180	        -9.65479e+57
          2147.70810	        -6.20259e+57
          2148.51440	        -2.72384e+57
          2149.32070	        -5.56075e+57
          2150.12700	        -8.14231e+57
          2150.93330	        -7.26123e+57
          2151.73960	         4.98394e+57
          2152.54590	         4.74954e+56
          2153.35220	        -3.80075e+57
          2154.15850	        -5.60398e+57
          2154.96480	         2.19739e+57
          2155.77110	         2.62704e+57
          2156.57740	        -5.48987e+57
          2157.38370	        -6.18147e+56
          2158.19000	        -2.91343e+57
          2158.99630	        -8.53090e+57
          2159.80260	        -1.20454e+58
          2160.60890	        -1.33169e+58
          2161.41520	         2.20474e+57
          2162.22150	        -8.32998e+56
          2163.02780	        -3.48685e+57
          2163.83410	        -1.06302e+58
          2164.64040	        -1.36581e+58
          2165.44670	        -8.25406e+57
          2166.25300	        -1.09605e+58
          2167.05930	        -1.12947e+58
          2167.86560	        -3.15151e+57
          2168.67190	        -3.16537e+56
          2169.47820	        -2.94388e+57
          2170.28450	        -2.66963e+57
          2171.09080	        -5.10238e+57
          2171.89710	        -6.99255e+56
          2172.70340	         4.66117e+57
          2173.50970	        -8.56316e+57
          2174.31600	        -7.21831e+57
          2175.12230	        -2.10077e+56
          2175.92860	        -4.92796e+57
          2176.73490	        -1.03205e+58
          2177.54120	        -4.24225e+57
          2178.34750	         1.03104e+57
          2179.15380	                 nan
          2179.96010	                 nan
          2180.76640	                 nan
          2181.57270	                 nan
          2182.37900	                 nan
          2183.18530	                 nan
          2183.99160	                 nan
          2184.79790	                 nan
          2185.60420	                 nan
          2186.41050	                 nan
          2187.21680	                 nan
          2188.02310	                 nan
          2188.82940	                 nan
          2189.63570	                 nan
          2190.44200	                 nan
          2191.24830	                 nan
          2192.05460	                 nan
          2192.86090	                 nan
          2193.66720	                 nan
          2194.47350	                 nan
          2195.27980	                 nan
          2196.08610	                 nan
          2196.89240	                 nan
          2197.69870	                 nan
          2198.50500	                 nan
          2199.31130	                 nan
          2200.11760	                 nan
          2200.92390	                 nan
          2201.73020	                 nan
          2202.53650	                 nan
          2203.34280	                 nan
          2204.14910	                 nan
          2204.95540	                 nan
          2205.76170	                 nan
          2206.56800	                 nan
          2207.37430	                 nan
          2208.18060	                 nan
          2208.98690	                 nan
          2209.79320	                 nan
          2210.59950	                 nan
          2211.40580	                 nan
          2212.21210	                 nan
          2213.01840	                 nan
          2213.82470	                 nan
          2214.63100	                 nan
          2215.43730	         0.00000e+00
