#sample_46_stacked_spectrum_rest_UV-bands_median_H-alpha_noDC.txt
#median Lum: 1.68974e+42
#Rest-frame wavelength (A) | Luminosity (erg/s/A)
#
          1110.00000	         0.00000e+00
          1110.80630	         1.62842e+59
          1111.61260	         2.68757e+59
          1112.41890	        -4.59650e+57
          1113.22520	         3.59723e+58
          1114.03150	        -4.02596e+57
          1114.83780	         2.15991e+59
          1115.64410	        -2.16890e+58
          1116.45040	         1.44555e+59
          1117.25670	        -4.49712e+58
          1118.06300	         3.83049e+58
          1118.86930	        -2.08643e+58
          1119.67560	         1.81440e+59
          1120.48190	         1.31252e+59
          1121.28820	        -1.12790e+59
          1122.09450	        -4.94783e+58
          1122.90080	        -3.58617e+58
          1123.70710	         1.93236e+58
          1124.51340	         5.38970e+58
          1125.31970	         1.43325e+58
          1126.12600	        -3.27202e+58
          1126.93230	        -7.47889e+58
          1127.73860	        -2.49376e+58
          1128.54490	         4.12953e+58
          1129.35120	         3.91589e+57
          1130.15750	        -5.59759e+58
          1130.96380	        -8.21419e+58
          1131.77010	        -5.82722e+57
          1132.57640	         1.23569e+58
          1133.38270	         1.86954e+58
          1134.18900	         3.74271e+58
          1134.99530	         1.83704e+58
          1135.80160	         2.28342e+58
          1136.60790	         5.88754e+57
          1137.41420	         4.31810e+57
          1138.22050	         4.75642e+58
          1139.02680	         2.41969e+58
          1139.83310	        -1.51192e+57
          1140.63940	         1.36196e+58
          1141.44570	        -2.56341e+58
          1142.25200	        -1.44980e+58
          1143.05830	         7.26056e+57
          1143.86460	         9.37346e+57
          1144.67090	         2.82841e+57
          1145.47720	         2.16818e+57
          1146.28350	         3.70530e+57
          1147.08980	         4.65355e+57
          1147.89610	         1.57469e+58
          1148.70240	         2.84844e+58
          1149.50870	         1.78275e+58
          1150.31500	         1.18113e+58
          1151.12130	         1.57590e+58
          1151.92760	         8.73263e+57
          1152.73390	        -4.37347e+56
          1153.54020	         5.51320e+57
          1154.34650	         3.32198e+58
          1155.15280	         2.74853e+58
          1155.95910	         1.78115e+58
          1156.76540	         1.97077e+58
          1157.57170	         9.18306e+57
          1158.37800	        -5.94703e+57
          1159.18430	         6.89192e+56
          1159.99060	         6.54554e+57
          1160.79690	         8.68762e+57
          1161.60320	         1.39439e+58
          1162.40950	         1.11828e+58
          1163.21580	         1.67697e+58
          1164.02210	         3.30880e+57
          1164.82840	         5.85222e+57
          1165.63470	         2.15686e+58
          1166.44100	         3.07834e+58
          1167.24730	         2.99003e+58
          1168.05360	         1.05468e+58
          1168.85990	         1.06744e+58
          1169.66620	         1.56165e+58
          1170.47250	         1.30412e+58
          1171.27880	         8.48596e+57
          1172.08510	         8.47850e+57
          1172.89140	        -2.17418e+57
          1173.69770	         3.25761e+57
          1174.50400	         1.02423e+58
          1175.31030	         1.76022e+58
          1176.11660	         2.01481e+58
          1176.92290	         1.49229e+58
          1177.72920	         1.46991e+58
          1178.53550	         6.58471e+57
          1179.34180	         3.53714e+57
          1180.14810	         1.15698e+58
          1180.95440	         1.28921e+58
          1181.76070	         8.60167e+57
          1182.56700	         1.37909e+58
          1183.37330	         1.28641e+58
          1184.17960	         1.54387e+58
          1184.98590	         1.33270e+58
          1185.79220	         5.52851e+57
          1186.59850	         8.34254e+57
          1187.40480	         8.39152e+57
          1188.21110	         1.58292e+58
          1189.01740	         8.57260e+57
          1189.82370	         1.00342e+58
          1190.63000	         1.52118e+58
          1191.43630	         1.61706e+58
          1192.24260	         1.33717e+58
          1193.04890	         1.07473e+58
          1193.85520	         1.05845e+58
          1194.66150	         1.05265e+58
          1195.46780	         1.04012e+58
          1196.27410	         1.33302e+58
          1197.08040	         1.14587e+58
          1197.88670	         1.22343e+58
          1198.69300	         1.36633e+58
          1199.49930	         1.22803e+58
          1200.30560	         8.31518e+57
          1201.11190	         6.31598e+57
          1201.91820	         7.90985e+57
          1202.72450	         5.93486e+57
          1203.53080	         1.52963e+58
          1204.33710	         8.57631e+57
          1205.14340	         7.92599e+57
          1205.94970	         7.17912e+57
          1206.75600	         6.93662e+57
          1207.56230	         7.98445e+57
          1208.36860	         8.67001e+57
          1209.17490	         5.97386e+57
          1209.98120	         8.40101e+57
          1210.78750	         8.00310e+57
          1211.59380	         1.67155e+58
          1212.40010	         2.10913e+58
          1213.20640	         2.22018e+58
          1214.01270	         2.28426e+58
          1214.81900	         2.90801e+58
          1215.62530	         4.38336e+58
          1216.43160	         9.02134e+58
          1217.23790	         1.55628e+59
          1218.04420	         1.15571e+59
          1218.85050	         8.56742e+58
          1219.65680	         5.58109e+58
          1220.46310	         3.03458e+58
          1221.26940	         2.30218e+58
          1222.07570	         1.54595e+58
          1222.88200	         9.86679e+57
          1223.68830	         9.43125e+57
          1224.49460	         8.19429e+57
          1225.30090	         8.23513e+57
          1226.10720	         9.80516e+57
          1226.91350	         4.85257e+57
          1227.71980	         8.05532e+57
          1228.52610	         1.07065e+58
          1229.33240	         6.99244e+57
          1230.13870	         1.05652e+58
          1230.94500	         6.66211e+57
          1231.75130	         5.48539e+57
          1232.55760	         8.89091e+57
          1233.36390	         8.90016e+57
          1234.17020	         9.32263e+57
          1234.97650	         8.94873e+57
          1235.78280	         9.57154e+57
          1236.58910	         9.31298e+57
          1237.39540	         8.70972e+57
          1238.20170	         9.39646e+57
          1239.00800	         1.14326e+58
          1239.81430	         1.53185e+58
          1240.62060	         1.39994e+58
          1241.42690	         9.86932e+57
          1242.23320	         8.13744e+57
          1243.03950	         6.28582e+57
          1243.84580	         7.84413e+57
          1244.65210	         9.26270e+57
          1245.45840	         8.73363e+57
          1246.26470	         8.82554e+57
          1247.07100	         7.27890e+57
          1247.87730	         6.00012e+57
          1248.68360	         5.93740e+57
          1249.48990	         7.66712e+57
          1250.29620	         1.03828e+58
          1251.10250	         9.65071e+57
          1251.90880	         5.81698e+57
          1252.71510	         4.32580e+57
          1253.52140	         8.85259e+57
          1254.32770	         1.08015e+58
          1255.13400	         1.21296e+58
          1255.94030	         1.09508e+58
          1256.74660	         1.05749e+58
          1257.55290	         9.92147e+57
          1258.35920	         6.57337e+57
          1259.16550	         5.41797e+57
          1259.97180	         4.97372e+57
          1260.77810	         9.85248e+57
          1261.58440	         1.14003e+58
          1262.39070	         8.11198e+57
          1263.19700	         8.79926e+57
          1264.00330	         8.29975e+57
          1264.80960	         9.96954e+57
          1265.61590	         1.15714e+58
          1266.42220	         1.13204e+58
          1267.22850	         9.63230e+57
          1268.03480	         1.31391e+58
          1268.84110	         1.60742e+58
          1269.64740	         1.51655e+58
          1270.45370	         1.41951e+58
          1271.26000	         1.34550e+58
          1272.06630	         1.08280e+58
          1272.87260	         9.61913e+57
          1273.67890	         9.99745e+57
          1274.48520	         9.45036e+57
          1275.29150	         1.10206e+58
          1276.09780	         1.19264e+58
          1276.90410	         1.51201e+58
          1277.71040	         1.27486e+58
          1278.51670	         1.10247e+58
          1279.32300	         1.55073e+58
          1280.12930	         1.38698e+58
          1280.93560	         1.22923e+58
          1281.74190	         1.32336e+58
          1282.54820	         1.27716e+58
          1283.35450	         9.96130e+57
          1284.16080	         1.07005e+58
          1284.96710	         1.19401e+58
          1285.77340	         1.04438e+58
          1286.57970	         1.05320e+58
          1287.38600	         1.36024e+58
          1288.19230	         1.51736e+58
          1288.99860	         1.35572e+58
          1289.80490	         1.05534e+58
          1290.61120	         1.12230e+58
          1291.41750	         1.29920e+58
          1292.22380	         1.17930e+58
          1293.03010	         1.12700e+58
          1293.83640	         9.54102e+57
          1294.64270	         7.70021e+57
          1295.44900	         6.31440e+57
          1296.25530	         6.14657e+57
          1297.06160	         8.57227e+57
          1297.86790	         8.65678e+57
          1298.67420	         7.40175e+57
          1299.48050	         9.05654e+57
          1300.28680	         9.47102e+57
          1301.09310	         7.70293e+57
          1301.89940	         5.12355e+57
          1302.70570	         5.87003e+57
          1303.51200	         6.79825e+57
          1304.31830	         8.95840e+57
          1305.12460	         1.07962e+58
          1305.93090	         9.66661e+57
          1306.73720	         1.23822e+58
          1307.54350	         1.51928e+58
          1308.34980	         1.43686e+58
          1309.15610	         1.66848e+58
          1309.96240	         1.57779e+58
          1310.76870	         1.15926e+58
          1311.57500	         9.57131e+57
          1312.38130	         1.31324e+58
          1313.18760	         1.43861e+58
          1313.99390	         1.34940e+58
          1314.80020	         1.59881e+58
          1315.60650	         1.53883e+58
          1316.41280	         1.45574e+58
          1317.21910	         1.14165e+58
          1318.02540	         1.15639e+58
          1318.83170	         1.23127e+58
          1319.63800	         1.13741e+58
          1320.44430	         1.11345e+58
          1321.25060	         1.18190e+58
          1322.05690	         1.10924e+58
          1322.86320	         1.08765e+58
          1323.66950	         1.05755e+58
          1324.47580	         8.66003e+57
          1325.28210	         8.25137e+57
          1326.08840	         1.01305e+58
          1326.89470	         1.17568e+58
          1327.70100	         1.17040e+58
          1328.50730	         1.01954e+58
          1329.31360	         9.32417e+57
          1330.11990	         9.16840e+57
          1330.92620	         1.03725e+58
          1331.73250	         1.20699e+58
          1332.53880	         9.55143e+57
          1333.34510	         9.64320e+57
          1334.15140	         9.69760e+57
          1334.95770	         1.04518e+58
          1335.76400	         1.11697e+58
          1336.57030	         1.05828e+58
          1337.37660	         1.00476e+58
          1338.18290	         1.07561e+58
          1338.98920	         1.17234e+58
          1339.79550	         1.28950e+58
          1340.60180	         1.28914e+58
          1341.40810	         1.33084e+58
          1342.21440	         1.19222e+58
          1343.02070	         1.21616e+58
          1343.82700	         1.31898e+58
          1344.63330	         1.16709e+58
          1345.43960	         1.15610e+58
          1346.24590	         1.09025e+58
          1347.05220	         1.12467e+58
          1347.85850	         1.04187e+58
          1348.66480	         1.27626e+58
          1349.47110	         1.32138e+58
          1350.27740	         1.17082e+58
          1351.08370	         1.12884e+58
          1351.89000	         1.13668e+58
          1352.69630	         1.17107e+58
          1353.50260	         1.14576e+58
          1354.30890	         1.21455e+58
          1355.11520	         1.16222e+58
          1355.92150	         1.01313e+58
          1356.72780	         9.55438e+57
          1357.53410	         1.00937e+58
          1358.34040	         1.07490e+58
          1359.14670	         1.14185e+58
          1359.95300	         1.15100e+58
          1360.75930	         1.16018e+58
          1361.56560	         1.10362e+58
          1362.37190	         1.13135e+58
          1363.17820	         1.13176e+58
          1363.98450	         1.25166e+58
          1364.79080	         1.36067e+58
          1365.59710	         1.42090e+58
          1366.40340	         1.31944e+58
          1367.20970	         1.12495e+58
          1368.01600	         9.03172e+57
          1368.82230	         9.06920e+57
          1369.62860	         1.05859e+58
          1370.43490	         1.00164e+58
          1371.24120	         9.02594e+57
          1372.04750	         8.99672e+57
          1372.85380	         1.17254e+58
          1373.66010	         1.15345e+58
          1374.46640	         1.00150e+58
          1375.27270	         1.09446e+58
          1376.07900	         9.54378e+57
          1376.88530	         8.56725e+57
          1377.69160	         7.01555e+57
          1378.49790	         5.98328e+57
          1379.30420	         7.10819e+57
          1380.11050	         9.19880e+57
          1380.91680	         9.75458e+57
          1381.72310	         8.38766e+57
          1382.52940	         8.64945e+57
          1383.33570	         1.10369e+58
          1384.14200	         1.24253e+58
          1384.94830	         1.27106e+58
          1385.75460	         1.27302e+58
          1386.56090	         1.24288e+58
          1387.36720	         1.05159e+58
          1388.17350	         1.20843e+58
          1388.97980	         1.16407e+58
          1389.78610	         9.33848e+57
          1390.59240	         6.95994e+57
          1391.39870	         6.95607e+57
          1392.20500	         7.83355e+57
          1393.01130	         6.75489e+57
          1393.81760	         7.16627e+57
          1394.62390	         8.47322e+57
          1395.43020	         7.90780e+57
          1396.23650	         6.91184e+57
          1397.04280	         6.92574e+57
          1397.84910	         7.93678e+57
          1398.65540	         8.59440e+57
          1399.46170	         9.03774e+57
          1400.26800	         8.69733e+57
          1401.07430	         9.12889e+57
          1401.88060	         8.89355e+57
          1402.68690	         8.83432e+57
          1403.49320	         9.35579e+57
          1404.29950	         9.22122e+57
          1405.10580	         9.26829e+57
          1405.91210	         9.39693e+57
          1406.71840	         9.76557e+57
          1407.52470	         1.02492e+58
          1408.33100	         1.02237e+58
          1409.13730	         1.25348e+58
          1409.94360	         1.31366e+58
          1410.74990	         1.17861e+58
          1411.55620	         9.23884e+57
          1412.36250	         8.36384e+57
          1413.16880	         9.20826e+57
          1413.97510	         7.73103e+57
          1414.78140	         7.87088e+57
          1415.58770	         1.11008e+58
          1416.39400	         1.15751e+58
          1417.20030	         1.09410e+58
          1418.00660	         9.50502e+57
          1418.81290	         1.06381e+58
          1419.61920	         1.06278e+58
          1420.42550	         1.20678e+58
          1421.23180	         1.36677e+58
          1422.03810	         1.24593e+58
          1422.84440	         1.13040e+58
          1423.65070	         1.27638e+58
          1424.45700	         1.13399e+58
          1425.26330	         8.46807e+57
          1426.06960	         7.97413e+57
          1426.87590	         1.06279e+58
          1427.68220	         1.16629e+58
          1428.48850	         1.12821e+58
          1429.29480	         1.13151e+58
          1430.10110	         9.93008e+57
          1430.90740	         8.60812e+57
          1431.71370	         8.08020e+57
          1432.52000	         8.53864e+57
          1433.32630	         8.63885e+57
          1434.13260	         7.87717e+57
          1434.93890	         7.83453e+57
          1435.74520	         9.28151e+57
          1436.55150	         9.32237e+57
          1437.35780	         8.61679e+57
          1438.16410	         9.42093e+57
          1438.97040	         8.21057e+57
          1439.77670	         7.59600e+57
          1440.58300	         7.90631e+57
          1441.38930	         7.88848e+57
          1442.19560	         8.59030e+57
          1443.00190	         9.31259e+57
          1443.80820	         1.09762e+58
          1444.61450	         9.39873e+57
          1445.42080	         8.81793e+57
          1446.22710	         1.15327e+58
          1447.03340	         1.02109e+58
          1447.83970	         9.31623e+57
          1448.64600	         1.01237e+58
          1449.45230	         1.02774e+58
          1450.25860	         9.63831e+57
          1451.06490	         8.86725e+57
          1451.87120	         7.50484e+57
          1452.67750	         7.32041e+57
          1453.48380	         8.50308e+57
          1454.29010	         8.41273e+57
          1455.09640	         7.25171e+57
          1455.90270	         8.84910e+57
          1456.70900	         8.94427e+57
          1457.51530	         9.00634e+57
          1458.32160	         1.18364e+58
          1459.12790	         1.21367e+58
          1459.93420	         1.06826e+58
          1460.74050	         8.10189e+57
          1461.54680	         9.15502e+57
          1462.35310	         9.49815e+57
          1463.15940	         9.67336e+57
          1463.96570	         1.12533e+58
          1464.77200	         1.24557e+58
          1465.57830	         1.07563e+58
          1466.38460	         9.35119e+57
          1467.19090	         8.38686e+57
          1467.99720	         8.96405e+57
          1468.80350	         1.00327e+58
          1469.60980	         1.07896e+58
          1470.41610	         1.11574e+58
          1471.22240	         9.00895e+57
          1472.02870	         9.54947e+57
          1472.83500	         1.00458e+58
          1473.64130	         8.13738e+57
          1474.44760	         8.82558e+57
          1475.25390	         9.51152e+57
          1476.06020	         8.94763e+57
          1476.86650	         8.08081e+57
          1477.67280	         7.64329e+57
          1478.47910	         7.16252e+57
          1479.28540	         7.98646e+57
          1480.09170	         9.76612e+57
          1480.89800	         8.52989e+57
          1481.70430	         9.08488e+57
          1482.51060	         8.33763e+57
          1483.31690	         6.91490e+57
          1484.12320	         6.67888e+57
          1484.92950	         8.17344e+57
          1485.73580	         9.22546e+57
          1486.54210	         9.13799e+57
          1487.34840	         9.97653e+57
          1488.15470	         9.81689e+57
          1488.96100	         8.63816e+57
          1489.76730	         9.26966e+57
          1490.57360	         9.21349e+57
          1491.37990	         7.62488e+57
          1492.18620	         7.31489e+57
          1492.99250	         7.38294e+57
          1493.79880	         8.39160e+57
          1494.60510	         8.45574e+57
          1495.41140	         7.18761e+57
          1496.21770	         8.50745e+57
          1497.02400	         1.10410e+58
          1497.83030	         9.10922e+57
          1498.63660	         7.67591e+57
          1499.44290	         7.11669e+57
          1500.24920	         6.23792e+57
          1501.05550	         7.57096e+57
          1501.86180	         8.36804e+57
          1502.66810	         9.41090e+57
          1503.47440	         9.25035e+57
          1504.28070	         8.75398e+57
          1505.08700	         8.80248e+57
          1505.89330	         8.67902e+57
          1506.69960	         8.55899e+57
          1507.50590	         8.68862e+57
          1508.31220	         7.23725e+57
          1509.11850	         7.82527e+57
          1509.92480	         9.25930e+57
          1510.73110	         8.69591e+57
          1511.53740	         8.47626e+57
          1512.34370	         8.30676e+57
          1513.15000	         9.78427e+57
          1513.95630	         1.10177e+58
          1514.76260	         1.03320e+58
          1515.56890	         9.46203e+57
          1516.37520	         8.57406e+57
          1517.18150	         8.11716e+57
          1517.98780	         7.71060e+57
          1518.79410	         7.56912e+57
          1519.60040	         8.36659e+57
          1520.40670	         9.82734e+57
          1521.21300	         9.62588e+57
          1522.01930	         8.22106e+57
          1522.82560	         9.13729e+57
          1523.63190	         9.49177e+57
          1524.43820	         8.72384e+57
          1525.24450	         6.56974e+57
          1526.05080	         6.20223e+57
          1526.85710	         6.66993e+57
          1527.66340	         7.16845e+57
          1528.46970	         7.69169e+57
          1529.27600	         7.96544e+57
          1530.08230	         7.28009e+57
          1530.88860	         6.88575e+57
          1531.69490	         8.72095e+57
          1532.50120	         9.27425e+57
          1533.30750	         9.73344e+57
          1534.11380	         9.89212e+57
          1534.92010	         9.09605e+57
          1535.72640	         9.01798e+57
          1536.53270	         9.01988e+57
          1537.33900	         8.61164e+57
          1538.14530	         9.27413e+57
          1538.95160	         1.01333e+58
          1539.75790	         9.06535e+57
          1540.56420	         8.62222e+57
          1541.37050	         8.66141e+57
          1542.17680	         7.99652e+57
          1542.98310	         7.54945e+57
          1543.78940	         7.55871e+57
          1544.59570	         7.39475e+57
          1545.40200	         7.64834e+57
          1546.20830	         8.45825e+57
          1547.01460	         1.03049e+58
          1547.82090	         1.18813e+58
          1548.62720	         1.19256e+58
          1549.43350	         1.22171e+58
          1550.23980	         1.18638e+58
          1551.04610	         1.28136e+58
          1551.85240	         1.16771e+58
          1552.65870	         1.10148e+58
          1553.46500	         1.02542e+58
          1554.27130	         9.38928e+57
          1555.07760	         9.43624e+57
          1555.88390	         8.85705e+57
          1556.69020	         8.58709e+57
          1557.49650	         9.12960e+57
          1558.30280	         8.30609e+57
          1559.10910	         8.83116e+57
          1559.91540	         9.29609e+57
          1560.72170	         9.68025e+57
          1561.52800	         9.35163e+57
          1562.33430	         9.54543e+57
          1563.14060	         8.82098e+57
          1563.94690	         8.05680e+57
          1564.75320	         8.78963e+57
          1565.55950	         7.91338e+57
          1566.36580	         6.94918e+57
          1567.17210	         8.63018e+57
          1567.97840	         9.68970e+57
          1568.78470	         9.28919e+57
          1569.59100	         9.76583e+57
          1570.39730	         9.04211e+57
          1571.20360	         7.32714e+57
          1572.00990	         7.32938e+57
          1572.81620	         8.68093e+57
          1573.62250	         9.93874e+57
          1574.42880	         8.73182e+57
          1575.23510	         6.61379e+57
          1576.04140	         7.54783e+57
          1576.84770	         8.17599e+57
          1577.65400	         8.41527e+57
          1578.46030	         9.80612e+57
          1579.26660	         1.00004e+58
          1580.07290	         8.31136e+57
          1580.87920	         7.50550e+57
          1581.68550	         7.17124e+57
          1582.49180	         7.65900e+57
          1583.29810	         7.88582e+57
          1584.10440	         7.85183e+57
          1584.91070	         7.82651e+57
          1585.71700	         8.27602e+57
          1586.52330	         8.86160e+57
          1587.32960	         8.86560e+57
          1588.13590	         8.81151e+57
          1588.94220	         9.27957e+57
          1589.74850	         9.31737e+57
          1590.55480	         9.73045e+57
          1591.36110	         8.16346e+57
          1592.16740	         8.28578e+57
          1592.97370	         8.55439e+57
          1593.78000	         8.31939e+57
          1594.58630	         8.40891e+57
          1595.39260	         8.14280e+57
          1596.19890	         8.79604e+57
          1597.00520	         9.18513e+57
          1597.81150	         9.09530e+57
          1598.61780	         7.51787e+57
          1599.42410	         6.37154e+57
          1600.23040	         5.88507e+57
          1601.03670	         6.86051e+57
          1601.84300	         6.83328e+57
          1602.64930	         8.21684e+57
          1603.45560	         9.42665e+57
          1604.26190	         9.16823e+57
          1605.06820	         8.39250e+57
          1605.87450	         7.24084e+57
          1606.68080	         7.34898e+57
          1607.48710	         5.53568e+57
          1608.29340	         5.73003e+57
          1609.09970	         7.38828e+57
          1609.90600	         6.55512e+57
          1610.71230	         5.83720e+57
          1611.51860	         5.88898e+57
          1612.32490	         6.75794e+57
          1613.13120	         8.00501e+57
          1613.93750	         7.96812e+57
          1614.74380	         8.56254e+57
          1615.55010	         8.62256e+57
          1616.35640	         9.34218e+57
          1617.16270	         1.03994e+58
          1617.96900	         9.99258e+57
          1618.77530	         8.73146e+57
          1619.58160	         8.21121e+57
          1620.38790	         8.03158e+57
          1621.19420	         8.77371e+57
          1622.00050	         7.58619e+57
          1622.80680	         8.22461e+57
          1623.61310	         8.98590e+57
          1624.41940	         8.61521e+57
          1625.22570	         9.34043e+57
          1626.03200	         9.25030e+57
          1626.83830	         8.19355e+57
          1627.64460	         7.14616e+57
          1628.45090	         6.80340e+57
          1629.25720	         7.95110e+57
          1630.06350	         9.78405e+57
          1630.86980	         6.35860e+57
          1631.67610	         6.72318e+57
          1632.48240	         6.94378e+57
          1633.28870	         8.12913e+57
          1634.09500	         9.59588e+57
          1634.90130	         9.63097e+57
          1635.70760	         8.71618e+57
          1636.51390	         7.89967e+57
          1637.32020	         7.42500e+57
          1638.12650	         8.34612e+57
          1638.93280	         9.13760e+57
          1639.73910	         1.03384e+58
          1640.54540	         1.08439e+58
          1641.35170	         1.01529e+58
          1642.15800	         9.93558e+57
          1642.96430	         8.28023e+57
          1643.77060	         8.25900e+57
          1644.57690	         8.41008e+57
          1645.38320	         8.40184e+57
          1646.18950	         7.44323e+57
          1646.99580	         8.04200e+57
          1647.80210	         7.60746e+57
          1648.60840	         8.04573e+57
          1649.41470	         8.70803e+57
          1650.22100	         8.35939e+57
          1651.02730	         7.60132e+57
          1651.83360	         8.17709e+57
          1652.63990	         8.74966e+57
          1653.44620	         8.69920e+57
          1654.25250	         8.35341e+57
          1655.05880	         7.75415e+57
          1655.86510	         7.42046e+57
          1656.67140	         7.97183e+57
          1657.47770	         8.36694e+57
          1658.28400	         8.46764e+57
          1659.09030	         8.62817e+57
          1659.89660	         8.92330e+57
          1660.70290	         1.01232e+58
          1661.50920	         1.03465e+58
          1662.31550	         8.94428e+57
          1663.12180	         9.05985e+57
          1663.92810	         1.02826e+58
          1664.73440	         1.11790e+58
          1665.54070	         1.24275e+58
          1666.34700	         1.23399e+58
          1667.15330	         1.09774e+58
          1667.95960	         9.41237e+57
          1668.76590	         7.85682e+57
          1669.57220	         7.16148e+57
          1670.37850	         7.14756e+57
          1671.18480	         7.54892e+57
          1671.99110	         7.55770e+57
          1672.79740	         8.08878e+57
          1673.60370	         7.90417e+57
          1674.41000	         7.87677e+57
          1675.21630	         7.32833e+57
          1676.02260	         6.89584e+57
          1676.82890	         5.94778e+57
          1677.63520	         6.80500e+57
          1678.44150	         7.12003e+57
          1679.24780	         9.12059e+57
          1680.05410	         7.60983e+57
          1680.86040	         5.15526e+57
          1681.66670	         6.63577e+57
          1682.47300	         7.44954e+57
          1683.27930	         8.53617e+57
          1684.08560	         8.87142e+57
          1684.89190	         7.92863e+57
          1685.69820	         5.98944e+57
          1686.50450	         4.77824e+57
          1687.31080	         6.47462e+57
          1688.11710	         8.06639e+57
          1688.92340	         7.46716e+57
          1689.72970	         7.00633e+57
          1690.53600	         7.87779e+57
          1691.34230	         7.55259e+57
          1692.14860	         7.63026e+57
          1692.95490	         8.29242e+57
          1693.76120	         7.86926e+57
          1694.56750	         6.74377e+57
          1695.37380	         7.82088e+57
          1696.18010	         7.83350e+57
          1696.98640	         7.19420e+57
          1697.79270	         7.58170e+57
          1698.59900	         7.17667e+57
          1699.40530	         6.54149e+57
          1700.21160	         7.70679e+57
          1701.01790	         9.12089e+57
          1701.82420	         8.44487e+57
          1702.63050	         8.14433e+57
          1703.43680	         8.55886e+57
          1704.24310	         8.88911e+57
          1705.04940	         7.73749e+57
          1705.85570	         7.80006e+57
          1706.66200	         8.29483e+57
          1707.46830	         8.77227e+57
          1708.27460	         7.63033e+57
          1709.08090	         6.50083e+57
          1709.88720	         6.57301e+57
          1710.69350	         5.78349e+57
          1711.49980	         6.25258e+57
          1712.30610	         8.01884e+57
          1713.11240	         9.48982e+57
          1713.91870	         7.69480e+57
          1714.72500	         7.90641e+57
          1715.53130	         8.19512e+57
          1716.33760	         7.35083e+57
          1717.14390	         6.84741e+57
          1717.95020	         8.13270e+57
          1718.75650	         9.47947e+57
          1719.56280	         8.98372e+57
          1720.36910	         6.50078e+57
          1721.17540	         7.20664e+57
          1721.98170	         7.30960e+57
          1722.78800	         7.43243e+57
          1723.59430	         7.38176e+57
          1724.40060	         8.16993e+57
          1725.20690	         8.76048e+57
          1726.01320	         7.96348e+57
          1726.81950	         7.35161e+57
          1727.62580	         7.58926e+57
          1728.43210	         7.57429e+57
          1729.23840	         7.63338e+57
          1730.04470	         9.23039e+57
          1730.85100	         8.89458e+57
          1731.65730	         8.30249e+57
          1732.46360	         7.89313e+57
          1733.26990	         7.37052e+57
          1734.07620	         6.90294e+57
          1734.88250	         6.95279e+57
          1735.68880	         7.96810e+57
          1736.49510	         8.20918e+57
          1737.30140	         7.25519e+57
          1738.10770	         6.61609e+57
          1738.91400	         6.59558e+57
          1739.72030	         6.19153e+57
          1740.52660	         5.13739e+57
          1741.33290	         5.47377e+57
          1742.13920	         7.14968e+57
          1742.94550	         8.30852e+57
          1743.75180	         8.49867e+57
          1744.55810	         7.74099e+57
          1745.36440	         6.85044e+57
          1746.17070	         5.41899e+57
          1746.97700	         4.90054e+57
          1747.78330	         6.17981e+57
          1748.58960	         6.52654e+57
          1749.39590	         5.73522e+57
          1750.20220	         5.83489e+57
          1751.00850	         5.67776e+57
          1751.81480	         6.10851e+57
          1752.62110	         7.08285e+57
          1753.42740	         7.83459e+57
          1754.23370	         7.22504e+57
          1755.04000	         6.95961e+57
          1755.84630	         7.97268e+57
          1756.65260	         8.90132e+57
          1757.45890	         8.87628e+57
          1758.26520	         7.92232e+57
          1759.07150	         8.77581e+57
          1759.87780	         8.62467e+57
          1760.68410	         7.86438e+57
          1761.49040	         7.38300e+57
          1762.29670	         6.46583e+57
          1763.10300	         6.38258e+57
          1763.90930	         6.70747e+57
          1764.71560	         7.19478e+57
          1765.52190	         7.81897e+57
          1766.32820	         9.61654e+57
          1767.13450	         8.80722e+57
          1767.94080	         6.81201e+57
          1768.74710	         6.98250e+57
          1769.55340	         6.72756e+57
          1770.35970	         5.81977e+57
          1771.16600	         7.11903e+57
          1771.97230	         8.32291e+57
          1772.77860	         8.22108e+57
          1773.58490	         7.17598e+57
          1774.39120	         6.11804e+57
          1775.19750	         5.95242e+57
          1776.00380	         7.14594e+57
          1776.81010	         7.71256e+57
          1777.61640	         7.34738e+57
          1778.42270	         7.27156e+57
          1779.22900	         6.36610e+57
          1780.03530	         5.70791e+57
          1780.84160	         7.61944e+57
          1781.64790	         8.58602e+57
          1782.45420	         8.27478e+57
          1783.26050	         6.82126e+57
          1784.06680	         7.03154e+57
          1784.87310	         8.06156e+57
          1785.67940	         7.74177e+57
          1786.48570	         7.33951e+57
          1787.29200	         6.55752e+57
          1788.09830	         6.77563e+57
          1788.90460	         5.95042e+57
          1789.71090	         5.09644e+57
          1790.51720	         5.60719e+57
          1791.32350	         6.94069e+57
          1792.12980	         8.06143e+57
          1792.93610	         8.26974e+57
          1793.74240	         7.68493e+57
          1794.54870	         8.38691e+57
          1795.35500	         7.77070e+57
          1796.16130	         6.84146e+57
          1796.96760	         6.67073e+57
          1797.77390	         6.72549e+57
          1798.58020	         6.31728e+57
          1799.38650	         6.82899e+57
          1800.19280	         6.83320e+57
          1800.99910	         7.20330e+57
          1801.80540	         7.24412e+57
          1802.61170	         8.47328e+57
          1803.41800	         8.88959e+57
          1804.22430	         7.80663e+57
          1805.03060	         7.29893e+57
          1805.83690	         7.69144e+57
          1806.64320	         8.40321e+57
          1807.44950	         9.33402e+57
          1808.25580	         8.52622e+57
          1809.06210	         7.52792e+57
          1809.86840	         7.16520e+57
          1810.67470	         7.47800e+57
          1811.48100	         8.91590e+57
          1812.28730	         8.65742e+57
          1813.09360	         8.17472e+57
          1813.89990	         7.34413e+57
          1814.70620	         7.27359e+57
          1815.51250	         8.07720e+57
          1816.31880	         8.73142e+57
          1817.12510	         8.19119e+57
          1817.93140	         6.90582e+57
          1818.73770	         7.01450e+57
          1819.54400	         8.27837e+57
          1820.35030	         8.26098e+57
          1821.15660	         6.46915e+57
          1821.96290	         6.51728e+57
          1822.76920	         7.54345e+57
          1823.57550	         7.55523e+57
          1824.38180	         7.91238e+57
          1825.18810	         7.89752e+57
          1825.99440	         7.45131e+57
          1826.80070	         7.64661e+57
          1827.60700	         6.69846e+57
          1828.41330	         6.24483e+57
          1829.21960	         6.10929e+57
          1830.02590	         6.39556e+57
          1830.83220	         7.50042e+57
          1831.63850	         7.32720e+57
          1832.44480	         6.91051e+57
          1833.25110	         8.02489e+57
          1834.05740	         8.93482e+57
          1834.86370	         7.69563e+57
          1835.67000	         6.01094e+57
          1836.47630	         7.52326e+57
          1837.28260	         9.01349e+57
          1838.08890	         8.74303e+57
          1838.89520	         8.23440e+57
          1839.70150	         8.10660e+57
          1840.50780	         7.45918e+57
          1841.31410	         6.80053e+57
          1842.12040	         6.80630e+57
          1842.92670	         6.48959e+57
          1843.73300	         7.19492e+57
          1844.53930	         6.35484e+57
          1845.34560	         5.95530e+57
          1846.15190	         7.58421e+57
          1846.95820	         8.01050e+57
          1847.76450	         7.24446e+57
          1848.57080	         6.70892e+57
          1849.37710	         7.02022e+57
          1850.18340	         7.09470e+57
          1850.98970	         7.06102e+57
          1851.79600	         7.81508e+57
          1852.60230	         7.05949e+57
          1853.40860	         8.03268e+57
          1854.21490	         7.10597e+57
          1855.02120	         5.43579e+57
          1855.82750	         4.13115e+57
          1856.63380	         5.81466e+57
          1857.44010	         6.77121e+57
          1858.24640	         6.93440e+57
          1859.05270	         7.22742e+57
          1859.85900	         5.96470e+57
          1860.66530	         5.51791e+57
          1861.47160	         6.39810e+57
          1862.27790	         6.48774e+57
          1863.08420	         7.15025e+57
          1863.89050	         7.87724e+57
          1864.69680	         7.20324e+57
          1865.50310	         7.03157e+57
          1866.30940	         6.46965e+57
          1867.11570	         6.81954e+57
          1867.92200	         8.13878e+57
          1868.72830	         7.92614e+57
          1869.53460	         6.07151e+57
          1870.34090	         7.22283e+57
          1871.14720	         7.59105e+57
          1871.95350	         7.40577e+57
          1872.75980	         8.01467e+57
          1873.56610	         7.03084e+57
          1874.37240	         5.92107e+57
          1875.17870	         6.34951e+57
          1875.98500	         7.30941e+57
          1876.79130	         7.84049e+57
          1877.59760	         6.70889e+57
          1878.40390	         5.75303e+57
          1879.21020	         6.04900e+57
          1880.01650	         6.47404e+57
          1880.82280	         7.44276e+57
          1881.62910	         8.95766e+57
          1882.43540	         9.56996e+57
          1883.24170	         8.33691e+57
          1884.04800	         6.54520e+57
          1884.85430	         6.99497e+57
          1885.66060	         7.50990e+57
          1886.46690	         7.56072e+57
          1887.27320	         7.23720e+57
          1888.07950	         5.66814e+57
          1888.88580	         8.00133e+57
          1889.69210	         9.48301e+57
          1890.49840	         9.53895e+57
          1891.30470	         8.49799e+57
          1892.11100	         8.05347e+57
          1892.91730	         7.49995e+57
          1893.72360	         7.66075e+57
          1894.52990	         7.59849e+57
          1895.33620	         7.79366e+57
          1896.14250	         7.16033e+57
          1896.94880	         6.38825e+57
          1897.75510	         4.93907e+57
          1898.56140	         4.90728e+57
          1899.36770	         7.03496e+57
          1900.17400	         6.44132e+57
          1900.98030	         6.85171e+57
          1901.78660	         7.48226e+57
          1902.59290	         7.74955e+57
          1903.39920	         8.69636e+57
          1904.20550	         8.74977e+57
          1905.01180	         8.26437e+57
          1905.81810	         9.28968e+57
          1906.62440	         1.18209e+58
          1907.43070	         1.45593e+58
          1908.23700	         1.58562e+58
          1909.04330	         1.30742e+58
          1909.84960	         1.08326e+58
          1910.65590	         9.57965e+57
          1911.46220	         9.25856e+57
          1912.26850	         7.20105e+57
          1913.07480	         5.88593e+57
          1913.88110	         5.57535e+57
          1914.68740	         6.16252e+57
          1915.49370	         5.59137e+57
          1916.30000	         6.07865e+57
          1917.10630	         7.12888e+57
          1917.91260	         7.30073e+57
          1918.71890	         7.34066e+57
          1919.52520	         6.73623e+57
          1920.33150	         5.81239e+57
          1921.13780	         6.42054e+57
          1921.94410	         7.54181e+57
          1922.75040	         6.98735e+57
          1923.55670	         7.35401e+57
          1924.36300	         7.49293e+57
          1925.16930	         6.36744e+57
          1925.97560	         5.59768e+57
          1926.78190	         5.23100e+57
          1927.58820	         6.51688e+57
          1928.39450	         6.11614e+57
          1929.20080	         5.77060e+57
          1930.00710	         6.84509e+57
          1930.81340	         7.38131e+57
          1931.61970	         6.69883e+57
          1932.42600	         7.01873e+57
          1933.23230	         8.35943e+57
          1934.03860	         6.90114e+57
          1934.84490	         5.77779e+57
          1935.65120	         8.57294e+57
          1936.45750	         8.75840e+57
          1937.26380	         7.57914e+57
          1938.07010	         7.75525e+57
          1938.87640	         7.49766e+57
          1939.68270	         7.05719e+57
          1940.48900	         7.96081e+57
          1941.29530	         8.85915e+57
          1942.10160	         9.21809e+57
          1942.90790	         6.99217e+57
          1943.71420	         6.02484e+57
          1944.52050	         7.29786e+57
          1945.32680	         6.30255e+57
          1946.13310	         7.85196e+57
          1946.93940	         8.70931e+57
          1947.74570	         7.58824e+57
          1948.55200	         7.11213e+57
          1949.35830	         7.13321e+57
          1950.16460	         6.30492e+57
          1950.97090	         6.04322e+57
          1951.77720	         7.50465e+57
          1952.58350	         8.49942e+57
          1953.38980	         6.90382e+57
          1954.19610	         4.48845e+57
          1955.00240	         4.75247e+57
          1955.80870	         5.94769e+57
          1956.61500	         6.05658e+57
          1957.42130	         6.44920e+57
          1958.22760	         7.41542e+57
          1959.03390	         8.58349e+57
          1959.84020	         8.46904e+57
          1960.64650	         6.76180e+57
          1961.45280	         6.83028e+57
          1962.25910	         7.14896e+57
          1963.06540	         6.65157e+57
          1963.87170	         6.49958e+57
          1964.67800	         6.37334e+57
          1965.48430	         5.18260e+57
          1966.29060	         5.65649e+57
          1967.09690	         8.37957e+57
          1967.90320	         7.76561e+57
          1968.70950	         6.59044e+57
          1969.51580	         6.77752e+57
          1970.32210	         7.47256e+57
          1971.12840	         6.86312e+57
          1971.93470	         4.85330e+57
          1972.74100	         4.78050e+57
          1973.54730	         6.63752e+57
          1974.35360	         7.61716e+57
          1975.15990	         8.02606e+57
          1975.96620	         6.74488e+57
          1976.77250	         8.91588e+57
          1977.57880	         8.33103e+57
          1978.38510	         6.31273e+57
          1979.19140	         7.01335e+57
          1979.99770	         7.32217e+57
          1980.80400	         7.57234e+57
          1981.61030	         6.36720e+57
          1982.41660	         6.01070e+57
          1983.22290	         6.01818e+57
          1984.02920	         4.97624e+57
          1984.83550	         5.49875e+57
          1985.64180	         6.39095e+57
          1986.44810	         6.46649e+57
          1987.25440	         5.27145e+57
          1988.06070	         4.64850e+57
          1988.86700	         6.50910e+57
          1989.67330	         6.68349e+57
          1990.47960	         6.62818e+57
          1991.28590	         6.41718e+57
          1992.09220	         4.99166e+57
          1992.89850	         5.42261e+57
          1993.70480	         5.18146e+57
          1994.51110	         5.00840e+57
          1995.31740	         4.93574e+57
          1996.12370	         5.28198e+57
          1996.93000	         5.20496e+57
          1997.73630	         7.28478e+57
          1998.54260	         7.33113e+57
          1999.34890	         6.22723e+57
          2000.15520	         6.04459e+57
          2000.96150	         6.35533e+57
          2001.76780	         6.37419e+57
          2002.57410	         5.31637e+57
          2003.38040	         6.05875e+57
          2004.18670	         6.25734e+57
          2004.99300	         6.06300e+57
          2005.79930	         7.43163e+57
          2006.60560	         7.39614e+57
          2007.41190	         6.57357e+57
          2008.21820	         6.54312e+57
          2009.02450	         6.39542e+57
          2009.83080	         5.63910e+57
          2010.63710	         6.68290e+57
          2011.44340	         6.93123e+57
          2012.24970	         7.35395e+57
          2013.05600	         6.26046e+57
          2013.86230	         5.57742e+57
          2014.66860	         5.00862e+57
          2015.47490	         5.81418e+57
          2016.28120	         5.79264e+57
          2017.08750	         5.29704e+57
          2017.89380	         5.80736e+57
          2018.70010	         6.25318e+57
          2019.50640	         5.41773e+57
          2020.31270	         7.22905e+57
          2021.11900	         7.66582e+57
          2021.92530	         7.93846e+57
          2022.73160	         7.47401e+57
          2023.53790	         8.22138e+57
          2024.34420	         7.56865e+57
          2025.15050	         5.66239e+57
          2025.95680	         5.80997e+57
          2026.76310	         7.10603e+57
          2027.56940	         7.52810e+57
          2028.37570	         7.22003e+57
          2029.18200	         6.31601e+57
          2029.98830	         5.63659e+57
          2030.79460	         5.82776e+57
          2031.60090	         6.46417e+57
          2032.40720	         5.26960e+57
          2033.21350	         5.08763e+57
          2034.01980	         4.47960e+57
          2034.82610	         3.84311e+57
          2035.63240	         4.59098e+57
          2036.43870	         6.42845e+57
          2037.24500	         6.01885e+57
          2038.05130	         6.37173e+57
          2038.85760	         5.19408e+57
          2039.66390	         5.37411e+57
          2040.47020	         5.83776e+57
          2041.27650	         6.49944e+57
          2042.08280	         4.69595e+57
          2042.88910	         5.17413e+57
          2043.69540	         5.47714e+57
          2044.50170	         7.20877e+57
          2045.30800	         7.16521e+57
          2046.11430	         5.20084e+57
          2046.92060	         4.81943e+57
          2047.72690	         6.53924e+57
          2048.53320	         4.33852e+57
          2049.33950	         4.66095e+57
          2050.14580	         6.28782e+57
          2050.95210	         7.08186e+57
          2051.75840	         8.05833e+57
          2052.56470	         6.32075e+57
          2053.37100	         4.36797e+57
          2054.17730	         4.88892e+57
          2054.98360	         4.86334e+57
          2055.78990	         4.72503e+57
          2056.59620	         3.84431e+57
          2057.40250	         5.86521e+57
          2058.20880	         7.11274e+57
          2059.01510	         6.53452e+57
          2059.82140	         7.09349e+57
          2060.62770	         8.80470e+57
          2061.43400	         1.61155e+58
          2062.24030	         1.13652e+58
          2063.04660	         5.59587e+57
          2063.85290	         2.66330e+57
          2064.65920	        -3.71324e+57
          2065.46550	        -9.54848e+57
          2066.27180	        -7.95281e+57
          2067.07810	         4.66788e+57
          2067.88440	         5.89803e+57
          2068.69070	         6.16783e+57
          2069.49700	         6.63951e+57
          2070.30330	         3.65904e+57
          2071.10960	         6.00390e+57
          2071.91590	         5.56222e+57
          2072.72220	         3.81530e+57
          2073.52850	         4.62240e+57
          2074.33480	         4.81404e+57
          2075.14110	         5.42376e+57
          2075.94740	         4.75667e+57
          2076.75370	         4.26473e+57
          2077.56000	         4.56513e+57
          2078.36630	         5.40450e+57
          2079.17260	         4.63871e+57
          2079.97890	         5.56100e+57
          2080.78520	         5.59949e+57
          2081.59150	         5.39216e+57
          2082.39780	         3.98720e+57
          2083.20410	         2.64854e+57
          2084.01040	         2.36778e+57
          2084.81670	         4.09788e+57
          2085.62300	         4.41102e+57
          2086.42930	         2.50751e+57
          2087.23560	         2.69241e+57
          2088.04190	         2.28855e+57
          2088.84820	         3.14020e+57
          2089.65450	         2.98194e+57
          2090.46080	         1.75161e+57
          2091.26710	         3.30597e+57
          2092.07340	         3.18295e+57
          2092.87970	         3.26704e+57
          2093.68600	         1.38036e+57
          2094.49230	         1.66431e+57
          2095.29860	         4.64131e+57
          2096.10490	         2.09409e+57
          2096.91120	         1.80171e+56
          2097.71750	         3.29456e+57
          2098.52380	         3.63585e+56
          2099.33010	         1.15526e+57
          2100.13640	         1.86324e+57
          2100.94270	         1.61303e+57
          2101.74900	         1.45840e+57
          2102.55530	         2.47421e+57
          2103.36160	         2.91367e+57
          2104.16790	         2.28488e+57
          2104.97420	         9.39342e+56
          2105.78050	         2.75391e+56
          2106.58680	        -2.63740e+56
          2107.39310	        -1.68860e+57
          2108.19940	        -1.80113e+57
          2109.00570	        -1.69846e+57
          2109.81200	        -1.08061e+57
          2110.61830	         1.58064e+57
          2111.42460	         2.16458e+57
          2112.23090	        -1.66430e+57
          2113.03720	        -2.18549e+57
          2113.84350	        -1.79696e+57
          2114.64980	        -1.42048e+57
          2115.45610	        -7.21738e+55
          2116.26240	         7.44664e+56
          2117.06870	        -2.01254e+57
          2117.87500	        -2.90029e+57
          2118.68130	        -1.43554e+57
          2119.48760	         4.43704e+57
          2120.29390	        -1.72352e+57
          2121.10020	        -5.01282e+57
          2121.90650	        -4.64883e+57
          2122.71280	         2.17829e+57
          2123.51910	         3.98146e+57
          2124.32540	         1.31599e+57
          2125.13170	        -3.81161e+57
          2125.93800	        -6.51436e+56
          2126.74430	         1.71336e+56
          2127.55060	        -3.20767e+57
          2128.35690	        -2.77825e+57
          2129.16320	        -2.85439e+57
          2129.96950	        -5.51482e+57
          2130.77580	        -5.40869e+57
          2131.58210	        -1.78975e+57
          2132.38840	        -2.73100e+56
          2133.19470	        -1.10591e+57
          2134.00100	         2.70969e+57
          2134.80730	        -6.23451e+57
          2135.61360	         2.41529e+57
          2136.41990	         1.01436e+58
          2137.22620	         1.96877e+57
          2138.03250	         7.78799e+52
          2138.83880	        -2.62332e+57
          2139.64510	        -9.35570e+57
          2140.45140	        -1.41957e+57
          2141.25770	        -1.06937e+58
          2142.06400	        -8.53725e+57
          2142.87030	        -1.11487e+57
          2143.67660	        -7.11423e+57
          2144.48290	        -1.53149e+57
          2145.28920	         1.07886e+58
          2146.09550	        -6.84225e+57
          2146.90180	        -1.26371e+58
          2147.70810	        -8.97620e+57
          2148.51440	        -5.29150e+57
          2149.32070	        -6.62190e+57
          2150.12700	        -6.50121e+57
          2150.93330	         1.72416e+57
          2151.73960	         1.38891e+56
          2152.54590	         2.26901e+57
          2153.35220	         3.42870e+57
          2154.15850	         3.26492e+56
          2154.96480	         6.12719e+57
          2155.77110	        -8.95693e+57
          2156.57740	        -1.40577e+58
          2157.38370	        -1.76923e+57
          2158.19000	        -1.06310e+57
          2158.99630	         6.92352e+56
          2159.80260	        -6.67605e+57
          2160.60890	        -1.02776e+58
          2161.41520	        -5.00377e+57
          2162.22150	         4.33788e+57
          2163.02780	         4.55233e+57
          2163.83410	        -6.73520e+57
          2164.64040	        -8.99278e+57
          2165.44670	        -1.32749e+58
          2166.25300	        -1.71567e+58
          2167.05930	        -9.55887e+57
          2167.86560	        -6.51386e+57
          2168.67190	        -1.12538e+58
          2169.47820	         1.65669e+57
          2170.28450	         2.01400e+57
          2171.09080	        -4.98240e+56
          2171.89710	         6.92823e+56
          2172.70340	         6.90205e+57
          2173.50970	        -2.59113e+57
          2174.31600	        -3.92152e+57
          2175.12230	        -6.77120e+57
          2175.92860	        -2.70634e+57
          2176.73490	        -1.11637e+58
          2177.54120	        -2.18038e+57
          2178.34750	        -4.62854e+57
          2179.15380	                 nan
          2179.96010	                 nan
          2180.76640	                 nan
          2181.57270	                 nan
          2182.37900	                 nan
          2183.18530	                 nan
          2183.99160	                 nan
          2184.79790	                 nan
          2185.60420	                 nan
          2186.41050	                 nan
          2187.21680	                 nan
          2188.02310	                 nan
          2188.82940	                 nan
          2189.63570	                 nan
          2190.44200	                 nan
          2191.24830	                 nan
          2192.05460	                 nan
          2192.86090	                 nan
          2193.66720	                 nan
          2194.47350	                 nan
          2195.27980	                 nan
          2196.08610	                 nan
          2196.89240	                 nan
          2197.69870	                 nan
          2198.50500	                 nan
          2199.31130	                 nan
          2200.11760	                 nan
          2200.92390	                 nan
          2201.73020	                 nan
          2202.53650	                 nan
          2203.34280	                 nan
          2204.14910	                 nan
          2204.95540	                 nan
          2205.76170	                 nan
          2206.56800	                 nan
          2207.37430	                 nan
          2208.18060	                 nan
          2208.98690	                 nan
          2209.79320	                 nan
          2210.59950	                 nan
          2211.40580	                 nan
          2212.21210	                 nan
          2213.01840	                 nan
          2213.82470	                 nan
          2214.63100	                 nan
          2215.43730	         0.00000e+00
