#sample_73_stacked_spectrum_rest_UV-bands_median_H-alpha_noDC.txt
#median Lum: 1.72647e+42
#Rest-frame wavelength (A) | Luminosity (erg/s/A)
#
          1110.00000	         0.00000e+00
          1110.80630	        -4.03358e+58
          1111.61260	         1.55152e+59
          1112.41890	         3.27625e+58
          1113.22520	        -7.21373e+58
          1114.03150	        -5.76776e+57
          1114.83780	         4.53602e+59
          1115.64410	        -2.05499e+57
          1116.45040	         6.58103e+58
          1117.25670	         7.81921e+58
          1118.06300	         9.59734e+58
          1118.86930	         1.01507e+59
          1119.67560	         5.74737e+58
          1120.48190	         2.63595e+58
          1121.28820	        -1.10639e+59
          1122.09450	         1.87244e+58
          1122.90080	         4.36607e+58
          1123.70710	         3.98358e+58
          1124.51340	         3.16831e+58
          1125.31970	        -6.90257e+58
          1126.12600	        -4.18612e+58
          1126.93230	        -3.29511e+58
          1127.73860	        -9.92760e+58
          1128.54490	        -4.60248e+58
          1129.35120	         3.59232e+58
          1130.15750	        -1.09347e+57
          1130.96380	        -3.61920e+58
          1131.77010	         3.74159e+58
          1132.57640	         5.23122e+58
          1133.38270	         3.21109e+58
          1134.18900	         2.53467e+58
          1134.99530	         2.69317e+58
          1135.80160	         2.13995e+58
          1136.60790	         2.34887e+58
          1137.41420	         4.41352e+57
          1138.22050	         5.33591e+58
          1139.02680	         4.06026e+58
          1139.83310	         1.60396e+58
          1140.63940	         2.05947e+58
          1141.44570	        -6.41297e+56
          1142.25200	         1.49849e+57
          1143.05830	         3.10928e+58
          1143.86460	         3.77302e+58
          1144.67090	         3.54208e+58
          1145.47720	         1.34660e+58
          1146.28350	         6.11425e+57
          1147.08980	         1.31987e+58
          1147.89610	         1.65256e+58
          1148.70240	         1.79994e+58
          1149.50870	         3.01206e+58
          1150.31500	         1.67590e+58
          1151.12130	         3.07950e+56
          1151.92760	        -4.10743e+57
          1152.73390	         6.26631e+57
          1153.54020	         7.32913e+57
          1154.34650	         2.69934e+58
          1155.15280	         2.42247e+58
          1155.95910	         8.39147e+57
          1156.76540	        -8.00964e+57
          1157.57170	        -3.13587e+57
          1158.37800	         7.88995e+57
          1159.18430	        -1.12399e+58
          1159.99060	        -5.01552e+57
          1160.79690	        -5.30191e+57
          1161.60320	         1.53469e+58
          1162.40950	         1.04550e+58
          1163.21580	         2.36196e+58
          1164.02210	         1.46135e+58
          1164.82840	         1.44870e+58
          1165.63470	         2.22195e+58
          1166.44100	         2.81321e+58
          1167.24730	         2.73330e+58
          1168.05360	         5.42303e+57
          1168.85990	         7.39810e+57
          1169.66620	         1.65535e+58
          1170.47250	         1.30184e+58
          1171.27880	         1.27848e+58
          1172.08510	         1.87157e+58
          1172.89140	         1.74105e+58
          1173.69770	         1.17004e+58
          1174.50400	         1.34393e+58
          1175.31030	         1.57471e+58
          1176.11660	         1.60903e+58
          1176.92290	         1.20202e+58
          1177.72920	         1.10046e+58
          1178.53550	         1.08706e+58
          1179.34180	         3.36904e+57
          1180.14810	         9.65553e+57
          1180.95440	         1.43579e+58
          1181.76070	         9.26455e+57
          1182.56700	         1.03288e+58
          1183.37330	         1.11841e+58
          1184.17960	         1.13318e+58
          1184.98590	         1.10817e+58
          1185.79220	         1.25390e+58
          1186.59850	         1.33230e+58
          1187.40480	         1.29607e+58
          1188.21110	         1.08036e+58
          1189.01740	         1.14419e+58
          1189.82370	         1.53493e+58
          1190.63000	         1.73412e+58
          1191.43630	         1.41652e+58
          1192.24260	         1.28099e+58
          1193.04890	         1.19498e+58
          1193.85520	         1.47296e+58
          1194.66150	         6.28269e+57
          1195.46780	         1.40415e+58
          1196.27410	         1.68371e+58
          1197.08040	         9.21835e+57
          1197.88670	         1.43598e+58
          1198.69300	         1.87010e+58
          1199.49930	         1.84115e+58
          1200.30560	         1.08091e+58
          1201.11190	         1.11229e+58
          1201.91820	         9.50453e+57
          1202.72450	         8.09443e+57
          1203.53080	         1.81296e+58
          1204.33710	         8.20083e+57
          1205.14340	         9.79031e+57
          1205.94970	         5.70515e+57
          1206.75600	         6.52725e+57
          1207.56230	         7.88450e+57
          1208.36860	         7.32800e+57
          1209.17490	         5.72289e+57
          1209.98120	         5.52597e+57
          1210.78750	         9.35216e+57
          1211.59380	         1.27571e+58
          1212.40010	         1.95680e+58
          1213.20640	         2.28224e+58
          1214.01270	         2.46237e+58
          1214.81900	         2.39607e+58
          1215.62530	         4.12525e+58
          1216.43160	         9.05233e+58
          1217.23790	         1.55811e+59
          1218.04420	         1.18972e+59
          1218.85050	         9.25135e+58
          1219.65680	         6.54198e+58
          1220.46310	         3.84006e+58
          1221.26940	         2.74489e+58
          1222.07570	         1.64276e+58
          1222.88200	         1.49401e+58
          1223.68830	         1.12244e+58
          1224.49460	         8.23291e+57
          1225.30090	         7.29561e+57
          1226.10720	         4.72565e+57
          1226.91350	         5.42109e+57
          1227.71980	         1.26865e+58
          1228.52610	         1.28989e+58
          1229.33240	         8.89820e+57
          1230.13870	         7.03443e+57
          1230.94500	         8.46063e+57
          1231.75130	         7.41334e+57
          1232.55760	         1.06742e+58
          1233.36390	         7.91264e+57
          1234.17020	         6.39435e+57
          1234.97650	         7.00872e+57
          1235.78280	         8.58961e+57
          1236.58910	         6.80247e+57
          1237.39540	         7.05110e+57
          1238.20170	         8.48910e+57
          1239.00800	         1.16782e+58
          1239.81430	         1.54941e+58
          1240.62060	         1.44888e+58
          1241.42690	         1.27941e+58
          1242.23320	         1.22318e+58
          1243.03950	         8.42775e+57
          1243.84580	         9.34639e+57
          1244.65210	         9.24512e+57
          1245.45840	         1.10837e+58
          1246.26470	         1.10098e+58
          1247.07100	         6.96835e+57
          1247.87730	         5.53757e+57
          1248.68360	         4.63681e+57
          1249.48990	         7.68108e+57
          1250.29620	         1.26116e+58
          1251.10250	         1.07312e+58
          1251.90880	         6.68174e+57
          1252.71510	         3.64155e+57
          1253.52140	         6.16484e+57
          1254.32770	         1.07231e+58
          1255.13400	         1.24931e+58
          1255.94030	         1.22651e+58
          1256.74660	         1.11714e+58
          1257.55290	         1.16360e+58
          1258.35920	         9.48843e+57
          1259.16550	         4.95203e+57
          1259.97180	         6.37632e+57
          1260.77810	         1.14136e+58
          1261.58440	         1.39302e+58
          1262.39070	         9.25244e+57
          1263.19700	         8.80567e+57
          1264.00330	         9.35928e+57
          1264.80960	         1.16257e+58
          1265.61590	         1.26827e+58
          1266.42220	         1.10733e+58
          1267.22850	         1.07256e+58
          1268.03480	         1.46136e+58
          1268.84110	         1.68717e+58
          1269.64740	         1.39286e+58
          1270.45370	         1.30686e+58
          1271.26000	         1.12402e+58
          1272.06630	         1.27779e+58
          1272.87260	         1.48107e+58
          1273.67890	         1.43584e+58
          1274.48520	         1.32145e+58
          1275.29150	         1.25251e+58
          1276.09780	         1.30119e+58
          1276.90410	         1.51042e+58
          1277.71040	         1.37174e+58
          1278.51670	         1.11102e+58
          1279.32300	         1.40754e+58
          1280.12930	         1.50515e+58
          1280.93560	         1.21607e+58
          1281.74190	         1.22424e+58
          1282.54820	         1.17320e+58
          1283.35450	         1.06797e+58
          1284.16080	         1.24927e+58
          1284.96710	         1.32208e+58
          1285.77340	         1.27337e+58
          1286.57970	         1.12551e+58
          1287.38600	         1.28861e+58
          1288.19230	         1.76888e+58
          1288.99860	         1.72999e+58
          1289.80490	         1.32653e+58
          1290.61120	         1.39934e+58
          1291.41750	         1.28070e+58
          1292.22380	         1.23028e+58
          1293.03010	         1.30791e+58
          1293.83640	         1.35803e+58
          1294.64270	         1.01254e+58
          1295.44900	         6.74583e+57
          1296.25530	         8.47774e+57
          1297.06160	         1.11564e+58
          1297.86790	         1.21538e+58
          1298.67420	         9.80496e+57
          1299.48050	         1.01709e+58
          1300.28680	         1.14212e+58
          1301.09310	         1.01232e+58
          1301.89940	         5.63028e+57
          1302.70570	         5.57428e+57
          1303.51200	         7.95472e+57
          1304.31830	         1.11301e+58
          1305.12460	         1.16179e+58
          1305.93090	         1.11014e+58
          1306.73720	         1.20568e+58
          1307.54350	         1.35742e+58
          1308.34980	         1.56127e+58
          1309.15610	         1.63274e+58
          1309.96240	         1.50768e+58
          1310.76870	         1.46657e+58
          1311.57500	         1.38995e+58
          1312.38130	         1.25090e+58
          1313.18760	         1.25059e+58
          1313.99390	         1.26213e+58
          1314.80020	         1.46282e+58
          1315.60650	         1.58219e+58
          1316.41280	         1.41673e+58
          1317.21910	         1.20778e+58
          1318.02540	         1.15038e+58
          1318.83170	         1.38387e+58
          1319.63800	         1.35780e+58
          1320.44430	         1.18539e+58
          1321.25060	         1.18979e+58
          1322.05690	         1.25883e+58
          1322.86320	         1.14565e+58
          1323.66950	         1.02994e+58
          1324.47580	         9.23736e+57
          1325.28210	         9.66006e+57
          1326.08840	         1.08012e+58
          1326.89470	         1.09353e+58
          1327.70100	         9.56528e+57
          1328.50730	         8.46609e+57
          1329.31360	         7.76430e+57
          1330.11990	         9.29928e+57
          1330.92620	         9.83630e+57
          1331.73250	         1.11241e+58
          1332.53880	         9.35707e+57
          1333.34510	         9.11493e+57
          1334.15140	         8.20892e+57
          1334.95770	         9.39943e+57
          1335.76400	         1.00639e+58
          1336.57030	         1.03611e+58
          1337.37660	         1.21842e+58
          1338.18290	         1.30466e+58
          1338.98920	         1.37654e+58
          1339.79550	         1.22540e+58
          1340.60180	         1.19850e+58
          1341.40810	         1.28899e+58
          1342.21440	         1.09438e+58
          1343.02070	         1.13711e+58
          1343.82700	         1.40174e+58
          1344.63330	         1.31099e+58
          1345.43960	         1.16594e+58
          1346.24590	         1.13145e+58
          1347.05220	         1.24898e+58
          1347.85850	         1.16215e+58
          1348.66480	         1.25472e+58
          1349.47110	         1.26460e+58
          1350.27740	         1.21645e+58
          1351.08370	         1.23087e+58
          1351.89000	         1.21566e+58
          1352.69630	         1.22550e+58
          1353.50260	         1.16983e+58
          1354.30890	         1.17100e+58
          1355.11520	         1.31515e+58
          1355.92150	         1.13284e+58
          1356.72780	         1.00972e+58
          1357.53410	         1.09753e+58
          1358.34040	         1.09211e+58
          1359.14670	         1.17486e+58
          1359.95300	         1.21328e+58
          1360.75930	         1.18034e+58
          1361.56560	         1.14832e+58
          1362.37190	         1.23262e+58
          1363.17820	         1.04686e+58
          1363.98450	         1.09916e+58
          1364.79080	         1.35407e+58
          1365.59710	         1.34576e+58
          1366.40340	         1.24207e+58
          1367.20970	         1.05137e+58
          1368.01600	         8.71535e+57
          1368.82230	         9.93213e+57
          1369.62860	         1.10987e+58
          1370.43490	         9.45249e+57
          1371.24120	         8.78724e+57
          1372.04750	         8.85732e+57
          1372.85380	         1.11322e+58
          1373.66010	         1.12293e+58
          1374.46640	         1.12485e+58
          1375.27270	         1.08615e+58
          1376.07900	         9.06184e+57
          1376.88530	         8.54372e+57
          1377.69160	         9.33320e+57
          1378.49790	         9.06299e+57
          1379.30420	         9.20381e+57
          1380.11050	         1.02205e+58
          1380.91680	         1.03698e+58
          1381.72310	         9.57917e+57
          1382.52940	         1.02294e+58
          1383.33570	         8.83378e+57
          1384.14200	         8.33501e+57
          1384.94830	         1.01093e+58
          1385.75460	         1.14205e+58
          1386.56090	         1.21543e+58
          1387.36720	         1.13888e+58
          1388.17350	         1.28572e+58
          1388.97980	         1.11925e+58
          1389.78610	         9.09095e+57
          1390.59240	         8.49698e+57
          1391.39870	         8.70722e+57
          1392.20500	         9.05431e+57
          1393.01130	         7.19814e+57
          1393.81760	         8.14553e+57
          1394.62390	         8.93108e+57
          1395.43020	         8.27081e+57
          1396.23650	         7.54559e+57
          1397.04280	         6.53529e+57
          1397.84910	         6.88777e+57
          1398.65540	         8.87851e+57
          1399.46170	         9.22109e+57
          1400.26800	         8.35443e+57
          1401.07430	         8.38227e+57
          1401.88060	         8.43984e+57
          1402.68690	         8.81660e+57
          1403.49320	         9.82123e+57
          1404.29950	         1.05629e+58
          1405.10580	         1.14300e+58
          1405.91210	         1.17710e+58
          1406.71840	         1.06039e+58
          1407.52470	         1.03047e+58
          1408.33100	         9.46086e+57
          1409.13730	         1.01559e+58
          1409.94360	         1.19756e+58
          1410.74990	         1.17281e+58
          1411.55620	         1.06638e+58
          1412.36250	         9.91025e+57
          1413.16880	         9.84897e+57
          1413.97510	         8.42616e+57
          1414.78140	         9.41158e+57
          1415.58770	         1.17712e+58
          1416.39400	         1.13501e+58
          1417.20030	         1.06545e+58
          1418.00660	         1.01527e+58
          1418.81290	         1.04833e+58
          1419.61920	         1.11744e+58
          1420.42550	         1.23419e+58
          1421.23180	         1.34362e+58
          1422.03810	         1.38411e+58
          1422.84440	         1.30309e+58
          1423.65070	         1.43482e+58
          1424.45700	         1.09273e+58
          1425.26330	         8.32602e+57
          1426.06960	         1.00180e+58
          1426.87590	         1.04077e+58
          1427.68220	         1.07414e+58
          1428.48850	         1.09419e+58
          1429.29480	         1.07601e+58
          1430.10110	         1.11286e+58
          1430.90740	         8.71186e+57
          1431.71370	         8.54075e+57
          1432.52000	         8.59704e+57
          1433.32630	         8.10480e+57
          1434.13260	         8.16443e+57
          1434.93890	         8.31078e+57
          1435.74520	         9.50444e+57
          1436.55150	         1.06410e+58
          1437.35780	         9.24574e+57
          1438.16410	         8.91791e+57
          1438.97040	         9.24280e+57
          1439.77670	         1.00797e+58
          1440.58300	         1.02322e+58
          1441.38930	         1.06852e+58
          1442.19560	         1.12072e+58
          1443.00190	         1.03427e+58
          1443.80820	         1.12168e+58
          1444.61450	         1.01886e+58
          1445.42080	         8.66556e+57
          1446.22710	         1.08169e+58
          1447.03340	         1.10546e+58
          1447.83970	         1.22737e+58
          1448.64600	         1.15650e+58
          1449.45230	         1.06868e+58
          1450.25860	         1.05371e+58
          1451.06490	         9.52228e+57
          1451.87120	         7.69021e+57
          1452.67750	         7.49390e+57
          1453.48380	         9.03630e+57
          1454.29010	         8.40346e+57
          1455.09640	         8.04429e+57
          1455.90270	         9.78643e+57
          1456.70900	         9.67043e+57
          1457.51530	         9.66384e+57
          1458.32160	         1.21775e+58
          1459.12790	         1.23440e+58
          1459.93420	         1.04463e+58
          1460.74050	         8.25923e+57
          1461.54680	         8.36926e+57
          1462.35310	         8.11754e+57
          1463.15940	         9.89564e+57
          1463.96570	         1.13865e+58
          1464.77200	         1.28531e+58
          1465.57830	         1.15974e+58
          1466.38460	         9.69578e+57
          1467.19090	         8.88726e+57
          1467.99720	         9.16708e+57
          1468.80350	         9.66703e+57
          1469.60980	         1.02238e+58
          1470.41610	         9.88246e+57
          1471.22240	         8.60639e+57
          1472.02870	         8.95099e+57
          1472.83500	         9.31764e+57
          1473.64130	         9.42586e+57
          1474.44760	         9.91091e+57
          1475.25390	         9.25739e+57
          1476.06020	         8.77713e+57
          1476.86650	         8.48674e+57
          1477.67280	         8.09752e+57
          1478.47910	         7.21892e+57
          1479.28540	         7.12014e+57
          1480.09170	         7.22993e+57
          1480.89800	         6.80005e+57
          1481.70430	         8.37712e+57
          1482.51060	         9.59425e+57
          1483.31690	         9.37041e+57
          1484.12320	         9.76651e+57
          1484.92950	         8.56649e+57
          1485.73580	         8.34686e+57
          1486.54210	         9.37988e+57
          1487.34840	         9.22207e+57
          1488.15470	         9.09984e+57
          1488.96100	         9.95025e+57
          1489.76730	         9.83226e+57
          1490.57360	         8.34531e+57
          1491.37990	         6.88827e+57
          1492.18620	         7.40432e+57
          1492.99250	         7.70378e+57
          1493.79880	         6.89027e+57
          1494.60510	         7.21858e+57
          1495.41140	         7.30481e+57
          1496.21770	         8.79242e+57
          1497.02400	         1.08340e+58
          1497.83030	         8.63163e+57
          1498.63660	         7.17718e+57
          1499.44290	         6.88154e+57
          1500.24920	         7.11180e+57
          1501.05550	         8.96190e+57
          1501.86180	         9.88630e+57
          1502.66810	         9.10076e+57
          1503.47440	         7.91292e+57
          1504.28070	         8.88497e+57
          1505.08700	         1.03603e+58
          1505.89330	         9.75335e+57
          1506.69960	         8.51306e+57
          1507.50590	         8.56000e+57
          1508.31220	         9.19224e+57
          1509.11850	         7.99276e+57
          1509.92480	         9.04339e+57
          1510.73110	         8.83647e+57
          1511.53740	         7.49866e+57
          1512.34370	         7.86407e+57
          1513.15000	         8.78377e+57
          1513.95630	         9.91068e+57
          1514.76260	         9.64441e+57
          1515.56890	         9.16900e+57
          1516.37520	         9.15867e+57
          1517.18150	         8.60966e+57
          1517.98780	         7.35994e+57
          1518.79410	         7.30206e+57
          1519.60040	         7.86221e+57
          1520.40670	         9.26423e+57
          1521.21300	         9.06682e+57
          1522.01930	         8.60571e+57
          1522.82560	         1.00756e+58
          1523.63190	         1.02637e+58
          1524.43820	         8.24712e+57
          1525.24450	         6.74722e+57
          1526.05080	         6.51057e+57
          1526.85710	         6.49138e+57
          1527.66340	         7.05228e+57
          1528.46970	         7.96936e+57
          1529.27600	         7.73221e+57
          1530.08230	         8.00674e+57
          1530.88860	         8.94509e+57
          1531.69490	         9.09399e+57
          1532.50120	         9.51869e+57
          1533.30750	         1.05712e+58
          1534.11380	         1.00604e+58
          1534.92010	         9.58411e+57
          1535.72640	         9.93382e+57
          1536.53270	         9.41592e+57
          1537.33900	         9.19055e+57
          1538.14530	         1.00355e+58
          1538.95160	         9.85714e+57
          1539.75790	         8.91227e+57
          1540.56420	         8.24746e+57
          1541.37050	         8.95854e+57
          1542.17680	         8.53259e+57
          1542.98310	         8.52718e+57
          1543.78940	         8.32878e+57
          1544.59570	         7.73196e+57
          1545.40200	         8.59679e+57
          1546.20830	         1.00536e+58
          1547.01460	         1.14551e+58
          1547.82090	         1.10527e+58
          1548.62720	         1.14282e+58
          1549.43350	         1.17436e+58
          1550.23980	         1.07814e+58
          1551.04610	         1.27297e+58
          1551.85240	         1.18156e+58
          1552.65870	         1.19307e+58
          1553.46500	         1.07604e+58
          1554.27130	         1.12779e+58
          1555.07760	         1.15803e+58
          1555.88390	         8.72918e+57
          1556.69020	         9.18199e+57
          1557.49650	         9.52301e+57
          1558.30280	         8.62850e+57
          1559.10910	         9.04488e+57
          1559.91540	         9.73094e+57
          1560.72170	         8.96351e+57
          1561.52800	         8.31611e+57
          1562.33430	         9.20398e+57
          1563.14060	         9.10050e+57
          1563.94690	         8.77628e+57
          1564.75320	         9.02301e+57
          1565.55950	         8.13380e+57
          1566.36580	         8.95370e+57
          1567.17210	         1.00980e+58
          1567.97840	         9.37454e+57
          1568.78470	         7.85096e+57
          1569.59100	         8.53321e+57
          1570.39730	         9.63950e+57
          1571.20360	         8.69451e+57
          1572.00990	         7.99161e+57
          1572.81620	         8.86849e+57
          1573.62250	         1.02941e+58
          1574.42880	         9.04957e+57
          1575.23510	         7.74516e+57
          1576.04140	         8.71306e+57
          1576.84770	         9.44086e+57
          1577.65400	         9.72093e+57
          1578.46030	         1.06491e+58
          1579.26660	         1.07471e+58
          1580.07290	         9.67230e+57
          1580.87920	         8.16959e+57
          1581.68550	         7.73051e+57
          1582.49180	         8.12115e+57
          1583.29810	         8.42738e+57
          1584.10440	         8.65252e+57
          1584.91070	         8.23877e+57
          1585.71700	         8.76396e+57
          1586.52330	         8.50438e+57
          1587.32960	         8.69463e+57
          1588.13590	         9.21637e+57
          1588.94220	         9.12031e+57
          1589.74850	         8.53768e+57
          1590.55480	         8.67008e+57
          1591.36110	         7.98358e+57
          1592.16740	         8.54759e+57
          1592.97370	         8.65919e+57
          1593.78000	         9.09429e+57
          1594.58630	         9.35009e+57
          1595.39260	         8.69833e+57
          1596.19890	         9.34720e+57
          1597.00520	         9.98482e+57
          1597.81150	         8.79853e+57
          1598.61780	         7.37431e+57
          1599.42410	         7.19806e+57
          1600.23040	         7.43560e+57
          1601.03670	         8.02010e+57
          1601.84300	         7.71895e+57
          1602.64930	         8.85259e+57
          1603.45560	         9.49445e+57
          1604.26190	         8.65227e+57
          1605.06820	         8.61727e+57
          1605.87450	         8.37928e+57
          1606.68080	         7.08009e+57
          1607.48710	         6.16644e+57
          1608.29340	         6.61028e+57
          1609.09970	         7.32340e+57
          1609.90600	         8.13608e+57
          1610.71230	         7.28134e+57
          1611.51860	         6.37548e+57
          1612.32490	         7.00399e+57
          1613.13120	         8.11531e+57
          1613.93750	         8.60483e+57
          1614.74380	         9.02080e+57
          1615.55010	         9.86285e+57
          1616.35640	         1.00885e+58
          1617.16270	         1.00084e+58
          1617.96900	         1.01982e+58
          1618.77530	         9.19803e+57
          1619.58160	         9.49534e+57
          1620.38790	         8.23560e+57
          1621.19420	         8.05255e+57
          1622.00050	         8.67790e+57
          1622.80680	         8.86704e+57
          1623.61310	         8.67728e+57
          1624.41940	         8.06030e+57
          1625.22570	         9.23318e+57
          1626.03200	         1.00868e+58
          1626.83830	         8.23944e+57
          1627.64460	         7.79649e+57
          1628.45090	         6.84254e+57
          1629.25720	         7.91982e+57
          1630.06350	         8.12938e+57
          1630.86980	         7.70146e+57
          1631.67610	         8.08091e+57
          1632.48240	         8.32877e+57
          1633.28870	         8.86681e+57
          1634.09500	         1.02613e+58
          1634.90130	         1.07243e+58
          1635.70760	         9.45187e+57
          1636.51390	         7.59932e+57
          1637.32020	         7.65168e+57
          1638.12650	         9.30843e+57
          1638.93280	         9.48931e+57
          1639.73910	         1.03216e+58
          1640.54540	         1.07562e+58
          1641.35170	         9.47774e+57
          1642.15800	         1.00113e+58
          1642.96430	         8.96248e+57
          1643.77060	         9.53828e+57
          1644.57690	         9.09000e+57
          1645.38320	         8.28998e+57
          1646.18950	         7.20066e+57
          1646.99580	         9.08071e+57
          1647.80210	         9.26246e+57
          1648.60840	         9.27098e+57
          1649.41470	         7.92435e+57
          1650.22100	         6.78830e+57
          1651.02730	         8.17882e+57
          1651.83360	         8.55197e+57
          1652.63990	         8.91127e+57
          1653.44620	         9.55085e+57
          1654.25250	         8.47532e+57
          1655.05880	         8.23650e+57
          1655.86510	         7.94213e+57
          1656.67140	         8.40120e+57
          1657.47770	         7.80098e+57
          1658.28400	         8.04514e+57
          1659.09030	         8.98337e+57
          1659.89660	         9.49118e+57
          1660.70290	         9.82120e+57
          1661.50920	         9.58513e+57
          1662.31550	         8.80197e+57
          1663.12180	         8.88481e+57
          1663.92810	         1.08318e+58
          1664.73440	         1.17487e+58
          1665.54070	         1.26098e+58
          1666.34700	         1.25101e+58
          1667.15330	         1.10091e+58
          1667.95960	         8.96807e+57
          1668.76590	         7.81932e+57
          1669.57220	         7.09589e+57
          1670.37850	         7.88279e+57
          1671.18480	         8.96082e+57
          1671.99110	         7.32109e+57
          1672.79740	         6.72235e+57
          1673.60370	         6.17707e+57
          1674.41000	         8.07720e+57
          1675.21630	         7.87501e+57
          1676.02260	         6.56112e+57
          1676.82890	         7.07268e+57
          1677.63520	         8.18817e+57
          1678.44150	         8.43571e+57
          1679.24780	         8.37734e+57
          1680.05410	         7.03861e+57
          1680.86040	         6.10288e+57
          1681.66670	         7.19699e+57
          1682.47300	         7.50367e+57
          1683.27930	         8.00343e+57
          1684.08560	         8.50800e+57
          1684.89190	         8.25208e+57
          1685.69820	         5.88388e+57
          1686.50450	         5.87816e+57
          1687.31080	         7.03625e+57
          1688.11710	         7.91771e+57
          1688.92340	         6.63202e+57
          1689.72970	         5.88009e+57
          1690.53600	         6.27085e+57
          1691.34230	         7.50914e+57
          1692.14860	         7.69757e+57
          1692.95490	         7.36349e+57
          1693.76120	         8.05457e+57
          1694.56750	         8.04018e+57
          1695.37380	         8.53611e+57
          1696.18010	         8.58146e+57
          1696.98640	         9.12322e+57
          1697.79270	         9.85425e+57
          1698.59900	         9.43691e+57
          1699.40530	         7.95412e+57
          1700.21160	         7.88596e+57
          1701.01790	         9.04239e+57
          1701.82420	         8.05230e+57
          1702.63050	         7.74485e+57
          1703.43680	         7.45406e+57
          1704.24310	         8.02208e+57
          1705.04940	         8.23023e+57
          1705.85570	         7.96765e+57
          1706.66200	         8.05893e+57
          1707.46830	         8.34803e+57
          1708.27460	         8.17118e+57
          1709.08090	         7.55594e+57
          1709.88720	         6.46086e+57
          1710.69350	         6.76527e+57
          1711.49980	         6.39117e+57
          1712.30610	         7.20833e+57
          1713.11240	         8.63786e+57
          1713.91870	         7.98567e+57
          1714.72500	         8.68271e+57
          1715.53130	         8.39873e+57
          1716.33760	         7.26742e+57
          1717.14390	         7.35056e+57
          1717.95020	         8.90358e+57
          1718.75650	         8.45905e+57
          1719.56280	         8.49064e+57
          1720.36910	         7.90451e+57
          1721.17540	         7.35569e+57
          1721.98170	         6.33479e+57
          1722.78800	         6.70966e+57
          1723.59430	         8.29236e+57
          1724.40060	         8.92924e+57
          1725.20690	         8.38107e+57
          1726.01320	         7.38397e+57
          1726.81950	         7.38549e+57
          1727.62580	         7.73518e+57
          1728.43210	         7.49500e+57
          1729.23840	         7.44443e+57
          1730.04470	         8.81134e+57
          1730.85100	         9.02250e+57
          1731.65730	         8.54606e+57
          1732.46360	         8.36203e+57
          1733.26990	         7.11885e+57
          1734.07620	         7.39304e+57
          1734.88250	         7.55918e+57
          1735.68880	         7.89397e+57
          1736.49510	         8.07257e+57
          1737.30140	         7.49657e+57
          1738.10770	         6.92648e+57
          1738.91400	         7.46489e+57
          1739.72030	         7.51640e+57
          1740.52660	         6.71636e+57
          1741.33290	         6.09462e+57
          1742.13920	         6.60048e+57
          1742.94550	         8.41329e+57
          1743.75180	         8.92395e+57
          1744.55810	         8.21270e+57
          1745.36440	         7.92645e+57
          1746.17070	         6.55772e+57
          1746.97700	         5.47766e+57
          1747.78330	         7.24256e+57
          1748.58960	         7.23947e+57
          1749.39590	         7.15448e+57
          1750.20220	         6.75265e+57
          1751.00850	         5.56363e+57
          1751.81480	         5.23410e+57
          1752.62110	         7.10359e+57
          1753.42740	         7.74213e+57
          1754.23370	         6.06247e+57
          1755.04000	         6.78217e+57
          1755.84630	         7.58311e+57
          1756.65260	         8.84518e+57
          1757.45890	         8.41987e+57
          1758.26520	         6.66662e+57
          1759.07150	         8.55472e+57
          1759.87780	         8.62458e+57
          1760.68410	         8.62883e+57
          1761.49040	         8.87443e+57
          1762.29670	         7.46540e+57
          1763.10300	         7.93277e+57
          1763.90930	         7.70784e+57
          1764.71560	         6.74892e+57
          1765.52190	         7.31946e+57
          1766.32820	         8.65881e+57
          1767.13450	         9.02429e+57
          1767.94080	         6.78505e+57
          1768.74710	         7.43870e+57
          1769.55340	         8.54527e+57
          1770.35970	         7.78146e+57
          1771.16600	         8.06910e+57
          1771.97230	         8.97041e+57
          1772.77860	         8.28415e+57
          1773.58490	         7.41065e+57
          1774.39120	         6.40228e+57
          1775.19750	         5.95145e+57
          1776.00380	         6.39734e+57
          1776.81010	         7.44850e+57
          1777.61640	         7.03884e+57
          1778.42270	         7.11032e+57
          1779.22900	         7.04058e+57
          1780.03530	         6.59608e+57
          1780.84160	         7.50671e+57
          1781.64790	         9.39672e+57
          1782.45420	         8.28142e+57
          1783.26050	         7.37827e+57
          1784.06680	         6.89269e+57
          1784.87310	         7.25263e+57
          1785.67940	         7.96316e+57
          1786.48570	         7.11401e+57
          1787.29200	         6.57916e+57
          1788.09830	         6.48863e+57
          1788.90460	         6.10189e+57
          1789.71090	         5.31204e+57
          1790.51720	         5.55399e+57
          1791.32350	         7.56107e+57
          1792.12980	         8.09439e+57
          1792.93610	         7.01651e+57
          1793.74240	         7.62067e+57
          1794.54870	         8.43472e+57
          1795.35500	         7.65516e+57
          1796.16130	         7.93017e+57
          1796.96760	         6.93452e+57
          1797.77390	         7.40924e+57
          1798.58020	         6.79921e+57
          1799.38650	         6.07242e+57
          1800.19280	         7.50642e+57
          1800.99910	         8.34626e+57
          1801.80540	         7.62402e+57
          1802.61170	         7.49268e+57
          1803.41800	         6.90016e+57
          1804.22430	         7.31093e+57
          1805.03060	         6.47827e+57
          1805.83690	         6.63723e+57
          1806.64320	         8.04917e+57
          1807.44950	         8.20976e+57
          1808.25580	         7.35075e+57
          1809.06210	         7.42637e+57
          1809.86840	         6.56661e+57
          1810.67470	         6.97409e+57
          1811.48100	         8.10545e+57
          1812.28730	         9.19246e+57
          1813.09360	         8.43104e+57
          1813.89990	         9.79149e+57
          1814.70620	         8.15887e+57
          1815.51250	         7.21059e+57
          1816.31880	         7.55687e+57
          1817.12510	         7.80674e+57
          1817.93140	         6.77731e+57
          1818.73770	         7.54242e+57
          1819.54400	         7.94644e+57
          1820.35030	         8.26786e+57
          1821.15660	         6.33798e+57
          1821.96290	         6.58463e+57
          1822.76920	         8.01222e+57
          1823.57550	         7.23777e+57
          1824.38180	         6.31421e+57
          1825.18810	         7.13050e+57
          1825.99440	         8.99220e+57
          1826.80070	         8.31568e+57
          1827.60700	         7.41918e+57
          1828.41330	         6.08184e+57
          1829.21960	         6.90552e+57
          1830.02590	         7.20904e+57
          1830.83220	         7.75693e+57
          1831.63850	         8.90702e+57
          1832.44480	         8.52723e+57
          1833.25110	         8.31672e+57
          1834.05740	         8.11544e+57
          1834.86370	         6.62960e+57
          1835.67000	         6.10270e+57
          1836.47630	         8.06633e+57
          1837.28260	         9.36066e+57
          1838.08890	         8.41643e+57
          1838.89520	         8.70004e+57
          1839.70150	         8.29944e+57
          1840.50780	         8.03504e+57
          1841.31410	         6.87572e+57
          1842.12040	         6.30462e+57
          1842.92670	         6.45298e+57
          1843.73300	         6.52565e+57
          1844.53930	         6.26707e+57
          1845.34560	         7.01615e+57
          1846.15190	         7.72793e+57
          1846.95820	         7.96520e+57
          1847.76450	         7.65904e+57
          1848.57080	         7.48588e+57
          1849.37710	         6.50079e+57
          1850.18340	         7.54347e+57
          1850.98970	         9.33590e+57
          1851.79600	         9.05448e+57
          1852.60230	         7.38687e+57
          1853.40860	         6.78018e+57
          1854.21490	         7.12626e+57
          1855.02120	         5.96093e+57
          1855.82750	         5.70634e+57
          1856.63380	         6.88738e+57
          1857.44010	         8.04235e+57
          1858.24640	         7.06389e+57
          1859.05270	         7.55016e+57
          1859.85900	         6.21083e+57
          1860.66530	         5.25069e+57
          1861.47160	         7.01575e+57
          1862.27790	         7.00935e+57
          1863.08420	         7.80515e+57
          1863.89050	         8.61184e+57
          1864.69680	         8.03346e+57
          1865.50310	         7.87746e+57
          1866.30940	         7.05141e+57
          1867.11570	         6.86544e+57
          1867.92200	         7.63751e+57
          1868.72830	         7.99543e+57
          1869.53460	         7.24344e+57
          1870.34090	         6.96621e+57
          1871.14720	         7.78246e+57
          1871.95350	         7.46313e+57
          1872.75980	         7.29041e+57
          1873.56610	         6.96200e+57
          1874.37240	         6.27421e+57
          1875.17870	         6.56668e+57
          1875.98500	         7.45659e+57
          1876.79130	         7.61100e+57
          1877.59760	         7.01273e+57
          1878.40390	         6.47304e+57
          1879.21020	         6.45166e+57
          1880.01650	         7.38277e+57
          1880.82280	         8.13529e+57
          1881.62910	         9.09029e+57
          1882.43540	         1.00310e+58
          1883.24170	         8.64689e+57
          1884.04800	         6.44693e+57
          1884.85430	         7.87845e+57
          1885.66060	         8.92552e+57
          1886.46690	         8.42143e+57
          1887.27320	         8.00420e+57
          1888.07950	         6.70051e+57
          1888.88580	         6.38570e+57
          1889.69210	         8.69375e+57
          1890.49840	         8.18641e+57
          1891.30470	         7.80922e+57
          1892.11100	         8.67082e+57
          1892.91730	         7.88827e+57
          1893.72360	         7.36540e+57
          1894.52990	         6.50598e+57
          1895.33620	         7.25989e+57
          1896.14250	         7.00659e+57
          1896.94880	         4.95819e+57
          1897.75510	         4.56510e+57
          1898.56140	         5.60193e+57
          1899.36770	         7.72458e+57
          1900.17400	         6.30487e+57
          1900.98030	         6.33343e+57
          1901.78660	         7.56392e+57
          1902.59290	         7.73415e+57
          1903.39920	         8.43912e+57
          1904.20550	         9.11148e+57
          1905.01180	         8.75647e+57
          1905.81810	         1.06576e+58
          1906.62440	         1.25948e+58
          1907.43070	         1.51803e+58
          1908.23700	         1.46271e+58
          1909.04330	         1.30965e+58
          1909.84960	         1.16473e+58
          1910.65590	         1.00910e+58
          1911.46220	         1.04663e+58
          1912.26850	         8.82735e+57
          1913.07480	         6.93839e+57
          1913.88110	         6.66102e+57
          1914.68740	         5.87889e+57
          1915.49370	         5.68456e+57
          1916.30000	         6.97351e+57
          1917.10630	         8.07065e+57
          1917.91260	         6.62120e+57
          1918.71890	         6.12044e+57
          1919.52520	         6.83873e+57
          1920.33150	         6.22828e+57
          1921.13780	         6.90553e+57
          1921.94410	         7.45015e+57
          1922.75040	         7.95201e+57
          1923.55670	         8.23066e+57
          1924.36300	         8.78118e+57
          1925.16930	         7.74440e+57
          1925.97560	         5.04052e+57
          1926.78190	         4.64994e+57
          1927.58820	         6.36386e+57
          1928.39450	         6.03037e+57
          1929.20080	         6.01879e+57
          1930.00710	         5.83566e+57
          1930.81340	         6.86875e+57
          1931.61970	         7.16170e+57
          1932.42600	         8.37277e+57
          1933.23230	         8.78136e+57
          1934.03860	         6.08107e+57
          1934.84490	         5.40927e+57
          1935.65120	         8.08790e+57
          1936.45750	         9.25320e+57
          1937.26380	         6.88544e+57
          1938.07010	         6.94060e+57
          1938.87640	         7.78829e+57
          1939.68270	         8.02258e+57
          1940.48900	         8.25490e+57
          1941.29530	         8.71004e+57
          1942.10160	         8.12860e+57
          1942.90790	         8.57100e+57
          1943.71420	         7.03395e+57
          1944.52050	         5.92524e+57
          1945.32680	         6.22189e+57
          1946.13310	         7.81331e+57
          1946.93940	         8.45808e+57
          1947.74570	         7.69963e+57
          1948.55200	         5.72971e+57
          1949.35830	         7.06586e+57
          1950.16460	         6.24363e+57
          1950.97090	         6.46105e+57
          1951.77720	         8.13922e+57
          1952.58350	         8.45081e+57
          1953.38980	         6.13598e+57
          1954.19610	         5.12340e+57
          1955.00240	         5.47007e+57
          1955.80870	         5.72870e+57
          1956.61500	         6.24909e+57
          1957.42130	         6.00411e+57
          1958.22760	         7.57857e+57
          1959.03390	         8.09793e+57
          1959.84020	         8.11411e+57
          1960.64650	         7.47126e+57
          1961.45280	         7.41528e+57
          1962.25910	         7.54245e+57
          1963.06540	         7.89451e+57
          1963.87170	         7.60756e+57
          1964.67800	         7.82479e+57
          1965.48430	         7.64240e+57
          1966.29060	         6.44914e+57
          1967.09690	         7.35396e+57
          1967.90320	         7.28254e+57
          1968.70950	         7.15755e+57
          1969.51580	         5.87016e+57
          1970.32210	         7.42236e+57
          1971.12840	         8.28317e+57
          1971.93470	         6.03848e+57
          1972.74100	         6.36069e+57
          1973.54730	         7.48564e+57
          1974.35360	         7.64010e+57
          1975.15990	         7.43002e+57
          1975.96620	         7.07882e+57
          1976.77250	         8.13347e+57
          1977.57880	         7.48854e+57
          1978.38510	         7.48250e+57
          1979.19140	         7.81122e+57
          1979.99770	         7.92631e+57
          1980.80400	         8.12993e+57
          1981.61030	         6.58821e+57
          1982.41660	         6.04589e+57
          1983.22290	         6.25329e+57
          1984.02920	         5.99343e+57
          1984.83550	         5.62455e+57
          1985.64180	         5.65613e+57
          1986.44810	         6.78786e+57
          1987.25440	         6.41268e+57
          1988.06070	         5.60974e+57
          1988.86700	         6.62108e+57
          1989.67330	         7.14844e+57
          1990.47960	         7.23470e+57
          1991.28590	         6.66513e+57
          1992.09220	         6.24535e+57
          1992.89850	         6.87443e+57
          1993.70480	         5.52921e+57
          1994.51110	         5.72390e+57
          1995.31740	         5.09371e+57
          1996.12370	         5.44184e+57
          1996.93000	         6.10064e+57
          1997.73630	         8.16471e+57
          1998.54260	         8.87099e+57
          1999.34890	         6.66841e+57
          2000.15520	         6.31537e+57
          2000.96150	         6.95067e+57
          2001.76780	         6.23879e+57
          2002.57410	         5.55420e+57
          2003.38040	         6.88769e+57
          2004.18670	         6.99322e+57
          2004.99300	         6.30633e+57
          2005.79930	         7.77900e+57
          2006.60560	         7.54723e+57
          2007.41190	         6.05825e+57
          2008.21820	         5.91958e+57
          2009.02450	         6.57970e+57
          2009.83080	         7.00852e+57
          2010.63710	         7.02574e+57
          2011.44340	         6.17172e+57
          2012.24970	         7.44289e+57
          2013.05600	         7.02625e+57
          2013.86230	         6.24041e+57
          2014.66860	         5.89318e+57
          2015.47490	         6.74497e+57
          2016.28120	         6.62850e+57
          2017.08750	         5.50936e+57
          2017.89380	         6.48584e+57
          2018.70010	         6.17826e+57
          2019.50640	         5.45381e+57
          2020.31270	         7.61059e+57
          2021.11900	         7.30887e+57
          2021.92530	         8.50203e+57
          2022.73160	         8.13941e+57
          2023.53790	         7.87105e+57
          2024.34420	         6.12620e+57
          2025.15050	         5.90133e+57
          2025.95680	         5.83526e+57
          2026.76310	         5.76470e+57
          2027.56940	         6.15742e+57
          2028.37570	         7.07718e+57
          2029.18200	         6.84170e+57
          2029.98830	         5.92620e+57
          2030.79460	         6.31161e+57
          2031.60090	         6.17317e+57
          2032.40720	         5.46733e+57
          2033.21350	         6.23603e+57
          2034.01980	         6.11049e+57
          2034.82610	         4.92056e+57
          2035.63240	         6.17876e+57
          2036.43870	         5.98942e+57
          2037.24500	         5.60024e+57
          2038.05130	         6.84654e+57
          2038.85760	         7.42562e+57
          2039.66390	         6.42841e+57
          2040.47020	         5.36675e+57
          2041.27650	         6.25041e+57
          2042.08280	         5.97186e+57
          2042.88910	         5.84982e+57
          2043.69540	         5.64756e+57
          2044.50170	         5.27941e+57
          2045.30800	         6.09004e+57
          2046.11430	         5.20175e+57
          2046.92060	         4.40913e+57
          2047.72690	         5.37463e+57
          2048.53320	         6.91406e+57
          2049.33950	         4.69370e+57
          2050.14580	         4.02762e+57
          2050.95210	         6.79068e+57
          2051.75840	         8.38265e+57
          2052.56470	         5.91142e+57
          2053.37100	         4.96702e+57
          2054.17730	         5.25167e+57
          2054.98360	         4.26473e+57
          2055.78990	         3.61731e+57
          2056.59620	         4.19885e+57
          2057.40250	         5.20004e+57
          2058.20880	         6.39055e+57
          2059.01510	         5.50442e+57
          2059.82140	         6.30774e+57
          2060.62770	         9.23737e+57
          2061.43400	         1.61466e+58
          2062.24030	         1.31171e+58
          2063.04660	         3.01325e+57
          2063.85290	         1.71485e+57
          2064.65920	        -4.87157e+57
          2065.46550	        -7.91333e+57
          2066.27180	        -9.65695e+57
          2067.07810	         7.63848e+56
          2067.88440	         4.80184e+57
          2068.69070	         5.95602e+57
          2069.49700	         5.00876e+57
          2070.30330	         5.07304e+57
          2071.10960	         5.91097e+57
          2071.91590	         7.84010e+57
          2072.72220	         4.32175e+57
          2073.52850	         4.87456e+57
          2074.33480	         4.11101e+57
          2075.14110	         4.68155e+57
          2075.94740	         4.34889e+57
          2076.75370	         4.98870e+57
          2077.56000	         4.84530e+57
          2078.36630	         4.86371e+57
          2079.17260	         5.65947e+57
          2079.97890	         5.60685e+57
          2080.78520	         4.33201e+57
          2081.59150	         4.13079e+57
          2082.39780	         5.02167e+57
          2083.20410	         2.80049e+57
          2084.01040	         1.74657e+57
          2084.81670	         5.13803e+57
          2085.62300	         4.42015e+57
          2086.42930	         5.05034e+57
          2087.23560	         5.18416e+57
          2088.04190	         4.39696e+57
          2088.84820	         3.47555e+57
          2089.65450	         2.34796e+57
          2090.46080	         2.42683e+57
          2091.26710	         2.80302e+57
          2092.07340	         2.66180e+57
          2092.87970	         2.38905e+57
          2093.68600	        -5.22071e+56
          2094.49230	         2.25814e+55
          2095.29860	         6.38248e+57
          2096.10490	         5.47630e+57
          2096.91120	        -2.91242e+55
          2097.71750	        -2.71827e+57
          2098.52380	         7.61969e+56
          2099.33010	         1.35109e+57
          2100.13640	         1.97656e+57
          2100.94270	         1.58880e+57
          2101.74900	         3.04858e+57
          2102.55530	         4.35990e+57
          2103.36160	         2.03142e+57
          2104.16790	         4.26953e+57
          2104.97420	         4.32251e+57
          2105.78050	         3.29967e+57
          2106.58680	         3.05759e+57
          2107.39310	        -1.54167e+57
          2108.19940	        -8.06966e+56
          2109.00570	         1.45147e+57
          2109.81200	         5.93459e+56
          2110.61830	         4.66717e+56
          2111.42460	        -6.23319e+56
          2112.23090	         2.76577e+57
          2113.03720	         6.98336e+55
          2113.84350	         4.02440e+56
          2114.64980	         2.33586e+57
          2115.45610	        -3.05762e+57
          2116.26240	        -4.47063e+57
          2117.06870	        -2.00597e+56
          2117.87500	        -3.03099e+57
          2118.68130	        -1.62228e+57
          2119.48760	         2.17502e+57
          2120.29390	        -1.07237e+57
          2121.10020	        -1.62805e+57
          2121.90650	        -3.02316e+57
          2122.71280	        -1.36503e+57
          2123.51910	         3.49639e+57
          2124.32540	         6.23646e+56
          2125.13170	        -1.08365e+57
          2125.93800	         4.44783e+57
          2126.74430	        -1.21039e+56
          2127.55060	        -7.16904e+57
          2128.35690	        -1.31282e+57
          2129.16320	         1.53701e+57
          2129.96950	        -3.63831e+57
          2130.77580	        -9.91312e+56
          2131.58210	        -1.78903e+57
          2132.38840	         2.58218e+57
          2133.19470	        -3.66954e+57
          2134.00100	         1.08331e+56
          2134.80730	        -6.66535e+57
          2135.61360	        -1.41178e+57
          2136.41990	         9.05441e+57
          2137.22620	         1.27407e+58
          2138.03250	        -3.51724e+56
          2138.83880	        -7.28094e+57
          2139.64510	        -2.55081e+57
          2140.45140	         3.52075e+57
          2141.25770	        -9.14733e+57
          2142.06400	        -8.47016e+57
          2142.87030	         8.89562e+57
          2143.67660	         1.45901e+58
          2144.48290	         9.39132e+57
          2145.28920	         1.16991e+58
          2146.09550	        -5.23515e+57
          2146.90180	        -1.77176e+58
          2147.70810	        -3.18312e+57
          2148.51440	        -5.96299e+57
          2149.32070	        -1.20886e+58
          2150.12700	        -8.97523e+57
          2150.93330	        -1.00656e+58
          2151.73960	         3.56973e+56
          2152.54590	        -5.68377e+57
          2153.35220	        -6.96764e+57
          2154.15850	        -5.52755e+57
          2154.96480	        -6.97279e+57
          2155.77110	        -2.97722e+57
          2156.57740	        -2.55491e+57
          2157.38370	        -2.38460e+57
          2158.19000	        -4.29421e+57
          2158.99630	        -9.35889e+57
          2159.80260	        -2.34201e+58
          2160.60890	        -2.20920e+58
          2161.41520	        -5.37093e+57
          2162.22150	         4.98454e+57
          2163.02780	         4.73589e+57
          2163.83410	        -9.38746e+57
          2164.64040	        -1.31880e+58
          2165.44670	        -1.45822e+58
          2166.25300	        -1.11850e+58
          2167.05930	        -2.59530e+57
          2167.86560	         3.03558e+56
          2168.67190	        -5.12557e+57
          2169.47820	        -3.08990e+56
          2170.28450	        -5.35772e+56
          2171.09080	         5.36280e+55
          2171.89710	         1.64612e+57
          2172.70340	         2.28513e+57
          2173.50970	        -6.33022e+57
          2174.31600	        -5.09658e+57
          2175.12230	        -1.11154e+57
          2175.92860	        -5.28269e+57
          2176.73490	        -3.21374e+57
          2177.54120	         1.73645e+57
          2178.34750	        -6.34606e+57
          2179.15380	                 nan
          2179.96010	                 nan
          2180.76640	                 nan
          2181.57270	                 nan
          2182.37900	                 nan
          2183.18530	                 nan
          2183.99160	                 nan
          2184.79790	                 nan
          2185.60420	                 nan
          2186.41050	                 nan
          2187.21680	                 nan
          2188.02310	                 nan
          2188.82940	                 nan
          2189.63570	                 nan
          2190.44200	                 nan
          2191.24830	                 nan
          2192.05460	                 nan
          2192.86090	                 nan
          2193.66720	                 nan
          2194.47350	                 nan
          2195.27980	                 nan
          2196.08610	                 nan
          2196.89240	                 nan
          2197.69870	                 nan
          2198.50500	                 nan
          2199.31130	                 nan
          2200.11760	                 nan
          2200.92390	                 nan
          2201.73020	                 nan
          2202.53650	                 nan
          2203.34280	                 nan
          2204.14910	                 nan
          2204.95540	                 nan
          2205.76170	                 nan
          2206.56800	                 nan
          2207.37430	                 nan
          2208.18060	                 nan
          2208.98690	                 nan
          2209.79320	                 nan
          2210.59950	                 nan
          2211.40580	                 nan
          2212.21210	                 nan
          2213.01840	                 nan
          2213.82470	                 nan
          2214.63100	                 nan
          2215.43730	         0.00000e+00
