#sample_470_stacked_spectrum_rest_UV-bands_median_H-alpha_noDC.txt
#median Lum: 1.69204e+42
#Rest-frame wavelength (A) | Luminosity (erg/s/A)
#
          1110.00000	         0.00000e+00
          1110.80630	         4.14625e+59
          1111.61260	         7.03061e+59
          1112.41890	         5.20640e+59
          1113.22520	        -2.27167e+58
          1114.03150	        -2.64535e+58
          1114.83780	         4.86208e+59
          1115.64410	         9.47164e+58
          1116.45040	         1.33616e+58
          1117.25670	        -8.70141e+58
          1118.06300	         2.40852e+58
          1118.86930	         9.25589e+58
          1119.67560	         1.68246e+59
          1120.48190	         3.20046e+58
          1121.28820	        -9.05813e+58
          1122.09450	        -2.77244e+57
          1122.90080	         1.20307e+59
          1123.70710	         1.14572e+59
          1124.51340	         1.19538e+59
          1125.31970	        -2.01026e+57
          1126.12600	        -6.10125e+58
          1126.93230	        -3.80027e+58
          1127.73860	        -2.63266e+58
          1128.54490	         1.55716e+58
          1129.35120	         4.32158e+57
          1130.15750	        -7.88577e+57
          1130.96380	         6.21759e+57
          1131.77010	         3.82760e+58
          1132.57640	         6.25875e+58
          1133.38270	         4.59525e+58
          1134.18900	         1.03178e+58
          1134.99530	         4.38919e+58
          1135.80160	         4.32933e+58
          1136.60790	         1.95198e+58
          1137.41420	         5.42019e+57
          1138.22050	         3.86475e+58
          1139.02680	         5.78377e+58
          1139.83310	         2.71171e+58
          1140.63940	         1.06035e+58
          1141.44570	        -1.92840e+58
          1142.25200	        -1.02357e+58
          1143.05830	         1.37662e+58
          1143.86460	         2.76970e+58
          1144.67090	         1.76927e+58
          1145.47720	         1.64514e+58
          1146.28350	         1.00817e+58
          1147.08980	         1.72918e+58
          1147.89610	         1.47538e+57
          1148.70240	         1.57091e+58
          1149.50870	         2.57324e+58
          1150.31500	         1.63919e+58
          1151.12130	         1.08397e+58
          1151.92760	         6.56564e+57
          1152.73390	        -4.66164e+57
          1153.54020	        -1.01905e+58
          1154.34650	         2.45221e+58
          1155.15280	         2.89673e+58
          1155.95910	         1.04080e+58
          1156.76540	         1.63629e+58
          1157.57170	         5.52043e+57
          1158.37800	        -6.22337e+57
          1159.18430	         1.71875e+57
          1159.99060	         7.53050e+57
          1160.79690	         3.71705e+57
          1161.60320	         7.29680e+57
          1162.40950	         1.00356e+58
          1163.21580	         9.73984e+57
          1164.02210	         1.24001e+58
          1164.82840	         1.03071e+58
          1165.63470	         1.75172e+58
          1166.44100	         2.93471e+58
          1167.24730	         1.81747e+58
          1168.05360	         6.45962e+57
          1168.85990	         8.51367e+57
          1169.66620	         8.22878e+57
          1170.47250	         1.18620e+58
          1171.27880	         1.53883e+58
          1172.08510	         1.79164e+58
          1172.89140	         1.42169e+58
          1173.69770	        -1.27905e+57
          1174.50400	         3.65264e+57
          1175.31030	         1.05107e+58
          1176.11660	         1.63951e+58
          1176.92290	         1.48247e+58
          1177.72920	         1.08159e+58
          1178.53550	         8.37039e+57
          1179.34180	         5.38571e+57
          1180.14810	         1.24477e+58
          1180.95440	         1.00999e+58
          1181.76070	         6.99255e+57
          1182.56700	         9.20544e+57
          1183.37330	         4.71867e+57
          1184.17960	         1.10203e+58
          1184.98590	         1.17457e+58
          1185.79220	         6.07789e+57
          1186.59850	         7.22689e+57
          1187.40480	         1.17370e+58
          1188.21110	         1.56394e+58
          1189.01740	         1.24420e+58
          1189.82370	         1.48231e+58
          1190.63000	         1.44037e+58
          1191.43630	         1.64969e+58
          1192.24260	         1.12676e+58
          1193.04890	         1.30514e+58
          1193.85520	         1.01829e+58
          1194.66150	         5.91975e+57
          1195.46780	         1.15460e+58
          1196.27410	         1.46182e+58
          1197.08040	         5.21164e+57
          1197.88670	         9.79489e+57
          1198.69300	         1.40309e+58
          1199.49930	         1.67894e+58
          1200.30560	         1.07498e+58
          1201.11190	         1.01299e+58
          1201.91820	         9.33492e+57
          1202.72450	         6.77760e+57
          1203.53080	         1.43985e+58
          1204.33710	         6.25070e+57
          1205.14340	         6.86065e+57
          1205.94970	         8.32682e+57
          1206.75600	         5.19264e+57
          1207.56230	         5.47007e+57
          1208.36860	         7.53594e+57
          1209.17490	         2.29398e+57
          1209.98120	         3.51404e+57
          1210.78750	         8.49081e+57
          1211.59380	         1.36987e+58
          1212.40010	         1.82805e+58
          1213.20640	         1.85703e+58
          1214.01270	         2.19148e+58
          1214.81900	         2.81152e+58
          1215.62530	         4.48622e+58
          1216.43160	         8.83142e+58
          1217.23790	         1.49299e+59
          1218.04420	         1.13965e+59
          1218.85050	         8.71354e+58
          1219.65680	         5.71298e+58
          1220.46310	         3.36374e+58
          1221.26940	         2.22347e+58
          1222.07570	         1.38528e+58
          1222.88200	         1.17700e+58
          1223.68830	         9.83989e+57
          1224.49460	         8.41158e+57
          1225.30090	         7.17490e+57
          1226.10720	         7.38980e+57
          1226.91350	         8.86583e+57
          1227.71980	         8.49853e+57
          1228.52610	         9.20433e+57
          1229.33240	         8.22877e+57
          1230.13870	         6.36047e+57
          1230.94500	         5.14741e+57
          1231.75130	         6.63664e+57
          1232.55760	         9.59531e+57
          1233.36390	         9.77860e+57
          1234.17020	         7.32731e+57
          1234.97650	         6.11145e+57
          1235.78280	         7.42623e+57
          1236.58910	         7.36397e+57
          1237.39540	         8.73115e+57
          1238.20170	         1.00933e+58
          1239.00800	         1.27627e+58
          1239.81430	         1.49563e+58
          1240.62060	         1.23639e+58
          1241.42690	         1.36032e+58
          1242.23320	         1.37864e+58
          1243.03950	         1.09242e+58
          1243.84580	         8.07678e+57
          1244.65210	         1.05133e+58
          1245.45840	         9.26927e+57
          1246.26470	         6.83833e+57
          1247.07100	         6.61950e+57
          1247.87730	         4.81952e+57
          1248.68360	         3.52001e+57
          1249.48990	         5.28899e+57
          1250.29620	         9.60684e+57
          1251.10250	         1.04287e+58
          1251.90880	         5.51915e+57
          1252.71510	         3.95730e+57
          1253.52140	         4.87388e+57
          1254.32770	         9.49329e+57
          1255.13400	         1.31071e+58
          1255.94030	         1.05662e+58
          1256.74660	         1.15193e+58
          1257.55290	         1.24039e+58
          1258.35920	         1.06830e+58
          1259.16550	         6.73118e+57
          1259.97180	         3.61864e+57
          1260.77810	         6.72993e+57
          1261.58440	         1.11669e+58
          1262.39070	         9.90013e+57
          1263.19700	         8.93815e+57
          1264.00330	         9.59377e+57
          1264.80960	         1.19928e+58
          1265.61590	         1.23530e+58
          1266.42220	         1.14333e+58
          1267.22850	         1.07927e+58
          1268.03480	         1.22072e+58
          1268.84110	         1.43193e+58
          1269.64740	         1.14193e+58
          1270.45370	         1.18826e+58
          1271.26000	         1.10785e+58
          1272.06630	         7.98855e+57
          1272.87260	         9.24551e+57
          1273.67890	         1.03235e+58
          1274.48520	         1.17005e+58
          1275.29150	         1.21399e+58
          1276.09780	         1.17818e+58
          1276.90410	         1.51609e+58
          1277.71040	         1.22916e+58
          1278.51670	         1.10574e+58
          1279.32300	         1.21574e+58
          1280.12930	         1.05797e+58
          1280.93560	         9.99180e+57
          1281.74190	         1.08505e+58
          1282.54820	         1.35305e+58
          1283.35450	         1.14081e+58
          1284.16080	         1.02217e+58
          1284.96710	         1.28559e+58
          1285.77340	         1.07557e+58
          1286.57970	         9.97389e+57
          1287.38600	         1.58758e+58
          1288.19230	         1.84881e+58
          1288.99860	         1.73508e+58
          1289.80490	         1.24527e+58
          1290.61120	         1.17585e+58
          1291.41750	         1.50684e+58
          1292.22380	         1.45455e+58
          1293.03010	         1.08057e+58
          1293.83640	         1.02967e+58
          1294.64270	         9.37340e+57
          1295.44900	         6.72706e+57
          1296.25530	         6.76109e+57
          1297.06160	         9.36554e+57
          1297.86790	         1.08198e+58
          1298.67420	         1.07325e+58
          1299.48050	         1.02952e+58
          1300.28680	         1.04836e+58
          1301.09310	         7.44235e+57
          1301.89940	         4.68176e+57
          1302.70570	         7.40799e+57
          1303.51200	         8.60087e+57
          1304.31830	         1.06754e+58
          1305.12460	         1.17831e+58
          1305.93090	         1.21021e+58
          1306.73720	         1.30024e+58
          1307.54350	         1.23312e+58
          1308.34980	         1.24692e+58
          1309.15610	         1.59373e+58
          1309.96240	         1.72253e+58
          1310.76870	         1.33094e+58
          1311.57500	         1.05436e+58
          1312.38130	         1.24307e+58
          1313.18760	         1.31521e+58
          1313.99390	         1.46957e+58
          1314.80020	         1.48555e+58
          1315.60650	         1.49680e+58
          1316.41280	         1.26848e+58
          1317.21910	         1.18509e+58
          1318.02540	         1.19279e+58
          1318.83170	         1.20870e+58
          1319.63800	         1.15739e+58
          1320.44430	         1.01991e+58
          1321.25060	         1.24941e+58
          1322.05690	         1.36883e+58
          1322.86320	         1.30500e+58
          1323.66950	         1.04300e+58
          1324.47580	         9.06820e+57
          1325.28210	         9.30609e+57
          1326.08840	         1.02343e+58
          1326.89470	         1.09827e+58
          1327.70100	         1.00860e+58
          1328.50730	         8.94636e+57
          1329.31360	         8.35159e+57
          1330.11990	         8.49557e+57
          1330.92620	         8.88611e+57
          1331.73250	         9.94552e+57
          1332.53880	         9.73458e+57
          1333.34510	         8.70005e+57
          1334.15140	         8.17528e+57
          1334.95770	         9.10644e+57
          1335.76400	         1.05004e+58
          1336.57030	         1.12251e+58
          1337.37660	         1.05847e+58
          1338.18290	         1.05744e+58
          1338.98920	         1.09755e+58
          1339.79550	         1.14812e+58
          1340.60180	         1.19573e+58
          1341.40810	         1.30714e+58
          1342.21440	         1.23805e+58
          1343.02070	         1.37468e+58
          1343.82700	         1.51217e+58
          1344.63330	         1.42020e+58
          1345.43960	         1.34393e+58
          1346.24590	         1.20880e+58
          1347.05220	         1.36083e+58
          1347.85850	         1.23486e+58
          1348.66480	         1.23559e+58
          1349.47110	         1.21021e+58
          1350.27740	         1.04646e+58
          1351.08370	         1.07828e+58
          1351.89000	         1.19857e+58
          1352.69630	         1.11835e+58
          1353.50260	         1.05258e+58
          1354.30890	         1.14487e+58
          1355.11520	         1.12606e+58
          1355.92150	         1.00824e+58
          1356.72780	         1.04934e+58
          1357.53410	         1.10451e+58
          1358.34040	         1.05460e+58
          1359.14670	         1.02816e+58
          1359.95300	         9.82461e+57
          1360.75930	         9.75390e+57
          1361.56560	         1.05740e+58
          1362.37190	         1.11574e+58
          1363.17820	         1.04304e+58
          1363.98450	         1.00464e+58
          1364.79080	         1.12866e+58
          1365.59710	         1.38078e+58
          1366.40340	         1.25213e+58
          1367.20970	         1.00158e+58
          1368.01600	         9.47591e+57
          1368.82230	         8.73021e+57
          1369.62860	         9.43652e+57
          1370.43490	         8.93916e+57
          1371.24120	         9.63897e+57
          1372.04750	         8.93706e+57
          1372.85380	         1.10745e+58
          1373.66010	         1.15518e+58
          1374.46640	         1.10654e+58
          1375.27270	         1.00975e+58
          1376.07900	         8.74131e+57
          1376.88530	         8.18513e+57
          1377.69160	         8.47434e+57
          1378.49790	         7.63977e+57
          1379.30420	         7.41155e+57
          1380.11050	         8.72325e+57
          1380.91680	         9.10569e+57
          1381.72310	         1.02747e+58
          1382.52940	         8.22004e+57
          1383.33570	         6.66697e+57
          1384.14200	         8.58177e+57
          1384.94830	         1.07408e+58
          1385.75460	         8.69514e+57
          1386.56090	         9.89318e+57
          1387.36720	         1.08764e+58
          1388.17350	         1.16421e+58
          1388.97980	         1.15298e+58
          1389.78610	         8.88985e+57
          1390.59240	         8.00821e+57
          1391.39870	         7.19135e+57
          1392.20500	         8.62503e+57
          1393.01130	         8.92271e+57
          1393.81760	         8.98536e+57
          1394.62390	         8.35378e+57
          1395.43020	         5.19644e+57
          1396.23650	         6.39529e+57
          1397.04280	         7.48124e+57
          1397.84910	         8.35814e+57
          1398.65540	         9.29471e+57
          1399.46170	         1.06988e+58
          1400.26800	         8.77790e+57
          1401.07430	         7.81446e+57
          1401.88060	         8.72718e+57
          1402.68690	         9.04886e+57
          1403.49320	         8.79816e+57
          1404.29950	         9.26622e+57
          1405.10580	         1.01160e+58
          1405.91210	         1.02356e+58
          1406.71840	         1.02341e+58
          1407.52470	         1.02901e+58
          1408.33100	         1.01017e+58
          1409.13730	         1.13518e+58
          1409.94360	         1.18344e+58
          1410.74990	         1.18030e+58
          1411.55620	         1.04604e+58
          1412.36250	         9.96449e+57
          1413.16880	         9.81347e+57
          1413.97510	         8.33144e+57
          1414.78140	         9.02832e+57
          1415.58770	         1.00967e+58
          1416.39400	         9.11034e+57
          1417.20030	         1.00779e+58
          1418.00660	         1.04948e+58
          1418.81290	         1.01010e+58
          1419.61920	         1.13701e+58
          1420.42550	         1.24888e+58
          1421.23180	         1.34168e+58
          1422.03810	         1.27541e+58
          1422.84440	         1.20767e+58
          1423.65070	         1.27777e+58
          1424.45700	         1.07068e+58
          1425.26330	         8.00193e+57
          1426.06960	         8.63728e+57
          1426.87590	         1.04082e+58
          1427.68220	         9.56527e+57
          1428.48850	         1.09419e+58
          1429.29480	         1.12626e+58
          1430.10110	         1.08451e+58
          1430.90740	         9.07370e+57
          1431.71370	         7.74109e+57
          1432.52000	         8.63087e+57
          1433.32630	         8.28023e+57
          1434.13260	         7.57531e+57
          1434.93890	         8.73724e+57
          1435.74520	         9.64227e+57
          1436.55150	         8.79502e+57
          1437.35780	         8.48789e+57
          1438.16410	         9.89230e+57
          1438.97040	         1.01380e+58
          1439.77670	         9.89714e+57
          1440.58300	         9.54870e+57
          1441.38930	         9.74424e+57
          1442.19560	         8.42167e+57
          1443.00190	         8.19237e+57
          1443.80820	         1.04637e+58
          1444.61450	         9.27520e+57
          1445.42080	         8.83337e+57
          1446.22710	         1.06902e+58
          1447.03340	         1.01633e+58
          1447.83970	         1.11510e+58
          1448.64600	         1.13103e+58
          1449.45230	         1.10879e+58
          1450.25860	         1.05030e+58
          1451.06490	         8.91431e+57
          1451.87120	         8.10570e+57
          1452.67750	         7.65735e+57
          1453.48380	         8.70712e+57
          1454.29010	         8.15292e+57
          1455.09640	         7.61856e+57
          1455.90270	         9.31022e+57
          1456.70900	         9.27336e+57
          1457.51530	         1.05421e+58
          1458.32160	         1.30915e+58
          1459.12790	         1.31484e+58
          1459.93420	         1.05646e+58
          1460.74050	         8.82585e+57
          1461.54680	         9.19616e+57
          1462.35310	         8.33158e+57
          1463.15940	         9.57664e+57
          1463.96570	         1.10846e+58
          1464.77200	         1.16375e+58
          1465.57830	         1.00014e+58
          1466.38460	         9.16916e+57
          1467.19090	         8.94591e+57
          1467.99720	         9.37881e+57
          1468.80350	         9.41930e+57
          1469.60980	         8.66226e+57
          1470.41610	         1.07117e+58
          1471.22240	         1.05471e+58
          1472.02870	         9.15110e+57
          1472.83500	         9.67018e+57
          1473.64130	         1.02635e+58
          1474.44760	         9.80106e+57
          1475.25390	         1.02262e+58
          1476.06020	         8.98923e+57
          1476.86650	         8.97212e+57
          1477.67280	         8.64639e+57
          1478.47910	         6.60690e+57
          1479.28540	         6.87941e+57
          1480.09170	         9.67129e+57
          1480.89800	         9.92639e+57
          1481.70430	         8.74068e+57
          1482.51060	         8.13614e+57
          1483.31690	         7.67733e+57
          1484.12320	         7.70073e+57
          1484.92950	         8.02638e+57
          1485.73580	         8.25808e+57
          1486.54210	         9.60792e+57
          1487.34840	         9.26723e+57
          1488.15470	         8.97135e+57
          1488.96100	         9.40395e+57
          1489.76730	         9.70947e+57
          1490.57360	         8.87254e+57
          1491.37990	         7.74313e+57
          1492.18620	         8.40719e+57
          1492.99250	         7.92018e+57
          1493.79880	         9.17369e+57
          1494.60510	         9.73483e+57
          1495.41140	         8.55148e+57
          1496.21770	         9.81706e+57
          1497.02400	         1.04468e+58
          1497.83030	         8.11373e+57
          1498.63660	         7.78192e+57
          1499.44290	         7.49740e+57
          1500.24920	         6.47382e+57
          1501.05550	         6.53519e+57
          1501.86180	         8.85226e+57
          1502.66810	         9.15439e+57
          1503.47440	         8.33605e+57
          1504.28070	         8.84108e+57
          1505.08700	         9.05209e+57
          1505.89330	         1.00307e+58
          1506.69960	         9.34348e+57
          1507.50590	         7.74555e+57
          1508.31220	         7.81927e+57
          1509.11850	         9.02736e+57
          1509.92480	         9.91343e+57
          1510.73110	         9.63487e+57
          1511.53740	         7.29607e+57
          1512.34370	         6.96274e+57
          1513.15000	         8.84995e+57
          1513.95630	         9.90062e+57
          1514.76260	         9.35527e+57
          1515.56890	         8.25667e+57
          1516.37520	         8.74684e+57
          1517.18150	         8.01539e+57
          1517.98780	         7.18990e+57
          1518.79410	         7.29406e+57
          1519.60040	         7.71064e+57
          1520.40670	         1.00479e+58
          1521.21300	         1.00105e+58
          1522.01930	         8.44208e+57
          1522.82560	         9.85069e+57
          1523.63190	         1.07811e+58
          1524.43820	         8.77366e+57
          1525.24450	         6.83966e+57
          1526.05080	         5.86088e+57
          1526.85710	         6.20844e+57
          1527.66340	         6.43211e+57
          1528.46970	         7.92854e+57
          1529.27600	         8.25272e+57
          1530.08230	         7.83124e+57
          1530.88860	         7.70418e+57
          1531.69490	         8.00724e+57
          1532.50120	         8.56468e+57
          1533.30750	         9.66747e+57
          1534.11380	         9.61530e+57
          1534.92010	         9.79525e+57
          1535.72640	         8.88058e+57
          1536.53270	         9.97152e+57
          1537.33900	         9.72539e+57
          1538.14530	         8.96492e+57
          1538.95160	         8.94688e+57
          1539.75790	         9.56172e+57
          1540.56420	         8.71329e+57
          1541.37050	         8.11541e+57
          1542.17680	         7.89240e+57
          1542.98310	         7.85098e+57
          1543.78940	         7.16184e+57
          1544.59570	         6.04606e+57
          1545.40200	         8.33987e+57
          1546.20830	         1.01578e+58
          1547.01460	         1.09758e+58
          1547.82090	         1.16011e+58
          1548.62720	         1.17328e+58
          1549.43350	         1.24527e+58
          1550.23980	         1.09029e+58
          1551.04610	         1.11378e+58
          1551.85240	         1.20351e+58
          1552.65870	         1.17679e+58
          1553.46500	         1.12928e+58
          1554.27130	         9.82301e+57
          1555.07760	         9.35432e+57
          1555.88390	         8.70269e+57
          1556.69020	         8.89436e+57
          1557.49650	         9.45600e+57
          1558.30280	         8.96762e+57
          1559.10910	         8.97450e+57
          1559.91540	         9.02317e+57
          1560.72170	         8.66759e+57
          1561.52800	         8.17624e+57
          1562.33430	         8.43395e+57
          1563.14060	         7.96656e+57
          1563.94690	         7.93672e+57
          1564.75320	         8.47915e+57
          1565.55950	         7.21090e+57
          1566.36580	         7.33308e+57
          1567.17210	         8.69230e+57
          1567.97840	         8.87010e+57
          1568.78470	         8.59696e+57
          1569.59100	         8.95138e+57
          1570.39730	         8.49144e+57
          1571.20360	         7.52772e+57
          1572.00990	         7.70075e+57
          1572.81620	         8.11447e+57
          1573.62250	         8.88780e+57
          1574.42880	         8.54411e+57
          1575.23510	         7.51682e+57
          1576.04140	         8.78973e+57
          1576.84770	         9.20891e+57
          1577.65400	         9.18487e+57
          1578.46030	         9.73555e+57
          1579.26660	         1.08350e+58
          1580.07290	         9.70592e+57
          1580.87920	         7.66663e+57
          1581.68550	         7.19228e+57
          1582.49180	         8.27258e+57
          1583.29810	         8.26182e+57
          1584.10440	         9.03256e+57
          1584.91070	         9.21948e+57
          1585.71700	         8.76083e+57
          1586.52330	         8.55295e+57
          1587.32960	         8.94147e+57
          1588.13590	         9.20743e+57
          1588.94220	         8.51263e+57
          1589.74850	         8.97977e+57
          1590.55480	         9.43164e+57
          1591.36110	         8.71442e+57
          1592.16740	         8.70544e+57
          1592.97370	         9.18031e+57
          1593.78000	         9.60960e+57
          1594.58630	         9.08889e+57
          1595.39260	         8.15926e+57
          1596.19890	         8.34158e+57
          1597.00520	         9.38197e+57
          1597.81150	         9.72861e+57
          1598.61780	         8.30030e+57
          1599.42410	         6.84985e+57
          1600.23040	         6.62407e+57
          1601.03670	         7.77037e+57
          1601.84300	         8.01583e+57
          1602.64930	         8.48627e+57
          1603.45560	         8.21047e+57
          1604.26190	         7.44859e+57
          1605.06820	         7.66483e+57
          1605.87450	         7.87493e+57
          1606.68080	         7.52811e+57
          1607.48710	         6.39852e+57
          1608.29340	         6.57506e+57
          1609.09970	         7.78735e+57
          1609.90600	         6.82966e+57
          1610.71230	         6.98210e+57
          1611.51860	         8.06366e+57
          1612.32490	         6.95158e+57
          1613.13120	         7.85506e+57
          1613.93750	         8.67610e+57
          1614.74380	         8.74752e+57
          1615.55010	         8.94695e+57
          1616.35640	         9.58061e+57
          1617.16270	         1.04762e+58
          1617.96900	         9.91251e+57
          1618.77530	         8.94799e+57
          1619.58160	         9.54691e+57
          1620.38790	         8.67580e+57
          1621.19420	         9.31780e+57
          1622.00050	         9.51910e+57
          1622.80680	         9.29167e+57
          1623.61310	         9.17006e+57
          1624.41940	         9.42229e+57
          1625.22570	         9.92528e+57
          1626.03200	         8.98546e+57
          1626.83830	         8.20229e+57
          1627.64460	         6.81294e+57
          1628.45090	         7.12471e+57
          1629.25720	         9.01195e+57
          1630.06350	         8.80308e+57
          1630.86980	         5.62688e+57
          1631.67610	         7.28333e+57
          1632.48240	         9.16120e+57
          1633.28870	         7.71971e+57
          1634.09500	         8.54440e+57
          1634.90130	         1.06315e+58
          1635.70760	         8.67563e+57
          1636.51390	         7.06111e+57
          1637.32020	         7.61923e+57
          1638.12650	         1.00865e+58
          1638.93280	         9.88586e+57
          1639.73910	         9.40456e+57
          1640.54540	         9.54947e+57
          1641.35170	         7.71615e+57
          1642.15800	         8.99530e+57
          1642.96430	         9.57891e+57
          1643.77060	         9.45070e+57
          1644.57690	         7.65115e+57
          1645.38320	         7.23634e+57
          1646.18950	         6.15752e+57
          1646.99580	         8.35772e+57
          1647.80210	         8.28278e+57
          1648.60840	         7.86982e+57
          1649.41470	         8.61746e+57
          1650.22100	         7.52372e+57
          1651.02730	         7.18756e+57
          1651.83360	         7.46040e+57
          1652.63990	         8.29618e+57
          1653.44620	         8.16737e+57
          1654.25250	         7.94778e+57
          1655.05880	         8.06706e+57
          1655.86510	         7.18855e+57
          1656.67140	         7.75702e+57
          1657.47770	         8.18132e+57
          1658.28400	         8.31144e+57
          1659.09030	         8.42580e+57
          1659.89660	         8.88628e+57
          1660.70290	         9.64307e+57
          1661.50920	         9.47780e+57
          1662.31550	         8.42686e+57
          1663.12180	         8.41622e+57
          1663.92810	         9.50170e+57
          1664.73440	         1.03336e+58
          1665.54070	         1.17574e+58
          1666.34700	         1.26858e+58
          1667.15330	         1.15239e+58
          1667.95960	         9.34939e+57
          1668.76590	         7.62867e+57
          1669.57220	         7.05886e+57
          1670.37850	         7.04157e+57
          1671.18480	         7.82566e+57
          1671.99110	         7.90961e+57
          1672.79740	         7.31313e+57
          1673.60370	         6.41668e+57
          1674.41000	         6.89298e+57
          1675.21630	         7.30278e+57
          1676.02260	         6.88896e+57
          1676.82890	         5.88674e+57
          1677.63520	         6.15988e+57
          1678.44150	         7.18099e+57
          1679.24780	         9.46176e+57
          1680.05410	         7.34875e+57
          1680.86040	         5.49308e+57
          1681.66670	         6.93293e+57
          1682.47300	         8.09716e+57
          1683.27930	         8.88378e+57
          1684.08560	         8.54811e+57
          1684.89190	         7.66107e+57
          1685.69820	         6.17556e+57
          1686.50450	         5.91444e+57
          1687.31080	         6.93426e+57
          1688.11710	         8.27739e+57
          1688.92340	         6.47282e+57
          1689.72970	         7.07038e+57
          1690.53600	         7.16484e+57
          1691.34230	         7.28701e+57
          1692.14860	         8.54220e+57
          1692.95490	         8.19159e+57
          1693.76120	         7.69670e+57
          1694.56750	         7.46164e+57
          1695.37380	         8.83181e+57
          1696.18010	         8.65150e+57
          1696.98640	         8.96938e+57
          1697.79270	         9.36212e+57
          1698.59900	         7.85760e+57
          1699.40530	         6.42571e+57
          1700.21160	         6.83443e+57
          1701.01790	         7.62092e+57
          1701.82420	         8.38818e+57
          1702.63050	         8.10715e+57
          1703.43680	         8.35623e+57
          1704.24310	         8.72511e+57
          1705.04940	         7.73577e+57
          1705.85570	         7.20058e+57
          1706.66200	         7.91622e+57
          1707.46830	         7.80605e+57
          1708.27460	         7.47235e+57
          1709.08090	         7.20962e+57
          1709.88720	         6.97444e+57
          1710.69350	         6.16544e+57
          1711.49980	         5.91309e+57
          1712.30610	         6.77146e+57
          1713.11240	         7.98333e+57
          1713.91870	         7.34273e+57
          1714.72500	         8.09386e+57
          1715.53130	         8.50068e+57
          1716.33760	         8.26454e+57
          1717.14390	         7.25925e+57
          1717.95020	         7.48560e+57
          1718.75650	         9.09781e+57
          1719.56280	         9.09150e+57
          1720.36910	         6.85733e+57
          1721.17540	         6.24358e+57
          1721.98170	         5.94508e+57
          1722.78800	         5.74757e+57
          1723.59430	         6.40492e+57
          1724.40060	         7.63727e+57
          1725.20690	         8.25317e+57
          1726.01320	         8.33716e+57
          1726.81950	         7.79941e+57
          1727.62580	         6.86644e+57
          1728.43210	         6.12008e+57
          1729.23840	         7.45718e+57
          1730.04470	         8.79975e+57
          1730.85100	         8.64916e+57
          1731.65730	         8.24700e+57
          1732.46360	         7.79790e+57
          1733.26990	         7.25362e+57
          1734.07620	         7.62405e+57
          1734.88250	         7.58975e+57
          1735.68880	         7.37894e+57
          1736.49510	         8.31278e+57
          1737.30140	         7.81838e+57
          1738.10770	         7.03136e+57
          1738.91400	         7.96759e+57
          1739.72030	         7.34812e+57
          1740.52660	         5.32602e+57
          1741.33290	         6.02332e+57
          1742.13920	         6.98886e+57
          1742.94550	         7.47656e+57
          1743.75180	         7.23589e+57
          1744.55810	         6.37658e+57
          1745.36440	         6.33360e+57
          1746.17070	         5.13719e+57
          1746.97700	         5.27331e+57
          1747.78330	         6.61791e+57
          1748.58960	         7.02619e+57
          1749.39590	         6.61778e+57
          1750.20220	         6.67633e+57
          1751.00850	         6.20118e+57
          1751.81480	         5.86766e+57
          1752.62110	         6.73507e+57
          1753.42740	         8.42484e+57
          1754.23370	         6.36587e+57
          1755.04000	         5.92568e+57
          1755.84630	         7.83726e+57
          1756.65260	         7.78563e+57
          1757.45890	         7.64170e+57
          1758.26520	         6.52835e+57
          1759.07150	         8.80767e+57
          1759.87780	         9.00102e+57
          1760.68410	         7.42346e+57
          1761.49040	         7.30491e+57
          1762.29670	         5.88442e+57
          1763.10300	         7.27767e+57
          1763.90930	         8.22656e+57
          1764.71560	         7.68982e+57
          1765.52190	         7.18749e+57
          1766.32820	         8.46832e+57
          1767.13450	         8.60910e+57
          1767.94080	         6.63941e+57
          1768.74710	         6.35295e+57
          1769.55340	         7.68059e+57
          1770.35970	         6.88319e+57
          1771.16600	         7.42545e+57
          1771.97230	         8.47097e+57
          1772.77860	         9.03950e+57
          1773.58490	         7.32926e+57
          1774.39120	         5.47303e+57
          1775.19750	         5.10375e+57
          1776.00380	         5.63182e+57
          1776.81010	         6.39716e+57
          1777.61640	         6.71541e+57
          1778.42270	         6.93852e+57
          1779.22900	         5.81069e+57
          1780.03530	         6.10814e+57
          1780.84160	         6.95237e+57
          1781.64790	         7.93767e+57
          1782.45420	         7.13390e+57
          1783.26050	         7.36147e+57
          1784.06680	         7.26612e+57
          1784.87310	         6.84365e+57
          1785.67940	         7.70775e+57
          1786.48570	         6.34574e+57
          1787.29200	         5.74193e+57
          1788.09830	         5.54555e+57
          1788.90460	         6.07492e+57
          1789.71090	         5.76355e+57
          1790.51720	         4.69286e+57
          1791.32350	         6.34032e+57
          1792.12980	         8.42742e+57
          1792.93610	         8.05300e+57
          1793.74240	         6.83762e+57
          1794.54870	         7.80435e+57
          1795.35500	         8.51154e+57
          1796.16130	         6.81283e+57
          1796.96760	         5.72793e+57
          1797.77390	         6.57829e+57
          1798.58020	         7.45266e+57
          1799.38650	         7.25010e+57
          1800.19280	         7.13563e+57
          1800.99910	         7.31025e+57
          1801.80540	         6.83215e+57
          1802.61170	         7.74831e+57
          1803.41800	         9.09845e+57
          1804.22430	         8.39190e+57
          1805.03060	         7.69509e+57
          1805.83690	         8.34690e+57
          1806.64320	         8.50583e+57
          1807.44950	         7.65668e+57
          1808.25580	         7.07774e+57
          1809.06210	         7.06845e+57
          1809.86840	         6.79842e+57
          1810.67470	         5.98212e+57
          1811.48100	         7.81563e+57
          1812.28730	         8.52693e+57
          1813.09360	         8.43924e+57
          1813.89990	         8.90970e+57
          1814.70620	         8.03940e+57
          1815.51250	         7.57856e+57
          1816.31880	         7.86876e+57
          1817.12510	         7.22569e+57
          1817.93140	         5.51954e+57
          1818.73770	         5.82926e+57
          1819.54400	         8.55549e+57
          1820.35030	         8.97834e+57
          1821.15660	         6.75561e+57
          1821.96290	         6.30871e+57
          1822.76920	         7.21767e+57
          1823.57550	         6.83359e+57
          1824.38180	         7.68503e+57
          1825.18810	         7.94853e+57
          1825.99440	         8.63672e+57
          1826.80070	         8.94954e+57
          1827.60700	         7.09962e+57
          1828.41330	         5.99001e+57
          1829.21960	         5.81466e+57
          1830.02590	         6.80625e+57
          1830.83220	         7.40237e+57
          1831.63850	         6.41204e+57
          1832.44480	         7.20529e+57
          1833.25110	         8.91841e+57
          1834.05740	         9.18950e+57
          1834.86370	         7.65248e+57
          1835.67000	         6.00263e+57
          1836.47630	         8.04959e+57
          1837.28260	         8.93264e+57
          1838.08890	         8.36708e+57
          1838.89520	         8.17180e+57
          1839.70150	         8.27147e+57
          1840.50780	         7.36612e+57
          1841.31410	         6.80614e+57
          1842.12040	         7.12143e+57
          1842.92670	         7.28888e+57
          1843.73300	         7.28270e+57
          1844.53930	         7.11563e+57
          1845.34560	         7.10402e+57
          1846.15190	         7.38734e+57
          1846.95820	         8.00290e+57
          1847.76450	         7.44829e+57
          1848.57080	         5.66964e+57
          1849.37710	         6.24979e+57
          1850.18340	         7.00659e+57
          1850.98970	         8.70716e+57
          1851.79600	         8.23835e+57
          1852.60230	         6.49661e+57
          1853.40860	         6.19474e+57
          1854.21490	         7.40496e+57
          1855.02120	         6.40417e+57
          1855.82750	         5.30345e+57
          1856.63380	         5.89688e+57
          1857.44010	         6.33740e+57
          1858.24640	         7.96028e+57
          1859.05270	         6.81468e+57
          1859.85900	         5.39129e+57
          1860.66530	         5.84441e+57
          1861.47160	         6.77465e+57
          1862.27790	         6.67406e+57
          1863.08420	         6.94908e+57
          1863.89050	         8.43301e+57
          1864.69680	         7.80460e+57
          1865.50310	         7.89723e+57
          1866.30940	         6.50978e+57
          1867.11570	         6.41670e+57
          1867.92200	         6.95550e+57
          1868.72830	         7.60624e+57
          1869.53460	         7.24156e+57
          1870.34090	         7.41429e+57
          1871.14720	         8.50415e+57
          1871.95350	         7.49409e+57
          1872.75980	         7.24942e+57
          1873.56610	         6.41183e+57
          1874.37240	         5.54013e+57
          1875.17870	         6.43333e+57
          1875.98500	         7.87229e+57
          1876.79130	         7.71704e+57
          1877.59760	         7.09907e+57
          1878.40390	         6.55612e+57
          1879.21020	         6.45814e+57
          1880.01650	         7.77714e+57
          1880.82280	         8.95287e+57
          1881.62910	         9.33974e+57
          1882.43540	         9.89587e+57
          1883.24170	         8.68379e+57
          1884.04800	         7.22032e+57
          1884.85430	         6.98710e+57
          1885.66060	         7.36206e+57
          1886.46690	         7.93740e+57
          1887.27320	         8.13760e+57
          1888.07950	         7.02330e+57
          1888.88580	         7.08989e+57
          1889.69210	         9.52018e+57
          1890.49840	         8.86595e+57
          1891.30470	         7.21581e+57
          1892.11100	         8.00922e+57
          1892.91730	         7.56464e+57
          1893.72360	         6.44339e+57
          1894.52990	         6.42493e+57
          1895.33620	         8.59842e+57
          1896.14250	         6.92278e+57
          1896.94880	         5.68174e+57
          1897.75510	         4.26789e+57
          1898.56140	         5.86415e+57
          1899.36770	         7.63522e+57
          1900.17400	         6.10611e+57
          1900.98030	         6.32319e+57
          1901.78660	         7.11688e+57
          1902.59290	         7.36633e+57
          1903.39920	         8.16074e+57
          1904.20550	         1.00852e+58
          1905.01180	         9.58879e+57
          1905.81810	         9.57301e+57
          1906.62440	         1.17576e+58
          1907.43070	         1.48781e+58
          1908.23700	         1.60825e+58
          1909.04330	         1.30759e+58
          1909.84960	         1.01049e+58
          1910.65590	         8.97421e+57
          1911.46220	         9.65347e+57
          1912.26850	         7.88479e+57
          1913.07480	         5.95717e+57
          1913.88110	         5.42921e+57
          1914.68740	         6.61506e+57
          1915.49370	         6.83765e+57
          1916.30000	         5.57367e+57
          1917.10630	         6.06662e+57
          1917.91260	         7.48820e+57
          1918.71890	         6.28884e+57
          1919.52520	         5.31852e+57
          1920.33150	         5.29105e+57
          1921.13780	         6.93656e+57
          1921.94410	         7.55858e+57
          1922.75040	         7.17024e+57
          1923.55670	         7.48231e+57
          1924.36300	         7.02479e+57
          1925.16930	         5.77567e+57
          1925.97560	         4.97380e+57
          1926.78190	         4.47512e+57
          1927.58820	         4.71073e+57
          1928.39450	         6.43821e+57
          1929.20080	         5.90466e+57
          1930.00710	         7.30067e+57
          1930.81340	         8.27564e+57
          1931.61970	         8.13113e+57
          1932.42600	         8.28623e+57
          1933.23230	         8.18203e+57
          1934.03860	         6.57943e+57
          1934.84490	         5.56172e+57
          1935.65120	         7.00550e+57
          1936.45750	         8.97516e+57
          1937.26380	         8.76571e+57
          1938.07010	         8.23067e+57
          1938.87640	         7.34189e+57
          1939.68270	         7.73874e+57
          1940.48900	         8.03392e+57
          1941.29530	         7.86872e+57
          1942.10160	         7.11061e+57
          1942.90790	         5.71906e+57
          1943.71420	         5.23176e+57
          1944.52050	         6.48948e+57
          1945.32680	         6.85123e+57
          1946.13310	         8.02955e+57
          1946.93940	         8.90500e+57
          1947.74570	         7.72659e+57
          1948.55200	         7.37249e+57
          1949.35830	         6.45524e+57
          1950.16460	         6.01083e+57
          1950.97090	         6.45649e+57
          1951.77720	         7.61454e+57
          1952.58350	         8.16081e+57
          1953.38980	         6.03973e+57
          1954.19610	         5.07694e+57
          1955.00240	         5.80180e+57
          1955.80870	         5.35464e+57
          1956.61500	         6.03123e+57
          1957.42130	         5.95322e+57
          1958.22760	         5.64621e+57
          1959.03390	         6.14492e+57
          1959.84020	         7.39259e+57
          1960.64650	         6.93684e+57
          1961.45280	         6.35682e+57
          1962.25910	         6.15800e+57
          1963.06540	         6.18520e+57
          1963.87170	         7.32167e+57
          1964.67800	         8.01714e+57
          1965.48430	         6.95175e+57
          1966.29060	         6.49810e+57
          1967.09690	         7.71731e+57
          1967.90320	         7.38469e+57
          1968.70950	         6.45341e+57
          1969.51580	         5.43539e+57
          1970.32210	         7.41036e+57
          1971.12840	         7.02398e+57
          1971.93470	         4.47114e+57
          1972.74100	         5.72586e+57
          1973.54730	         7.34715e+57
          1974.35360	         8.17820e+57
          1975.15990	         8.08009e+57
          1975.96620	         7.20035e+57
          1976.77250	         7.93579e+57
          1977.57880	         8.18721e+57
          1978.38510	         6.31548e+57
          1979.19140	         6.26624e+57
          1979.99770	         8.04088e+57
          1980.80400	         8.49022e+57
          1981.61030	         6.75743e+57
          1982.41660	         5.44075e+57
          1983.22290	         6.43955e+57
          1984.02920	         5.47943e+57
          1984.83550	         5.31562e+57
          1985.64180	         6.23411e+57
          1986.44810	         5.88089e+57
          1987.25440	         5.45445e+57
          1988.06070	         5.44989e+57
          1988.86700	         6.34443e+57
          1989.67330	         7.11190e+57
          1990.47960	         6.24006e+57
          1991.28590	         6.11477e+57
          1992.09220	         6.25790e+57
          1992.89850	         5.25435e+57
          1993.70480	         5.04664e+57
          1994.51110	         5.01630e+57
          1995.31740	         4.83663e+57
          1996.12370	         4.42533e+57
          1996.93000	         5.80570e+57
          1997.73630	         8.50892e+57
          1998.54260	         7.60787e+57
          1999.34890	         6.77830e+57
          2000.15520	         5.91926e+57
          2000.96150	         6.59468e+57
          2001.76780	         5.14599e+57
          2002.57410	         4.56349e+57
          2003.38040	         6.60588e+57
          2004.18670	         6.98112e+57
          2004.99300	         6.47147e+57
          2005.79930	         6.87302e+57
          2006.60560	         5.71077e+57
          2007.41190	         6.21323e+57
          2008.21820	         6.74892e+57
          2009.02450	         6.40802e+57
          2009.83080	         6.53944e+57
          2010.63710	         6.70255e+57
          2011.44340	         7.33619e+57
          2012.24970	         6.92580e+57
          2013.05600	         6.44922e+57
          2013.86230	         6.19211e+57
          2014.66860	         6.68228e+57
          2015.47490	         5.94510e+57
          2016.28120	         6.21700e+57
          2017.08750	         5.85037e+57
          2017.89380	         5.55674e+57
          2018.70010	         7.34338e+57
          2019.50640	         6.88594e+57
          2020.31270	         6.77335e+57
          2021.11900	         7.10215e+57
          2021.92530	         7.01635e+57
          2022.73160	         7.50010e+57
          2023.53790	         7.26764e+57
          2024.34420	         5.90827e+57
          2025.15050	         5.32956e+57
          2025.95680	         4.51687e+57
          2026.76310	         6.30662e+57
          2027.56940	         6.13546e+57
          2028.37570	         6.74780e+57
          2029.18200	         6.10624e+57
          2029.98830	         5.36801e+57
          2030.79460	         6.29803e+57
          2031.60090	         5.82465e+57
          2032.40720	         4.15179e+57
          2033.21350	         4.92900e+57
          2034.01980	         5.69630e+57
          2034.82610	         4.53704e+57
          2035.63240	         4.62940e+57
          2036.43870	         3.83990e+57
          2037.24500	         5.69071e+57
          2038.05130	         5.77579e+57
          2038.85760	         5.38378e+57
          2039.66390	         5.73263e+57
          2040.47020	         5.70990e+57
          2041.27650	         6.23318e+57
          2042.08280	         5.56959e+57
          2042.88910	         6.76593e+57
          2043.69540	         6.94573e+57
          2044.50170	         6.41181e+57
          2045.30800	         4.52003e+57
          2046.11430	         3.01456e+57
          2046.92060	         5.09274e+57
          2047.72690	         5.61167e+57
          2048.53320	         6.00046e+57
          2049.33950	         4.75947e+57
          2050.14580	         4.42380e+57
          2050.95210	         5.09776e+57
          2051.75840	         6.16301e+57
          2052.56470	         5.46318e+57
          2053.37100	         4.22963e+57
          2054.17730	         4.09587e+57
          2054.98360	         5.44571e+57
          2055.78990	         5.30083e+57
          2056.59620	         4.58797e+57
          2057.40250	         5.77921e+57
          2058.20880	         7.28463e+57
          2059.01510	         6.76619e+57
          2059.82140	         6.86498e+57
          2060.62770	         1.03042e+58
          2061.43400	         1.82200e+58
          2062.24030	         1.31877e+58
          2063.04660	         4.84490e+57
          2063.85290	         3.85031e+57
          2064.65920	        -1.51396e+57
          2065.46550	        -6.80190e+57
          2066.27180	        -8.31587e+57
          2067.07810	         3.52492e+57
          2067.88440	         5.89546e+57
          2068.69070	         6.99457e+57
          2069.49700	         5.95486e+57
          2070.30330	         4.30583e+57
          2071.10960	         6.35306e+57
          2071.91590	         6.52659e+57
          2072.72220	         3.54604e+57
          2073.52850	         5.14914e+57
          2074.33480	         5.12589e+57
          2075.14110	         5.43452e+57
          2075.94740	         4.32109e+57
          2076.75370	         5.85384e+57
          2077.56000	         4.78514e+57
          2078.36630	         5.16784e+57
          2079.17260	         4.73851e+57
          2079.97890	         5.02386e+57
          2080.78520	         6.98697e+57
          2081.59150	         4.47005e+57
          2082.39780	         4.31709e+57
          2083.20410	         3.41648e+57
          2084.01040	         2.06177e+57
          2084.81670	         3.67985e+57
          2085.62300	         5.48989e+57
          2086.42930	         5.60100e+57
          2087.23560	         4.51692e+57
          2088.04190	         5.42816e+57
          2088.84820	         5.03949e+57
          2089.65450	         4.59206e+57
          2090.46080	         1.95793e+57
          2091.26710	         2.67528e+57
          2092.07340	         4.01224e+57
          2092.87970	         3.07649e+57
          2093.68600	        -2.37428e+56
          2094.49230	         7.51621e+56
          2095.29860	         3.81823e+57
          2096.10490	         3.13521e+57
          2096.91120	         2.39377e+57
          2097.71750	         8.68136e+56
          2098.52380	         1.13981e+57
          2099.33010	         3.18126e+57
          2100.13640	         3.18939e+57
          2100.94270	         2.38962e+57
          2101.74900	         3.81935e+57
          2102.55530	         5.98142e+55
          2103.36160	         5.39992e+56
          2104.16790	         5.17307e+57
          2104.97420	         3.49660e+57
          2105.78050	         6.06532e+56
          2106.58680	         1.54886e+57
          2107.39310	        -1.91570e+57
          2108.19940	         1.78976e+57
          2109.00570	         9.91358e+56
          2109.81200	        -1.70751e+56
          2110.61830	         1.86693e+57
          2111.42460	         2.68418e+57
          2112.23090	         1.52949e+57
          2113.03720	         4.86351e+56
          2113.84350	        -7.75557e+56
          2114.64980	         2.71682e+57
          2115.45610	        -2.75776e+56
          2116.26240	        -3.72877e+57
          2117.06870	        -3.09084e+57
          2117.87500	        -1.53509e+57
          2118.68130	         1.44740e+56
          2119.48760	         3.84831e+56
          2120.29390	        -6.33100e+56
          2121.10020	        -1.82957e+57
          2121.90650	        -1.13382e+57
          2122.71280	        -3.77370e+57
          2123.51910	        -2.75600e+57
          2124.32540	         9.22772e+56
          2125.13170	         2.97573e+57
          2125.93800	         5.58111e+57
          2126.74430	        -3.40671e+57
          2127.55060	        -6.01702e+57
          2128.35690	        -3.12838e+57
          2129.16320	        -3.67678e+57
          2129.96950	        -5.43621e+57
          2130.77580	        -3.20255e+57
          2131.58210	        -4.83224e+57
          2132.38840	        -3.48041e+57
          2133.19470	         1.09632e+57
          2134.00100	        -2.76638e+57
          2134.80730	        -2.97568e+57
          2135.61360	         3.84021e+57
          2136.41990	         5.48816e+57
          2137.22620	         1.17754e+58
          2138.03250	         5.92317e+57
          2138.83880	        -6.24536e+57
          2139.64510	        -1.14898e+58
          2140.45140	        -7.72039e+57
          2141.25770	        -6.98664e+57
          2142.06400	        -6.66062e+57
          2142.87030	        -3.90359e+56
          2143.67660	         1.31146e+57
          2144.48290	         2.36167e+57
          2145.28920	         1.49138e+57
          2146.09550	        -1.01651e+58
          2146.90180	        -2.94596e+57
          2147.70810	        -7.98509e+57
          2148.51440	        -6.90465e+57
          2149.32070	        -1.16876e+58
          2150.12700	        -8.47087e+57
          2150.93330	        -7.22901e+57
          2151.73960	        -3.04753e+57
          2152.54590	        -2.08315e+56
          2153.35220	         5.14498e+57
          2154.15850	        -9.05327e+57
          2154.96480	         4.02474e+57
          2155.77110	        -7.74663e+57
          2156.57740	        -5.90344e+57
          2157.38370	         1.60491e+57
          2158.19000	        -1.18459e+57
          2158.99630	        -2.80176e+57
          2159.80260	        -1.01695e+58
          2160.60890	        -3.98055e+57
          2161.41520	        -6.35608e+57
          2162.22150	        -2.57527e+57
          2163.02780	        -2.41436e+57
          2163.83410	        -7.30188e+57
          2164.64040	        -7.86233e+57
          2165.44670	        -7.49873e+57
          2166.25300	        -5.07201e+56
          2167.05930	        -6.88816e+56
          2167.86560	        -7.56217e+57
          2168.67190	        -1.82435e+58
          2169.47820	        -8.45704e+57
          2170.28450	        -6.38342e+57
          2171.09080	        -4.72595e+57
          2171.89710	        -4.98364e+57
          2172.70340	        -1.86087e+57
          2173.50970	        -4.56656e+57
          2174.31600	        -5.03324e+57
          2175.12230	        -2.89072e+57
          2175.92860	        -6.24544e+57
          2176.73490	        -3.75088e+57
          2177.54120	        -3.07187e+57
          2178.34750	        -4.24511e+57
          2179.15380	                 nan
          2179.96010	                 nan
          2180.76640	                 nan
          2181.57270	                 nan
          2182.37900	                 nan
          2183.18530	                 nan
          2183.99160	                 nan
          2184.79790	                 nan
          2185.60420	                 nan
          2186.41050	                 nan
          2187.21680	                 nan
          2188.02310	                 nan
          2188.82940	                 nan
          2189.63570	                 nan
          2190.44200	                 nan
          2191.24830	                 nan
          2192.05460	                 nan
          2192.86090	                 nan
          2193.66720	                 nan
          2194.47350	                 nan
          2195.27980	                 nan
          2196.08610	                 nan
          2196.89240	                 nan
          2197.69870	                 nan
          2198.50500	                 nan
          2199.31130	                 nan
          2200.11760	                 nan
          2200.92390	                 nan
          2201.73020	                 nan
          2202.53650	                 nan
          2203.34280	                 nan
          2204.14910	                 nan
          2204.95540	                 nan
          2205.76170	                 nan
          2206.56800	                 nan
          2207.37430	                 nan
          2208.18060	                 nan
          2208.98690	                 nan
          2209.79320	                 nan
          2210.59950	                 nan
          2211.40580	                 nan
          2212.21210	                 nan
          2213.01840	                 nan
          2213.82470	                 nan
          2214.63100	                 nan
          2215.43730	         0.00000e+00
