#sample_198_stacked_spectrum_rest_UV-bands_median_H-alpha_noDC.txt
#median Lum: 1.68415e+42
#Rest-frame wavelength (A) | Luminosity (erg/s/A)
#
          1110.00000	         0.00000e+00
          1110.80630	         3.69766e+59
          1111.61260	         2.55542e+59
          1112.41890	        -1.64665e+59
          1113.22520	        -1.82016e+58
          1114.03150	         7.99591e+58
          1114.83780	         1.76153e+59
          1115.64410	         4.03517e+58
          1116.45040	         5.34148e+58
          1117.25670	         4.28680e+58
          1118.06300	         1.79220e+59
          1118.86930	        -4.60133e+58
          1119.67560	         1.34932e+59
          1120.48190	         7.42075e+56
          1121.28820	        -1.39489e+59
          1122.09450	        -8.37200e+58
          1122.90080	        -5.36056e+58
          1123.70710	         3.16554e+58
          1124.51340	         2.70319e+58
          1125.31970	         1.62099e+58
          1126.12600	         5.03295e+58
          1126.93230	        -1.84740e+58
          1127.73860	        -6.33313e+58
          1128.54490	        -1.67331e+58
          1129.35120	        -3.60500e+57
          1130.15750	        -4.31316e+58
          1130.96380	        -4.25347e+58
          1131.77010	         3.48531e+58
          1132.57640	         7.34070e+58
          1133.38270	         2.33821e+58
          1134.18900	         2.18806e+58
          1134.99530	        -1.64556e+57
          1135.80160	         1.33429e+58
          1136.60790	        -2.90252e+57
          1137.41420	        -1.12832e+58
          1138.22050	         2.94891e+58
          1139.02680	         4.18232e+58
          1139.83310	         3.48378e+57
          1140.63940	         1.74876e+58
          1141.44570	         3.49796e+57
          1142.25200	         7.94507e+57
          1143.05830	         1.41532e+58
          1143.86460	         3.35974e+58
          1144.67090	         2.08325e+58
          1145.47720	         1.31060e+58
          1146.28350	         1.39390e+58
          1147.08980	         3.18082e+58
          1147.89610	         2.48335e+58
          1148.70240	         1.95843e+58
          1149.50870	         3.34932e+58
          1150.31500	         1.97190e+58
          1151.12130	         7.79117e+57
          1151.92760	        -1.13097e+57
          1152.73390	         1.04553e+58
          1153.54020	         1.46566e+58
          1154.34650	         2.32102e+58
          1155.15280	         2.30395e+58
          1155.95910	        -6.15935e+56
          1156.76540	         4.91673e+57
          1157.57170	        -3.28361e+57
          1158.37800	        -6.75584e+57
          1159.18430	        -8.77451e+57
          1159.99060	         3.34303e+57
          1160.79690	         6.63813e+57
          1161.60320	         1.74297e+58
          1162.40950	         1.16474e+58
          1163.21580	         2.03597e+58
          1164.02210	         1.27358e+58
          1164.82840	         1.26779e+58
          1165.63470	         2.02391e+58
          1166.44100	         1.91079e+58
          1167.24730	         1.63698e+58
          1168.05360	         1.31433e+58
          1168.85990	         1.00813e+58
          1169.66620	         8.39473e+57
          1170.47250	         1.54142e+58
          1171.27880	         1.50970e+58
          1172.08510	         8.13373e+57
          1172.89140	         7.33886e+57
          1173.69770	         3.46690e+57
          1174.50400	         1.24380e+58
          1175.31030	         1.87807e+58
          1176.11660	         1.74231e+58
          1176.92290	         1.43814e+58
          1177.72920	         1.30389e+58
          1178.53550	         1.03583e+58
          1179.34180	         1.97836e+57
          1180.14810	         3.04432e+57
          1180.95440	         1.07982e+58
          1181.76070	         5.46957e+57
          1182.56700	         3.12751e+57
          1183.37330	         5.37736e+57
          1184.17960	         1.00288e+58
          1184.98590	         9.04072e+57
          1185.79220	         3.84596e+57
          1186.59850	         9.46237e+57
          1187.40480	         1.32079e+58
          1188.21110	         1.77075e+58
          1189.01740	         9.36177e+57
          1189.82370	         6.38904e+57
          1190.63000	         1.13935e+58
          1191.43630	         1.47792e+58
          1192.24260	         9.52349e+57
          1193.04890	         1.23287e+58
          1193.85520	         1.21495e+58
          1194.66150	         6.24848e+57
          1195.46780	         8.64461e+57
          1196.27410	         1.13129e+58
          1197.08040	         7.47760e+57
          1197.88670	         1.29343e+58
          1198.69300	         1.52960e+58
          1199.49930	         1.47288e+58
          1200.30560	         7.84753e+57
          1201.11190	         8.54228e+57
          1201.91820	         9.02973e+57
          1202.72450	         5.01264e+57
          1203.53080	         1.39377e+58
          1204.33710	         1.01756e+58
          1205.14340	         8.23186e+57
          1205.94970	         5.89045e+57
          1206.75600	         5.21994e+57
          1207.56230	         5.08434e+57
          1208.36860	         6.68374e+57
          1209.17490	         2.94867e+57
          1209.98120	         4.29055e+57
          1210.78750	         9.75207e+57
          1211.59380	         1.43153e+58
          1212.40010	         1.69147e+58
          1213.20640	         1.92220e+58
          1214.01270	         1.93441e+58
          1214.81900	         2.48567e+58
          1215.62530	         4.52643e+58
          1216.43160	         8.99738e+58
          1217.23790	         1.48275e+59
          1218.04420	         1.09750e+59
          1218.85050	         8.46106e+58
          1219.65680	         5.80156e+58
          1220.46310	         3.55244e+58
          1221.26940	         1.96444e+58
          1222.07570	         7.80523e+57
          1222.88200	         9.02947e+57
          1223.68830	         9.77072e+57
          1224.49460	         7.00002e+57
          1225.30090	         5.77840e+57
          1226.10720	         6.16636e+57
          1226.91350	         4.74665e+57
          1227.71980	         6.33497e+57
          1228.52610	         1.12747e+58
          1229.33240	         9.31427e+57
          1230.13870	         9.60332e+57
          1230.94500	         8.51573e+57
          1231.75130	         6.14931e+57
          1232.55760	         7.02842e+57
          1233.36390	         1.01177e+58
          1234.17020	         8.29916e+57
          1234.97650	         7.09463e+57
          1235.78280	         7.12103e+57
          1236.58910	         5.98244e+57
          1237.39540	         1.03446e+58
          1238.20170	         1.19811e+58
          1239.00800	         1.16705e+58
          1239.81430	         1.48416e+58
          1240.62060	         1.27488e+58
          1241.42690	         1.26405e+58
          1242.23320	         1.14113e+58
          1243.03950	         8.51682e+57
          1243.84580	         7.01030e+57
          1244.65210	         6.90378e+57
          1245.45840	         8.62869e+57
          1246.26470	         1.00178e+58
          1247.07100	         8.36034e+57
          1247.87730	         7.07485e+57
          1248.68360	         2.78281e+57
          1249.48990	         6.91486e+57
          1250.29620	         9.92125e+57
          1251.10250	         5.97265e+57
          1251.90880	         4.24177e+57
          1252.71510	         6.67050e+57
          1253.52140	         8.64764e+57
          1254.32770	         9.42930e+57
          1255.13400	         1.08292e+58
          1255.94030	         1.21253e+58
          1256.74660	         9.93061e+57
          1257.55290	         9.89384e+57
          1258.35920	         9.56865e+57
          1259.16550	         6.44510e+57
          1259.97180	         4.68845e+57
          1260.77810	         6.96144e+57
          1261.58440	         8.22371e+57
          1262.39070	         7.08610e+57
          1263.19700	         8.65859e+57
          1264.00330	         1.04975e+58
          1264.80960	         1.17541e+58
          1265.61590	         1.04845e+58
          1266.42220	         9.97320e+57
          1267.22850	         1.01684e+58
          1268.03480	         1.25966e+58
          1268.84110	         1.38883e+58
          1269.64740	         1.41518e+58
          1270.45370	         1.32454e+58
          1271.26000	         1.13055e+58
          1272.06630	         1.06760e+58
          1272.87260	         1.12223e+58
          1273.67890	         1.20195e+58
          1274.48520	         1.20202e+58
          1275.29150	         1.31554e+58
          1276.09780	         1.10063e+58
          1276.90410	         1.36252e+58
          1277.71040	         1.38691e+58
          1278.51670	         1.23674e+58
          1279.32300	         1.46629e+58
          1280.12930	         1.32707e+58
          1280.93560	         1.06581e+58
          1281.74190	         1.22508e+58
          1282.54820	         1.21015e+58
          1283.35450	         1.26948e+58
          1284.16080	         1.28485e+58
          1284.96710	         1.37419e+58
          1285.77340	         1.17915e+58
          1286.57970	         9.84171e+57
          1287.38600	         1.39716e+58
          1288.19230	         1.62980e+58
          1288.99860	         1.52444e+58
          1289.80490	         1.32750e+58
          1290.61120	         1.40610e+58
          1291.41750	         1.37644e+58
          1292.22380	         1.13969e+58
          1293.03010	         9.83640e+57
          1293.83640	         1.11326e+58
          1294.64270	         1.07964e+58
          1295.44900	         7.92462e+57
          1296.25530	         6.12488e+57
          1297.06160	         7.56629e+57
          1297.86790	         8.38016e+57
          1298.67420	         7.36032e+57
          1299.48050	         8.43946e+57
          1300.28680	         1.12150e+58
          1301.09310	         9.44067e+57
          1301.89940	         4.48283e+57
          1302.70570	         5.85570e+57
          1303.51200	         8.01639e+57
          1304.31830	         9.62938e+57
          1305.12460	         1.09739e+58
          1305.93090	         1.08774e+58
          1306.73720	         1.24511e+58
          1307.54350	         1.30662e+58
          1308.34980	         1.27863e+58
          1309.15610	         1.50759e+58
          1309.96240	         1.71087e+58
          1310.76870	         1.48817e+58
          1311.57500	         1.12057e+58
          1312.38130	         9.14933e+57
          1313.18760	         1.40138e+58
          1313.99390	         1.78001e+58
          1314.80020	         1.68421e+58
          1315.60650	         1.35402e+58
          1316.41280	         1.24098e+58
          1317.21910	         1.13496e+58
          1318.02540	         1.11196e+58
          1318.83170	         1.18399e+58
          1319.63800	         1.22389e+58
          1320.44430	         1.18094e+58
          1321.25060	         1.21311e+58
          1322.05690	         1.26657e+58
          1322.86320	         1.09589e+58
          1323.66950	         9.67959e+57
          1324.47580	         8.70147e+57
          1325.28210	         9.17353e+57
          1326.08840	         1.10689e+58
          1326.89470	         1.15334e+58
          1327.70100	         1.03145e+58
          1328.50730	         8.57039e+57
          1329.31360	         7.81177e+57
          1330.11990	         7.68526e+57
          1330.92620	         9.08605e+57
          1331.73250	         1.06034e+58
          1332.53880	         9.75009e+57
          1333.34510	         9.61078e+57
          1334.15140	         9.92302e+57
          1334.95770	         1.03638e+58
          1335.76400	         1.27540e+58
          1336.57030	         1.29990e+58
          1337.37660	         1.08151e+58
          1338.18290	         1.10589e+58
          1338.98920	         1.15885e+58
          1339.79550	         1.17795e+58
          1340.60180	         1.18808e+58
          1341.40810	         1.31321e+58
          1342.21440	         1.24778e+58
          1343.02070	         1.14959e+58
          1343.82700	         1.26088e+58
          1344.63330	         1.21943e+58
          1345.43960	         1.36838e+58
          1346.24590	         1.13455e+58
          1347.05220	         1.05807e+58
          1347.85850	         1.07817e+58
          1348.66480	         1.15227e+58
          1349.47110	         1.21208e+58
          1350.27740	         1.25431e+58
          1351.08370	         1.21410e+58
          1351.89000	         1.04805e+58
          1352.69630	         1.06386e+58
          1353.50260	         1.24107e+58
          1354.30890	         1.29353e+58
          1355.11520	         1.22451e+58
          1355.92150	         1.01660e+58
          1356.72780	         1.05246e+58
          1357.53410	         1.04609e+58
          1358.34040	         1.14514e+58
          1359.14670	         1.05414e+58
          1359.95300	         1.09542e+58
          1360.75930	         1.16754e+58
          1361.56560	         1.17032e+58
          1362.37190	         1.25857e+58
          1363.17820	         1.16696e+58
          1363.98450	         1.19985e+58
          1364.79080	         1.33702e+58
          1365.59710	         1.34536e+58
          1366.40340	         1.17675e+58
          1367.20970	         9.28725e+57
          1368.01600	         9.07801e+57
          1368.82230	         7.65272e+57
          1369.62860	         9.67522e+57
          1370.43490	         9.69148e+57
          1371.24120	         1.02250e+58
          1372.04750	         9.26757e+57
          1372.85380	         1.09306e+58
          1373.66010	         1.29545e+58
          1374.46640	         1.21606e+58
          1375.27270	         1.13490e+58
          1376.07900	         9.73780e+57
          1376.88530	         9.05181e+57
          1377.69160	         9.20015e+57
          1378.49790	         6.88913e+57
          1379.30420	         7.05563e+57
          1380.11050	         9.61226e+57
          1380.91680	         9.46959e+57
          1381.72310	         7.33919e+57
          1382.52940	         9.09157e+57
          1383.33570	         9.74820e+57
          1384.14200	         9.65812e+57
          1384.94830	         9.45469e+57
          1385.75460	         9.24192e+57
          1386.56090	         1.03239e+58
          1387.36720	         1.14454e+58
          1388.17350	         1.20799e+58
          1388.97980	         1.00227e+58
          1389.78610	         8.63704e+57
          1390.59240	         9.18255e+57
          1391.39870	         8.46472e+57
          1392.20500	         8.25881e+57
          1393.01130	         7.38523e+57
          1393.81760	         7.94267e+57
          1394.62390	         7.94728e+57
          1395.43020	         6.60326e+57
          1396.23650	         6.49686e+57
          1397.04280	         6.95375e+57
          1397.84910	         7.67735e+57
          1398.65540	         7.97006e+57
          1399.46170	         8.38170e+57
          1400.26800	         7.43593e+57
          1401.07430	         7.35023e+57
          1401.88060	         7.73584e+57
          1402.68690	         8.34787e+57
          1403.49320	         8.59011e+57
          1404.29950	         8.96076e+57
          1405.10580	         9.44784e+57
          1405.91210	         1.06541e+58
          1406.71840	         1.10674e+58
          1407.52470	         1.07601e+58
          1408.33100	         1.02962e+58
          1409.13730	         1.15370e+58
          1409.94360	         1.16378e+58
          1410.74990	         1.08233e+58
          1411.55620	         9.64141e+57
          1412.36250	         8.60493e+57
          1413.16880	         9.03527e+57
          1413.97510	         8.75943e+57
          1414.78140	         8.48893e+57
          1415.58770	         1.04676e+58
          1416.39400	         1.08499e+58
          1417.20030	         9.93752e+57
          1418.00660	         9.36439e+57
          1418.81290	         1.05710e+58
          1419.61920	         1.06813e+58
          1420.42550	         1.21080e+58
          1421.23180	         1.32650e+58
          1422.03810	         1.25327e+58
          1422.84440	         1.15739e+58
          1423.65070	         1.32789e+58
          1424.45700	         1.27182e+58
          1425.26330	         9.10574e+57
          1426.06960	         8.36589e+57
          1426.87590	         1.03471e+58
          1427.68220	         1.05491e+58
          1428.48850	         1.07542e+58
          1429.29480	         9.79228e+57
          1430.10110	         9.43393e+57
          1430.90740	         8.06134e+57
          1431.71370	         8.44347e+57
          1432.52000	         8.62871e+57
          1433.32630	         7.89788e+57
          1434.13260	         8.01865e+57
          1434.93890	         8.34948e+57
          1435.74520	         8.98262e+57
          1436.55150	         9.99888e+57
          1437.35780	         9.01486e+57
          1438.16410	         8.78364e+57
          1438.97040	         8.76137e+57
          1439.77670	         8.40096e+57
          1440.58300	         8.64571e+57
          1441.38930	         9.44589e+57
          1442.19560	         9.63795e+57
          1443.00190	         8.73943e+57
          1443.80820	         1.04414e+58
          1444.61450	         1.01434e+58
          1445.42080	         7.54875e+57
          1446.22710	         8.95674e+57
          1447.03340	         1.00506e+58
          1447.83970	         1.03036e+58
          1448.64600	         1.04608e+58
          1449.45230	         1.05809e+58
          1450.25860	         1.09881e+58
          1451.06490	         9.19916e+57
          1451.87120	         7.53665e+57
          1452.67750	         7.21426e+57
          1453.48380	         8.04514e+57
          1454.29010	         7.95988e+57
          1455.09640	         7.95469e+57
          1455.90270	         8.84579e+57
          1456.70900	         8.66946e+57
          1457.51530	         9.38886e+57
          1458.32160	         1.24586e+58
          1459.12790	         1.26320e+58
          1459.93420	         1.05773e+58
          1460.74050	         8.62236e+57
          1461.54680	         8.15505e+57
          1462.35310	         8.01983e+57
          1463.15940	         8.71932e+57
          1463.96570	         9.58289e+57
          1464.77200	         1.11210e+58
          1465.57830	         1.11546e+58
          1466.38460	         8.90771e+57
          1467.19090	         8.16255e+57
          1467.99720	         8.76878e+57
          1468.80350	         9.62187e+57
          1469.60980	         1.00636e+58
          1470.41610	         1.14413e+58
          1471.22240	         1.02876e+58
          1472.02870	         9.75954e+57
          1472.83500	         9.72270e+57
          1473.64130	         9.56167e+57
          1474.44760	         8.99417e+57
          1475.25390	         8.97362e+57
          1476.06020	         7.98638e+57
          1476.86650	         7.72033e+57
          1477.67280	         7.33929e+57
          1478.47910	         5.65677e+57
          1479.28540	         5.34017e+57
          1480.09170	         8.12111e+57
          1480.89800	         8.53497e+57
          1481.70430	         8.10270e+57
          1482.51060	         7.84521e+57
          1483.31690	         8.83137e+57
          1484.12320	         8.73385e+57
          1484.92950	         8.41894e+57
          1485.73580	         9.45446e+57
          1486.54210	         9.40076e+57
          1487.34840	         9.36492e+57
          1488.15470	         9.14097e+57
          1488.96100	         9.04914e+57
          1489.76730	         9.74103e+57
          1490.57360	         8.27137e+57
          1491.37990	         8.33074e+57
          1492.18620	         8.59212e+57
          1492.99250	         8.55932e+57
          1493.79880	         7.84219e+57
          1494.60510	         7.39367e+57
          1495.41140	         7.27332e+57
          1496.21770	         8.26474e+57
          1497.02400	         9.54857e+57
          1497.83030	         8.61095e+57
          1498.63660	         7.69136e+57
          1499.44290	         7.19053e+57
          1500.24920	         6.23463e+57
          1501.05550	         7.45906e+57
          1501.86180	         8.37521e+57
          1502.66810	         8.99359e+57
          1503.47440	         9.25278e+57
          1504.28070	         8.90975e+57
          1505.08700	         8.69208e+57
          1505.89330	         9.23546e+57
          1506.69960	         8.24464e+57
          1507.50590	         7.96974e+57
          1508.31220	         9.22578e+57
          1509.11850	         8.93263e+57
          1509.92480	         9.64463e+57
          1510.73110	         9.02554e+57
          1511.53740	         8.16977e+57
          1512.34370	         7.56851e+57
          1513.15000	         8.31316e+57
          1513.95630	         9.17581e+57
          1514.76260	         8.09542e+57
          1515.56890	         7.84222e+57
          1516.37520	         7.38829e+57
          1517.18150	         7.71394e+57
          1517.98780	         7.19900e+57
          1518.79410	         6.30828e+57
          1519.60040	         8.11469e+57
          1520.40670	         9.89812e+57
          1521.21300	         9.02989e+57
          1522.01930	         8.11062e+57
          1522.82560	         9.10341e+57
          1523.63190	         9.93760e+57
          1524.43820	         7.76239e+57
          1525.24450	         6.39786e+57
          1526.05080	         6.18740e+57
          1526.85710	         6.21664e+57
          1527.66340	         6.74283e+57
          1528.46970	         7.76171e+57
          1529.27600	         7.79363e+57
          1530.08230	         7.29977e+57
          1530.88860	         7.05239e+57
          1531.69490	         8.66453e+57
          1532.50120	         8.73454e+57
          1533.30750	         8.50138e+57
          1534.11380	         9.94034e+57
          1534.92010	         9.74013e+57
          1535.72640	         9.63590e+57
          1536.53270	         8.69412e+57
          1537.33900	         8.60050e+57
          1538.14530	         9.23543e+57
          1538.95160	         9.23820e+57
          1539.75790	         9.18022e+57
          1540.56420	         8.91340e+57
          1541.37050	         8.43384e+57
          1542.17680	         7.82441e+57
          1542.98310	         7.47502e+57
          1543.78940	         6.68100e+57
          1544.59570	         6.42847e+57
          1545.40200	         7.69088e+57
          1546.20830	         9.38561e+57
          1547.01460	         1.02532e+58
          1547.82090	         1.06355e+58
          1548.62720	         1.15095e+58
          1549.43350	         1.17398e+58
          1550.23980	         1.12298e+58
          1551.04610	         1.26933e+58
          1551.85240	         1.24025e+58
          1552.65870	         1.21339e+58
          1553.46500	         1.12784e+58
          1554.27130	         9.70016e+57
          1555.07760	         9.66571e+57
          1555.88390	         8.61224e+57
          1556.69020	         8.98669e+57
          1557.49650	         9.88349e+57
          1558.30280	         9.07604e+57
          1559.10910	         8.63238e+57
          1559.91540	         9.17990e+57
          1560.72170	         9.70409e+57
          1561.52800	         8.95928e+57
          1562.33430	         7.81174e+57
          1563.14060	         7.72638e+57
          1563.94690	         7.20109e+57
          1564.75320	         7.79370e+57
          1565.55950	         8.04468e+57
          1566.36580	         8.33221e+57
          1567.17210	         9.01739e+57
          1567.97840	         9.27500e+57
          1568.78470	         8.39793e+57
          1569.59100	         8.96099e+57
          1570.39730	         9.08267e+57
          1571.20360	         7.30653e+57
          1572.00990	         7.49808e+57
          1572.81620	         8.88221e+57
          1573.62250	         1.00406e+58
          1574.42880	         9.17844e+57
          1575.23510	         8.33710e+57
          1576.04140	         9.07175e+57
          1576.84770	         9.05031e+57
          1577.65400	         8.73542e+57
          1578.46030	         9.97529e+57
          1579.26660	         1.08706e+58
          1580.07290	         9.20514e+57
          1580.87920	         7.13220e+57
          1581.68550	         7.68930e+57
          1582.49180	         8.99470e+57
          1583.29810	         8.25935e+57
          1584.10440	         8.68373e+57
          1584.91070	         9.29438e+57
          1585.71700	         7.93729e+57
          1586.52330	         8.28987e+57
          1587.32960	         8.35938e+57
          1588.13590	         8.04382e+57
          1588.94220	         8.35566e+57
          1589.74850	         8.96225e+57
          1590.55480	         9.52006e+57
          1591.36110	         7.90730e+57
          1592.16740	         7.41786e+57
          1592.97370	         7.86674e+57
          1593.78000	         8.31653e+57
          1594.58630	         9.18721e+57
          1595.39260	         8.22911e+57
          1596.19890	         7.60782e+57
          1597.00520	         8.24615e+57
          1597.81150	         8.35724e+57
          1598.61780	         7.04693e+57
          1599.42410	         7.26544e+57
          1600.23040	         7.45758e+57
          1601.03670	         7.81427e+57
          1601.84300	         6.66724e+57
          1602.64930	         7.51554e+57
          1603.45560	         8.71157e+57
          1604.26190	         8.06241e+57
          1605.06820	         7.40686e+57
          1605.87450	         7.44074e+57
          1606.68080	         7.20946e+57
          1607.48710	         5.99649e+57
          1608.29340	         5.99640e+57
          1609.09970	         6.78281e+57
          1609.90600	         6.97871e+57
          1610.71230	         7.48212e+57
          1611.51860	         8.32216e+57
          1612.32490	         7.72809e+57
          1613.13120	         8.15318e+57
          1613.93750	         7.95051e+57
          1614.74380	         7.98494e+57
          1615.55010	         7.96690e+57
          1616.35640	         8.63789e+57
          1617.16270	         9.81984e+57
          1617.96900	         9.64427e+57
          1618.77530	         9.30635e+57
          1619.58160	         9.34683e+57
          1620.38790	         8.97458e+57
          1621.19420	         9.61727e+57
          1622.00050	         8.57855e+57
          1622.80680	         9.35667e+57
          1623.61310	         8.62796e+57
          1624.41940	         6.95447e+57
          1625.22570	         8.04055e+57
          1626.03200	         8.89838e+57
          1626.83830	         8.64279e+57
          1627.64460	         6.67473e+57
          1628.45090	         5.78809e+57
          1629.25720	         8.19222e+57
          1630.06350	         8.84831e+57
          1630.86980	         5.93027e+57
          1631.67610	         7.86003e+57
          1632.48240	         8.40335e+57
          1633.28870	         7.59961e+57
          1634.09500	         9.47105e+57
          1634.90130	         1.08559e+58
          1635.70760	         9.24956e+57
          1636.51390	         8.40506e+57
          1637.32020	         7.70672e+57
          1638.12650	         9.42654e+57
          1638.93280	         9.02705e+57
          1639.73910	         8.91608e+57
          1640.54540	         9.43119e+57
          1641.35170	         8.38987e+57
          1642.15800	         8.85070e+57
          1642.96430	         8.70950e+57
          1643.77060	         8.53473e+57
          1644.57690	         8.24978e+57
          1645.38320	         8.51885e+57
          1646.18950	         7.29132e+57
          1646.99580	         8.02791e+57
          1647.80210	         8.43388e+57
          1648.60840	         7.84750e+57
          1649.41470	         7.83010e+57
          1650.22100	         6.21050e+57
          1651.02730	         5.95072e+57
          1651.83360	         6.17758e+57
          1652.63990	         7.84288e+57
          1653.44620	         9.37791e+57
          1654.25250	         7.92359e+57
          1655.05880	         7.45650e+57
          1655.86510	         7.08686e+57
          1656.67140	         7.65585e+57
          1657.47770	         8.21490e+57
          1658.28400	         8.07275e+57
          1659.09030	         8.61026e+57
          1659.89660	         9.05628e+57
          1660.70290	         9.36337e+57
          1661.50920	         9.46997e+57
          1662.31550	         8.89224e+57
          1663.12180	         7.96375e+57
          1663.92810	         9.64734e+57
          1664.73440	         1.17783e+58
          1665.54070	         1.20346e+58
          1666.34700	         1.21304e+58
          1667.15330	         1.15756e+58
          1667.95960	         9.00054e+57
          1668.76590	         7.03685e+57
          1669.57220	         6.29478e+57
          1670.37850	         7.30513e+57
          1671.18480	         8.37177e+57
          1671.99110	         7.82275e+57
          1672.79740	         6.53760e+57
          1673.60370	         6.09621e+57
          1674.41000	         6.43120e+57
          1675.21630	         6.84887e+57
          1676.02260	         7.27293e+57
          1676.82890	         6.91165e+57
          1677.63520	         6.70489e+57
          1678.44150	         7.53712e+57
          1679.24780	         8.56670e+57
          1680.05410	         7.61663e+57
          1680.86040	         6.51387e+57
          1681.66670	         7.49768e+57
          1682.47300	         7.93598e+57
          1683.27930	         8.10173e+57
          1684.08560	         8.49337e+57
          1684.89190	         8.51181e+57
          1685.69820	         6.59712e+57
          1686.50450	         5.90991e+57
          1687.31080	         6.47913e+57
          1688.11710	         6.64576e+57
          1688.92340	         7.02578e+57
          1689.72970	         7.26845e+57
          1690.53600	         7.52512e+57
          1691.34230	         6.64210e+57
          1692.14860	         6.93377e+57
          1692.95490	         7.53804e+57
          1693.76120	         6.47444e+57
          1694.56750	         5.91079e+57
          1695.37380	         8.15660e+57
          1696.18010	         8.95878e+57
          1696.98640	         8.95822e+57
          1697.79270	         8.67794e+57
          1698.59900	         8.70498e+57
          1699.40530	         7.71542e+57
          1700.21160	         6.68046e+57
          1701.01790	         8.00293e+57
          1701.82420	         7.67289e+57
          1702.63050	         8.21521e+57
          1703.43680	         8.12896e+57
          1704.24310	         7.60548e+57
          1705.04940	         7.84016e+57
          1705.85570	         7.94024e+57
          1706.66200	         7.84751e+57
          1707.46830	         7.79808e+57
          1708.27460	         6.97645e+57
          1709.08090	         6.26719e+57
          1709.88720	         5.79341e+57
          1710.69350	         5.46457e+57
          1711.49980	         6.04546e+57
          1712.30610	         7.94021e+57
          1713.11240	         8.73536e+57
          1713.91870	         7.28516e+57
          1714.72500	         7.68276e+57
          1715.53130	         8.71708e+57
          1716.33760	         7.45921e+57
          1717.14390	         7.16453e+57
          1717.95020	         8.27091e+57
          1718.75650	         8.35223e+57
          1719.56280	         8.71765e+57
          1720.36910	         7.41069e+57
          1721.17540	         7.07439e+57
          1721.98170	         5.31144e+57
          1722.78800	         6.18642e+57
          1723.59430	         7.47059e+57
          1724.40060	         8.02729e+57
          1725.20690	         8.18936e+57
          1726.01320	         7.21568e+57
          1726.81950	         7.56718e+57
          1727.62580	         6.94678e+57
          1728.43210	         7.16900e+57
          1729.23840	         8.30349e+57
          1730.04470	         8.20366e+57
          1730.85100	         7.66695e+57
          1731.65730	         7.02441e+57
          1732.46360	         7.74218e+57
          1733.26990	         6.97867e+57
          1734.07620	         7.15223e+57
          1734.88250	         7.56073e+57
          1735.68880	         6.84300e+57
          1736.49510	         7.65200e+57
          1737.30140	         8.82125e+57
          1738.10770	         7.59877e+57
          1738.91400	         8.27848e+57
          1739.72030	         7.83462e+57
          1740.52660	         5.31679e+57
          1741.33290	         5.49026e+57
          1742.13920	         5.66947e+57
          1742.94550	         6.62554e+57
          1743.75180	         8.07002e+57
          1744.55810	         7.32927e+57
          1745.36440	         7.58095e+57
          1746.17070	         5.74854e+57
          1746.97700	         4.96798e+57
          1747.78330	         6.47638e+57
          1748.58960	         5.80104e+57
          1749.39590	         5.60212e+57
          1750.20220	         5.50325e+57
          1751.00850	         5.28430e+57
          1751.81480	         6.12147e+57
          1752.62110	         6.77385e+57
          1753.42740	         6.55635e+57
          1754.23370	         5.04502e+57
          1755.04000	         6.35468e+57
          1755.84630	         7.03226e+57
          1756.65260	         7.50960e+57
          1757.45890	         7.96641e+57
          1758.26520	         6.87071e+57
          1759.07150	         8.83819e+57
          1759.87780	         9.22912e+57
          1760.68410	         8.43513e+57
          1761.49040	         8.32765e+57
          1762.29670	         6.99312e+57
          1763.10300	         7.61038e+57
          1763.90930	         8.16255e+57
          1764.71560	         8.23769e+57
          1765.52190	         8.05003e+57
          1766.32820	         8.41229e+57
          1767.13450	         7.59038e+57
          1767.94080	         6.20295e+57
          1768.74710	         6.81310e+57
          1769.55340	         7.05875e+57
          1770.35970	         7.29710e+57
          1771.16600	         7.67900e+57
          1771.97230	         8.00380e+57
          1772.77860	         7.52290e+57
          1773.58490	         7.21096e+57
          1774.39120	         6.60098e+57
          1775.19750	         5.86932e+57
          1776.00380	         6.40093e+57
          1776.81010	         6.21148e+57
          1777.61640	         5.72966e+57
          1778.42270	         6.68800e+57
          1779.22900	         6.85470e+57
          1780.03530	         6.17237e+57
          1780.84160	         7.58226e+57
          1781.64790	         8.56083e+57
          1782.45420	         7.13944e+57
          1783.26050	         6.77576e+57
          1784.06680	         7.84810e+57
          1784.87310	         7.30944e+57
          1785.67940	         7.44519e+57
          1786.48570	         7.21626e+57
          1787.29200	         6.85634e+57
          1788.09830	         6.08156e+57
          1788.90460	         4.61024e+57
          1789.71090	         4.49736e+57
          1790.51720	         5.61187e+57
          1791.32350	         7.44015e+57
          1792.12980	         8.19293e+57
          1792.93610	         8.34402e+57
          1793.74240	         7.37596e+57
          1794.54870	         7.53538e+57
          1795.35500	         8.07011e+57
          1796.16130	         7.18113e+57
          1796.96760	         7.06280e+57
          1797.77390	         7.19774e+57
          1798.58020	         7.64125e+57
          1799.38650	         7.10106e+57
          1800.19280	         6.78852e+57
          1800.99910	         7.33841e+57
          1801.80540	         7.72728e+57
          1802.61170	         8.49090e+57
          1803.41800	         8.42171e+57
          1804.22430	         6.89894e+57
          1805.03060	         6.22101e+57
          1805.83690	         6.12340e+57
          1806.64320	         7.25973e+57
          1807.44950	         7.05889e+57
          1808.25580	         6.26651e+57
          1809.06210	         8.14567e+57
          1809.86840	         7.60956e+57
          1810.67470	         6.66192e+57
          1811.48100	         7.28508e+57
          1812.28730	         8.45989e+57
          1813.09360	         7.27958e+57
          1813.89990	         7.96705e+57
          1814.70620	         7.23555e+57
          1815.51250	         7.61682e+57
          1816.31880	         8.87390e+57
          1817.12510	         6.66207e+57
          1817.93140	         6.26763e+57
          1818.73770	         7.50169e+57
          1819.54400	         8.75564e+57
          1820.35030	         8.59177e+57
          1821.15660	         6.00983e+57
          1821.96290	         5.40748e+57
          1822.76920	         6.71129e+57
          1823.57550	         7.81677e+57
          1824.38180	         7.28570e+57
          1825.18810	         7.43777e+57
          1825.99440	         8.27589e+57
          1826.80070	         7.92406e+57
          1827.60700	         6.67644e+57
          1828.41330	         6.19563e+57
          1829.21960	         6.72408e+57
          1830.02590	         6.32306e+57
          1830.83220	         7.19976e+57
          1831.63850	         8.14703e+57
          1832.44480	         7.34125e+57
          1833.25110	         7.92842e+57
          1834.05740	         8.10850e+57
          1834.86370	         7.03668e+57
          1835.67000	         5.74885e+57
          1836.47630	         7.34214e+57
          1837.28260	         8.23476e+57
          1838.08890	         8.78667e+57
          1838.89520	         8.35869e+57
          1839.70150	         8.01827e+57
          1840.50780	         7.88026e+57
          1841.31410	         7.82791e+57
          1842.12040	         6.91511e+57
          1842.92670	         5.50019e+57
          1843.73300	         5.26069e+57
          1844.53930	         5.45977e+57
          1845.34560	         6.60301e+57
          1846.15190	         6.77219e+57
          1846.95820	         7.53080e+57
          1847.76450	         6.96307e+57
          1848.57080	         5.69317e+57
          1849.37710	         6.41164e+57
          1850.18340	         6.82602e+57
          1850.98970	         6.92374e+57
          1851.79600	         7.87102e+57
          1852.60230	         7.38067e+57
          1853.40860	         6.83319e+57
          1854.21490	         6.22870e+57
          1855.02120	         6.10616e+57
          1855.82750	         4.64854e+57
          1856.63380	         5.55068e+57
          1857.44010	         8.03861e+57
          1858.24640	         6.85673e+57
          1859.05270	         6.97580e+57
          1859.85900	         6.14661e+57
          1860.66530	         5.52933e+57
          1861.47160	         6.68186e+57
          1862.27790	         7.03318e+57
          1863.08420	         6.94294e+57
          1863.89050	         7.90286e+57
          1864.69680	         7.64280e+57
          1865.50310	         6.51731e+57
          1866.30940	         5.65089e+57
          1867.11570	         5.70920e+57
          1867.92200	         6.32002e+57
          1868.72830	         7.10592e+57
          1869.53460	         6.29215e+57
          1870.34090	         5.74400e+57
          1871.14720	         6.82660e+57
          1871.95350	         6.80779e+57
          1872.75980	         6.79436e+57
          1873.56610	         6.59583e+57
          1874.37240	         5.75940e+57
          1875.17870	         5.82067e+57
          1875.98500	         7.21050e+57
          1876.79130	         7.74847e+57
          1877.59760	         6.49363e+57
          1878.40390	         6.19058e+57
          1879.21020	         6.22932e+57
          1880.01650	         6.56542e+57
          1880.82280	         8.33637e+57
          1881.62910	         9.32049e+57
          1882.43540	         9.11375e+57
          1883.24170	         7.79113e+57
          1884.04800	         6.89452e+57
          1884.85430	         6.81895e+57
          1885.66060	         7.67435e+57
          1886.46690	         7.36658e+57
          1887.27320	         6.32898e+57
          1888.07950	         5.55360e+57
          1888.88580	         6.63188e+57
          1889.69210	         9.05672e+57
          1890.49840	         8.96147e+57
          1891.30470	         7.17358e+57
          1892.11100	         8.37290e+57
          1892.91730	         8.62906e+57
          1893.72360	         7.97211e+57
          1894.52990	         7.57743e+57
          1895.33620	         7.88997e+57
          1896.14250	         7.07351e+57
          1896.94880	         6.99121e+57
          1897.75510	         4.50931e+57
          1898.56140	         6.34141e+57
          1899.36770	         8.62075e+57
          1900.17400	         6.67976e+57
          1900.98030	         6.01039e+57
          1901.78660	         6.50289e+57
          1902.59290	         7.67647e+57
          1903.39920	         8.11281e+57
          1904.20550	         8.72968e+57
          1905.01180	         8.61217e+57
          1905.81810	         1.00047e+58
          1906.62440	         1.13847e+58
          1907.43070	         1.48963e+58
          1908.23700	         1.42172e+58
          1909.04330	         1.28972e+58
          1909.84960	         1.11708e+58
          1910.65590	         9.83273e+57
          1911.46220	         8.83037e+57
          1912.26850	         7.62194e+57
          1913.07480	         6.72893e+57
          1913.88110	         5.90003e+57
          1914.68740	         6.03328e+57
          1915.49370	         5.94386e+57
          1916.30000	         5.69494e+57
          1917.10630	         6.55529e+57
          1917.91260	         7.22972e+57
          1918.71890	         7.06756e+57
          1919.52520	         6.14508e+57
          1920.33150	         5.91873e+57
          1921.13780	         6.37965e+57
          1921.94410	         7.95693e+57
          1922.75040	         7.41915e+57
          1923.55670	         6.98207e+57
          1924.36300	         7.60009e+57
          1925.16930	         6.21918e+57
          1925.97560	         4.67537e+57
          1926.78190	         3.24652e+57
          1927.58820	         5.43509e+57
          1928.39450	         5.74551e+57
          1929.20080	         5.38035e+57
          1930.00710	         7.70303e+57
          1930.81340	         8.93047e+57
          1931.61970	         8.35142e+57
          1932.42600	         7.59460e+57
          1933.23230	         8.56752e+57
          1934.03860	         8.21794e+57
          1934.84490	         6.15696e+57
          1935.65120	         6.83456e+57
          1936.45750	         8.83314e+57
          1937.26380	         7.48200e+57
          1938.07010	         8.23365e+57
          1938.87640	         8.17098e+57
          1939.68270	         8.44087e+57
          1940.48900	         8.21597e+57
          1941.29530	         7.73038e+57
          1942.10160	         7.52253e+57
          1942.90790	         6.92236e+57
          1943.71420	         6.37727e+57
          1944.52050	         6.79572e+57
          1945.32680	         6.39954e+57
          1946.13310	         7.35770e+57
          1946.93940	         9.39470e+57
          1947.74570	         7.69287e+57
          1948.55200	         6.18375e+57
          1949.35830	         5.64976e+57
          1950.16460	         5.20259e+57
          1950.97090	         5.88233e+57
          1951.77720	         6.89573e+57
          1952.58350	         7.12586e+57
          1953.38980	         6.76017e+57
          1954.19610	         5.42189e+57
          1955.00240	         5.42270e+57
          1955.80870	         5.45062e+57
          1956.61500	         5.98316e+57
          1957.42130	         5.93940e+57
          1958.22760	         7.04091e+57
          1959.03390	         7.25737e+57
          1959.84020	         7.90407e+57
          1960.64650	         7.87800e+57
          1961.45280	         6.46909e+57
          1962.25910	         6.15708e+57
          1963.06540	         6.37438e+57
          1963.87170	         5.44816e+57
          1964.67800	         6.42854e+57
          1965.48430	         6.53850e+57
          1966.29060	         5.21114e+57
          1967.09690	         6.98823e+57
          1967.90320	         7.59200e+57
          1968.70950	         7.08199e+57
          1969.51580	         7.49241e+57
          1970.32210	         8.17211e+57
          1971.12840	         7.12057e+57
          1971.93470	         5.83504e+57
          1972.74100	         5.45154e+57
          1973.54730	         6.39201e+57
          1974.35360	         7.03812e+57
          1975.15990	         7.13753e+57
          1975.96620	         5.89932e+57
          1976.77250	         7.08015e+57
          1977.57880	         8.19796e+57
          1978.38510	         6.14840e+57
          1979.19140	         6.57270e+57
          1979.99770	         7.75785e+57
          1980.80400	         7.85743e+57
          1981.61030	         6.90301e+57
          1982.41660	         5.72504e+57
          1983.22290	         5.80597e+57
          1984.02920	         5.78576e+57
          1984.83550	         6.22667e+57
          1985.64180	         6.52808e+57
          1986.44810	         7.40079e+57
          1987.25440	         6.66241e+57
          1988.06070	         5.77231e+57
          1988.86700	         6.07270e+57
          1989.67330	         5.97888e+57
          1990.47960	         5.79499e+57
          1991.28590	         5.86734e+57
          1992.09220	         6.69109e+57
          1992.89850	         6.29947e+57
          1993.70480	         5.93627e+57
          1994.51110	         5.34239e+57
          1995.31740	         4.71282e+57
          1996.12370	         5.05544e+57
          1996.93000	         5.88983e+57
          1997.73630	         7.55508e+57
          1998.54260	         7.90611e+57
          1999.34890	         7.53588e+57
          2000.15520	         6.48418e+57
          2000.96150	         6.48357e+57
          2001.76780	         7.72083e+57
          2002.57410	         5.69854e+57
          2003.38040	         5.47693e+57
          2004.18670	         5.64837e+57
          2004.99300	         5.45838e+57
          2005.79930	         7.30041e+57
          2006.60560	         6.41834e+57
          2007.41190	         7.29451e+57
          2008.21820	         7.49544e+57
          2009.02450	         7.11859e+57
          2009.83080	         6.60370e+57
          2010.63710	         6.29580e+57
          2011.44340	         6.54588e+57
          2012.24970	         6.18192e+57
          2013.05600	         5.95589e+57
          2013.86230	         5.49480e+57
          2014.66860	         5.12330e+57
          2015.47490	         5.90352e+57
          2016.28120	         5.79090e+57
          2017.08750	         6.04392e+57
          2017.89380	         6.40247e+57
          2018.70010	         5.37651e+57
          2019.50640	         5.33365e+57
          2020.31270	         7.07949e+57
          2021.11900	         7.12492e+57
          2021.92530	         8.14216e+57
          2022.73160	         7.60980e+57
          2023.53790	         6.21615e+57
          2024.34420	         5.38590e+57
          2025.15050	         5.18021e+57
          2025.95680	         5.74971e+57
          2026.76310	         5.87386e+57
          2027.56940	         5.76169e+57
          2028.37570	         6.61396e+57
          2029.18200	         6.16277e+57
          2029.98830	         6.52624e+57
          2030.79460	         6.42299e+57
          2031.60090	         5.90484e+57
          2032.40720	         5.09433e+57
          2033.21350	         5.59139e+57
          2034.01980	         5.26047e+57
          2034.82610	         3.68719e+57
          2035.63240	         4.58086e+57
          2036.43870	         5.66652e+57
          2037.24500	         6.43950e+57
          2038.05130	         6.23275e+57
          2038.85760	         5.88562e+57
          2039.66390	         5.89780e+57
          2040.47020	         6.51759e+57
          2041.27650	         6.35453e+57
          2042.08280	         4.71412e+57
          2042.88910	         4.43991e+57
          2043.69540	         4.90572e+57
          2044.50170	         5.21103e+57
          2045.30800	         6.24887e+57
          2046.11430	         3.71202e+57
          2046.92060	         5.24421e+57
          2047.72690	         6.79998e+57
          2048.53320	         7.20575e+57
          2049.33950	         5.57924e+57
          2050.14580	         5.73274e+57
          2050.95210	         6.73284e+57
          2051.75840	         7.96404e+57
          2052.56470	         5.37156e+57
          2053.37100	         4.83527e+57
          2054.17730	         5.04688e+57
          2054.98360	         5.60394e+57
          2055.78990	         3.65513e+57
          2056.59620	         2.85521e+57
          2057.40250	         4.24695e+57
          2058.20880	         6.32976e+57
          2059.01510	         6.77960e+57
          2059.82140	         6.77988e+57
          2060.62770	         1.00154e+58
          2061.43400	         1.57494e+58
          2062.24030	         1.11231e+58
          2063.04660	         5.00616e+57
          2063.85290	         1.28451e+57
          2064.65920	        -1.72272e+57
          2065.46550	        -9.31166e+57
          2066.27180	        -8.76666e+57
          2067.07810	         4.41781e+57
          2067.88440	         5.98988e+57
          2068.69070	         6.47185e+57
          2069.49700	         5.23167e+57
          2070.30330	         4.97664e+57
          2071.10960	         4.81328e+57
          2071.91590	         6.46871e+57
          2072.72220	         4.94049e+57
          2073.52850	         5.93735e+57
          2074.33480	         5.15236e+57
          2075.14110	         5.48909e+57
          2075.94740	         4.04426e+57
          2076.75370	         3.75035e+57
          2077.56000	         5.48405e+57
          2078.36630	         5.25818e+57
          2079.17260	         6.10484e+57
          2079.97890	         6.58222e+57
          2080.78520	         7.01445e+57
          2081.59150	         4.36629e+57
          2082.39780	         4.82820e+57
          2083.20410	         3.24990e+57
          2084.01040	         2.59805e+57
          2084.81670	         3.12803e+57
          2085.62300	         3.50185e+57
          2086.42930	         3.63585e+57
          2087.23560	         2.75098e+57
          2088.04190	         3.44875e+57
          2088.84820	         4.77810e+57
          2089.65450	         3.27586e+57
          2090.46080	         3.05310e+57
          2091.26710	         4.40409e+57
          2092.07340	         3.36453e+57
          2092.87970	         2.57131e+57
          2093.68600	        -3.37552e+56
          2094.49230	         8.64783e+56
          2095.29860	         2.90313e+57
          2096.10490	         2.34425e+57
          2096.91120	         2.72957e+57
          2097.71750	         2.87269e+57
          2098.52380	         2.45342e+56
          2099.33010	         9.83742e+56
          2100.13640	         1.24413e+57
          2100.94270	         3.12401e+57
          2101.74900	         2.84064e+57
          2102.55530	         1.67006e+57
          2103.36160	         1.13751e+57
          2104.16790	         3.19502e+57
          2104.97420	         3.96932e+57
          2105.78050	         1.87382e+57
          2106.58680	         1.25853e+57
          2107.39310	         5.87006e+56
          2108.19940	         2.17590e+57
          2109.00570	        -1.42416e+56
          2109.81200	         5.98195e+56
          2110.61830	         3.11058e+57
          2111.42460	         3.57098e+57
          2112.23090	         2.30175e+57
          2113.03720	        -1.30476e+57
          2113.84350	         7.00274e+56
          2114.64980	         1.29269e+57
          2115.45610	        -6.51460e+56
          2116.26240	        -6.83109e+57
          2117.06870	        -1.49256e+57
          2117.87500	        -3.47684e+57
          2118.68130	        -1.95981e+57
          2119.48760	         3.18276e+57
          2120.29390	         6.05617e+57
          2121.10020	        -2.23343e+57
          2121.90650	         1.11245e+57
          2122.71280	         2.91446e+57
          2123.51910	         2.86158e+57
          2124.32540	        -1.88089e+56
          2125.13170	        -4.73948e+57
          2125.93800	         1.13907e+57
          2126.74430	         2.32995e+57
          2127.55060	        -1.28537e+57
          2128.35690	        -3.21986e+57
          2129.16320	        -7.83925e+57
          2129.96950	        -5.24432e+57
          2130.77580	        -3.00080e+57
          2131.58210	        -2.92883e+57
          2132.38840	         1.91776e+57
          2133.19470	         8.56177e+56
          2134.00100	        -7.89350e+55
          2134.80730	        -1.11574e+58
          2135.61360	        -9.85993e+56
          2136.41990	         5.17341e+57
          2137.22620	         1.35975e+57
          2138.03250	         1.81534e+57
          2138.83880	         1.12326e+57
          2139.64510	        -3.73868e+56
          2140.45140	        -7.35707e+57
          2141.25770	        -7.71525e+57
          2142.06400	        -1.22514e+58
          2142.87030	         3.11879e+57
          2143.67660	         7.20898e+57
          2144.48290	         4.54159e+57
          2145.28920	         1.48620e+58
          2146.09550	        -2.84013e+57
          2146.90180	        -1.03506e+57
          2147.70810	        -2.76885e+57
          2148.51440	        -1.52520e+57
          2149.32070	        -6.34999e+57
          2150.12700	        -1.78467e+58
          2150.93330	        -2.82237e+57
          2151.73960	         1.40033e+57
          2152.54590	        -3.84481e+57
          2153.35220	        -1.94401e+57
          2154.15850	        -9.39457e+57
          2154.96480	        -2.86965e+57
          2155.77110	        -8.49209e+57
          2156.57740	        -9.63095e+57
          2157.38370	        -3.41520e+57
          2158.19000	        -3.71939e+57
          2158.99630	        -9.97999e+57
          2159.80260	        -2.05934e+58
          2160.60890	        -1.35421e+58
          2161.41520	         3.74292e+57
          2162.22150	         2.71474e+57
          2163.02780	        -8.07356e+57
          2163.83410	        -1.23760e+58
          2164.64040	        -8.29823e+57
          2165.44670	        -2.96786e+57
          2166.25300	        -1.02738e+58
          2167.05930	        -1.72257e+58
          2167.86560	        -9.27133e+57
          2168.67190	        -7.82224e+57
          2169.47820	        -2.14322e+56
          2170.28450	        -6.22354e+57
          2171.09080	        -8.93551e+56
          2171.89710	        -1.09042e+57
          2172.70340	         3.42442e+57
          2173.50970	        -5.26330e+57
          2174.31600	        -4.37853e+57
          2175.12230	        -2.06634e+57
          2175.92860	        -3.09600e+57
          2176.73490	        -2.77624e+57
          2177.54120	        -8.77022e+57
          2178.34750	        -3.71903e+57
          2179.15380	                 nan
          2179.96010	                 nan
          2180.76640	                 nan
          2181.57270	                 nan
          2182.37900	                 nan
          2183.18530	                 nan
          2183.99160	                 nan
          2184.79790	                 nan
          2185.60420	                 nan
          2186.41050	                 nan
          2187.21680	                 nan
          2188.02310	                 nan
          2188.82940	                 nan
          2189.63570	                 nan
          2190.44200	                 nan
          2191.24830	                 nan
          2192.05460	                 nan
          2192.86090	                 nan
          2193.66720	                 nan
          2194.47350	                 nan
          2195.27980	                 nan
          2196.08610	                 nan
          2196.89240	                 nan
          2197.69870	                 nan
          2198.50500	                 nan
          2199.31130	                 nan
          2200.11760	                 nan
          2200.92390	                 nan
          2201.73020	                 nan
          2202.53650	                 nan
          2203.34280	                 nan
          2204.14910	                 nan
          2204.95540	                 nan
          2205.76170	                 nan
          2206.56800	                 nan
          2207.37430	                 nan
          2208.18060	                 nan
          2208.98690	                 nan
          2209.79320	                 nan
          2210.59950	                 nan
          2211.40580	                 nan
          2212.21210	                 nan
          2213.01840	                 nan
          2213.82470	                 nan
          2214.63100	                 nan
          2215.43730	         0.00000e+00
