#sample_447_stacked_spectrum_rest_UV-bands_median_H-alpha_noDC.txt
#median Lum: 1.70773e+42
#Rest-frame wavelength (A) | Luminosity (erg/s/A)
#
          1110.00000	         0.00000e+00
          1110.80630	         3.85966e+59
          1111.61260	         6.40228e+59
          1112.41890	         5.74586e+58
          1113.22520	        -1.81847e+58
          1114.03150	        -2.80357e+59
          1114.83780	        -5.62066e+58
          1115.64410	         6.82322e+58
          1116.45040	         1.21292e+58
          1117.25670	         3.36142e+57
          1118.06300	         3.31086e+58
          1118.86930	        -6.39669e+58
          1119.67560	         1.02305e+59
          1120.48190	        -6.37781e+57
          1121.28820	        -1.41950e+59
          1122.09450	         7.52731e+58
          1122.90080	         1.25432e+59
          1123.70710	         6.08730e+58
          1124.51340	         1.71912e+59
          1125.31970	         3.48472e+58
          1126.12600	         5.95518e+56
          1126.93230	        -4.63480e+58
          1127.73860	        -6.04638e+58
          1128.54490	         1.60706e+58
          1129.35120	         3.41324e+58
          1130.15750	        -1.86182e+58
          1130.96380	        -1.28514e+58
          1131.77010	         4.01657e+58
          1132.57640	         5.30374e+58
          1133.38270	         3.62231e+57
          1134.18900	         1.08370e+58
          1134.99530	         3.49323e+58
          1135.80160	         2.47261e+58
          1136.60790	         2.82860e+58
          1137.41420	        -1.29436e+58
          1138.22050	         1.37116e+58
          1139.02680	         1.20901e+58
          1139.83310	         9.38170e+56
          1140.63940	         1.37764e+58
          1141.44570	        -2.89716e+58
          1142.25200	        -1.85020e+58
          1143.05830	         5.96648e+57
          1143.86460	         1.54693e+58
          1144.67090	         2.66044e+58
          1145.47720	         2.14521e+58
          1146.28350	         1.59533e+58
          1147.08980	         1.06239e+58
          1147.89610	         8.09071e+57
          1148.70240	         2.42110e+58
          1149.50870	         2.25016e+58
          1150.31500	         1.29580e+58
          1151.12130	         7.80034e+57
          1151.92760	         7.29323e+57
          1152.73390	         1.84671e+58
          1153.54020	         9.28091e+57
          1154.34650	         2.63859e+58
          1155.15280	         1.38257e+58
          1155.95910	         1.86614e+57
          1156.76540	         1.22684e+58
          1157.57170	         4.82762e+57
          1158.37800	        -6.44785e+57
          1159.18430	        -5.03806e+57
          1159.99060	         1.57152e+56
          1160.79690	         4.27065e+57
          1161.60320	         1.11429e+58
          1162.40950	         1.31806e+58
          1163.21580	         1.36034e+58
          1164.02210	         1.04351e+58
          1164.82840	         1.65463e+58
          1165.63470	         2.45864e+58
          1166.44100	         2.73191e+58
          1167.24730	         1.65156e+58
          1168.05360	         8.35335e+57
          1168.85990	         1.28740e+58
          1169.66620	         1.69247e+58
          1170.47250	         1.33998e+58
          1171.27880	         1.27938e+58
          1172.08510	         1.67909e+58
          1172.89140	         1.48963e+58
          1173.69770	         1.01330e+58
          1174.50400	         1.73656e+58
          1175.31030	         1.90806e+58
          1176.11660	         1.84521e+58
          1176.92290	         1.85973e+58
          1177.72920	         1.48133e+58
          1178.53550	         8.76459e+57
          1179.34180	         8.27428e+56
          1180.14810	         5.81385e+57
          1180.95440	         9.20900e+57
          1181.76070	         1.01757e+58
          1182.56700	         1.24738e+58
          1183.37330	         5.19994e+57
          1184.17960	         7.79601e+57
          1184.98590	         1.19065e+58
          1185.79220	         9.80974e+57
          1186.59850	         7.64170e+57
          1187.40480	         7.83990e+57
          1188.21110	         1.01487e+58
          1189.01740	         1.30989e+58
          1189.82370	         1.81136e+58
          1190.63000	         1.71285e+58
          1191.43630	         1.28782e+58
          1192.24260	         6.28693e+57
          1193.04890	         9.65616e+57
          1193.85520	         9.26121e+57
          1194.66150	         5.32508e+57
          1195.46780	         1.21822e+58
          1196.27410	         1.47916e+58
          1197.08040	         8.80156e+57
          1197.88670	         1.09737e+58
          1198.69300	         1.47069e+58
          1199.49930	         1.44326e+58
          1200.30560	         1.47655e+58
          1201.11190	         1.08764e+58
          1201.91820	         8.57960e+57
          1202.72450	         7.05962e+57
          1203.53080	         1.25849e+58
          1204.33710	         9.03819e+57
          1205.14340	         7.67600e+57
          1205.94970	         6.59626e+57
          1206.75600	         9.60989e+57
          1207.56230	         1.33158e+58
          1208.36860	         1.16450e+58
          1209.17490	         7.21768e+57
          1209.98120	         6.05481e+57
          1210.78750	         1.09370e+58
          1211.59380	         1.09083e+58
          1212.40010	         1.84957e+58
          1213.20640	         2.22418e+58
          1214.01270	         2.31894e+58
          1214.81900	         2.76553e+58
          1215.62530	         4.36020e+58
          1216.43160	         8.67175e+58
          1217.23790	         1.46923e+59
          1218.04420	         1.09847e+59
          1218.85050	         8.19918e+58
          1219.65680	         5.70688e+58
          1220.46310	         3.18702e+58
          1221.26940	         2.13980e+58
          1222.07570	         1.77747e+58
          1222.88200	         1.57775e+58
          1223.68830	         1.25341e+58
          1224.49460	         8.72709e+57
          1225.30090	         6.42361e+57
          1226.10720	         6.68463e+57
          1226.91350	         5.88871e+57
          1227.71980	         9.15263e+57
          1228.52610	         1.19024e+58
          1229.33240	         9.54944e+57
          1230.13870	         8.45325e+57
          1230.94500	         6.82305e+57
          1231.75130	         6.53080e+57
          1232.55760	         9.64952e+57
          1233.36390	         1.24594e+58
          1234.17020	         9.62054e+57
          1234.97650	         6.81664e+57
          1235.78280	         8.93874e+57
          1236.58910	         9.65048e+57
          1237.39540	         8.66875e+57
          1238.20170	         9.24906e+57
          1239.00800	         1.20667e+58
          1239.81430	         1.30503e+58
          1240.62060	         8.28539e+57
          1241.42690	         8.60220e+57
          1242.23320	         9.83772e+57
          1243.03950	         8.13029e+57
          1243.84580	         9.51761e+57
          1244.65210	         7.89859e+57
          1245.45840	         7.39794e+57
          1246.26470	         1.24147e+58
          1247.07100	         8.38820e+57
          1247.87730	         9.21451e+57
          1248.68360	         4.59699e+57
          1249.48990	         7.51824e+57
          1250.29620	         1.04203e+58
          1251.10250	         8.78543e+57
          1251.90880	         7.53028e+57
          1252.71510	         8.28333e+57
          1253.52140	         6.51822e+57
          1254.32770	         7.80883e+57
          1255.13400	         1.40749e+58
          1255.94030	         1.45872e+58
          1256.74660	         1.03232e+58
          1257.55290	         1.03464e+58
          1258.35920	         9.04237e+57
          1259.16550	         5.14019e+57
          1259.97180	         4.26936e+57
          1260.77810	         6.39817e+57
          1261.58440	         1.15693e+58
          1262.39070	         7.67039e+57
          1263.19700	         8.86073e+57
          1264.00330	         1.07660e+58
          1264.80960	         1.06576e+58
          1265.61590	         1.28063e+58
          1266.42220	         1.12182e+58
          1267.22850	         1.03884e+58
          1268.03480	         1.45884e+58
          1268.84110	         1.54623e+58
          1269.64740	         1.39788e+58
          1270.45370	         1.30505e+58
          1271.26000	         1.13493e+58
          1272.06630	         1.33174e+58
          1272.87260	         1.14419e+58
          1273.67890	         1.01420e+58
          1274.48520	         1.13473e+58
          1275.29150	         1.31967e+58
          1276.09780	         1.13707e+58
          1276.90410	         1.31987e+58
          1277.71040	         1.19388e+58
          1278.51670	         9.71574e+57
          1279.32300	         1.14197e+58
          1280.12930	         1.27247e+58
          1280.93560	         1.19788e+58
          1281.74190	         1.06377e+58
          1282.54820	         9.75768e+57
          1283.35450	         1.02707e+58
          1284.16080	         1.14379e+58
          1284.96710	         1.34470e+58
          1285.77340	         1.21728e+58
          1286.57970	         1.23476e+58
          1287.38600	         1.68141e+58
          1288.19230	         1.51659e+58
          1288.99860	         1.32301e+58
          1289.80490	         1.19829e+58
          1290.61120	         1.38840e+58
          1291.41750	         1.48265e+58
          1292.22380	         1.25880e+58
          1293.03010	         1.22691e+58
          1293.83640	         1.24480e+58
          1294.64270	         9.78498e+57
          1295.44900	         4.79220e+57
          1296.25530	         6.19241e+57
          1297.06160	         8.60580e+57
          1297.86790	         1.01373e+58
          1298.67420	         9.97739e+57
          1299.48050	         9.40246e+57
          1300.28680	         1.14683e+58
          1301.09310	         8.56055e+57
          1301.89940	         3.96875e+57
          1302.70570	         5.16253e+57
          1303.51200	         8.95837e+57
          1304.31830	         1.02740e+58
          1305.12460	         1.13225e+58
          1305.93090	         1.23594e+58
          1306.73720	         1.26504e+58
          1307.54350	         1.45954e+58
          1308.34980	         1.41557e+58
          1309.15610	         1.53196e+58
          1309.96240	         1.47915e+58
          1310.76870	         1.26063e+58
          1311.57500	         1.14875e+58
          1312.38130	         1.16934e+58
          1313.18760	         1.37165e+58
          1313.99390	         1.62391e+58
          1314.80020	         1.61323e+58
          1315.60650	         1.41770e+58
          1316.41280	         1.24654e+58
          1317.21910	         1.19690e+58
          1318.02540	         1.21213e+58
          1318.83170	         1.33067e+58
          1319.63800	         1.32317e+58
          1320.44430	         1.29973e+58
          1321.25060	         1.32730e+58
          1322.05690	         1.25394e+58
          1322.86320	         1.19643e+58
          1323.66950	         1.20295e+58
          1324.47580	         1.08784e+58
          1325.28210	         9.28893e+57
          1326.08840	         1.21858e+58
          1326.89470	         1.41056e+58
          1327.70100	         1.15138e+58
          1328.50730	         9.52926e+57
          1329.31360	         9.38987e+57
          1330.11990	         8.85971e+57
          1330.92620	         7.57494e+57
          1331.73250	         9.79764e+57
          1332.53880	         9.81725e+57
          1333.34510	         7.47441e+57
          1334.15140	         7.76179e+57
          1334.95770	         8.72265e+57
          1335.76400	         9.92745e+57
          1336.57030	         1.09399e+58
          1337.37660	         1.10069e+58
          1338.18290	         9.72555e+57
          1338.98920	         1.03236e+58
          1339.79550	         1.18131e+58
          1340.60180	         1.19776e+58
          1341.40810	         1.18442e+58
          1342.21440	         1.05817e+58
          1343.02070	         1.26924e+58
          1343.82700	         1.44457e+58
          1344.63330	         1.26159e+58
          1345.43960	         1.17794e+58
          1346.24590	         1.12654e+58
          1347.05220	         1.16859e+58
          1347.85850	         1.09531e+58
          1348.66480	         1.22179e+58
          1349.47110	         1.28188e+58
          1350.27740	         1.16204e+58
          1351.08370	         1.12183e+58
          1351.89000	         1.18828e+58
          1352.69630	         1.27002e+58
          1353.50260	         1.16744e+58
          1354.30890	         1.02549e+58
          1355.11520	         1.12054e+58
          1355.92150	         1.17718e+58
          1356.72780	         1.10750e+58
          1357.53410	         1.03519e+58
          1358.34040	         1.08908e+58
          1359.14670	         1.00134e+58
          1359.95300	         1.12156e+58
          1360.75930	         1.16278e+58
          1361.56560	         1.26160e+58
          1362.37190	         1.36355e+58
          1363.17820	         1.13610e+58
          1363.98450	         1.19002e+58
          1364.79080	         1.22866e+58
          1365.59710	         1.26369e+58
          1366.40340	         1.33842e+58
          1367.20970	         1.04711e+58
          1368.01600	         9.29029e+57
          1368.82230	         8.92841e+57
          1369.62860	         8.94074e+57
          1370.43490	         9.25461e+57
          1371.24120	         8.66153e+57
          1372.04750	         7.67134e+57
          1372.85380	         9.86997e+57
          1373.66010	         1.12597e+58
          1374.46640	         1.13248e+58
          1375.27270	         1.09606e+58
          1376.07900	         1.00167e+58
          1376.88530	         9.23750e+57
          1377.69160	         7.58264e+57
          1378.49790	         7.47802e+57
          1379.30420	         8.76147e+57
          1380.11050	         9.65479e+57
          1380.91680	         9.34278e+57
          1381.72310	         9.34503e+57
          1382.52940	         8.42047e+57
          1383.33570	         7.91591e+57
          1384.14200	         9.82475e+57
          1384.94830	         1.28281e+58
          1385.75460	         1.28236e+58
          1386.56090	         1.10817e+58
          1387.36720	         1.11005e+58
          1388.17350	         1.22630e+58
          1388.97980	         1.10372e+58
          1389.78610	         9.00731e+57
          1390.59240	         8.67855e+57
          1391.39870	         7.85481e+57
          1392.20500	         8.53262e+57
          1393.01130	         7.57244e+57
          1393.81760	         7.14373e+57
          1394.62390	         7.09788e+57
          1395.43020	         7.11230e+57
          1396.23650	         6.33355e+57
          1397.04280	         5.95810e+57
          1397.84910	         8.26341e+57
          1398.65540	         8.46602e+57
          1399.46170	         9.13294e+57
          1400.26800	         8.56133e+57
          1401.07430	         8.20580e+57
          1401.88060	         8.20143e+57
          1402.68690	         9.29429e+57
          1403.49320	         1.00099e+58
          1404.29950	         9.68073e+57
          1405.10580	         1.01048e+58
          1405.91210	         1.00476e+58
          1406.71840	         1.01521e+58
          1407.52470	         1.06026e+58
          1408.33100	         9.63768e+57
          1409.13730	         9.62418e+57
          1409.94360	         1.08314e+58
          1410.74990	         1.22844e+58
          1411.55620	         1.06914e+58
          1412.36250	         8.73441e+57
          1413.16880	         9.12228e+57
          1413.97510	         9.31582e+57
          1414.78140	         9.60591e+57
          1415.58770	         1.05464e+58
          1416.39400	         1.24477e+58
          1417.20030	         1.10637e+58
          1418.00660	         9.11256e+57
          1418.81290	         1.15838e+58
          1419.61920	         1.20842e+58
          1420.42550	         1.30975e+58
          1421.23180	         1.43749e+58
          1422.03810	         1.30210e+58
          1422.84440	         1.14680e+58
          1423.65070	         1.33964e+58
          1424.45700	         1.21645e+58
          1425.26330	         8.65181e+57
          1426.06960	         9.27850e+57
          1426.87590	         9.83973e+57
          1427.68220	         9.50419e+57
          1428.48850	         1.07535e+58
          1429.29480	         1.18072e+58
          1430.10110	         1.04647e+58
          1430.90740	         8.29005e+57
          1431.71370	         8.74163e+57
          1432.52000	         9.54147e+57
          1433.32630	         9.32637e+57
          1434.13260	         8.97804e+57
          1434.93890	         8.88558e+57
          1435.74520	         9.25272e+57
          1436.55150	         1.00792e+58
          1437.35780	         9.85016e+57
          1438.16410	         8.99960e+57
          1438.97040	         8.28462e+57
          1439.77670	         8.36366e+57
          1440.58300	         9.33151e+57
          1441.38930	         9.47504e+57
          1442.19560	         9.52882e+57
          1443.00190	         9.80225e+57
          1443.80820	         1.09581e+58
          1444.61450	         9.19569e+57
          1445.42080	         7.48310e+57
          1446.22710	         1.00861e+58
          1447.03340	         1.01300e+58
          1447.83970	         1.03570e+58
          1448.64600	         1.06257e+58
          1449.45230	         1.07490e+58
          1450.25860	         1.14069e+58
          1451.06490	         8.84017e+57
          1451.87120	         7.34099e+57
          1452.67750	         7.81171e+57
          1453.48380	         8.37604e+57
          1454.29010	         7.89588e+57
          1455.09640	         7.07290e+57
          1455.90270	         7.82858e+57
          1456.70900	         8.60864e+57
          1457.51530	         9.12522e+57
          1458.32160	         1.16257e+58
          1459.12790	         1.14043e+58
          1459.93420	         1.04802e+58
          1460.74050	         9.08936e+57
          1461.54680	         9.24733e+57
          1462.35310	         7.54764e+57
          1463.15940	         8.55402e+57
          1463.96570	         1.05465e+58
          1464.77200	         1.13613e+58
          1465.57830	         9.82367e+57
          1466.38460	         8.31212e+57
          1467.19090	         7.89547e+57
          1467.99720	         7.82874e+57
          1468.80350	         9.24150e+57
          1469.60980	         9.62473e+57
          1470.41610	         1.07701e+58
          1471.22240	         1.00013e+58
          1472.02870	         9.31471e+57
          1472.83500	         9.44532e+57
          1473.64130	         9.08093e+57
          1474.44760	         9.67643e+57
          1475.25390	         1.00933e+58
          1476.06020	         1.02948e+58
          1476.86650	         9.58719e+57
          1477.67280	         8.90342e+57
          1478.47910	         8.09474e+57
          1479.28540	         7.14606e+57
          1480.09170	         8.08862e+57
          1480.89800	         8.58989e+57
          1481.70430	         7.66018e+57
          1482.51060	         7.63014e+57
          1483.31690	         7.84616e+57
          1484.12320	         7.61098e+57
          1484.92950	         7.74663e+57
          1485.73580	         8.00862e+57
          1486.54210	         8.09387e+57
          1487.34840	         9.43874e+57
          1488.15470	         1.02648e+58
          1488.96100	         9.33061e+57
          1489.76730	         9.29628e+57
          1490.57360	         8.16665e+57
          1491.37990	         7.09121e+57
          1492.18620	         8.09423e+57
          1492.99250	         8.70681e+57
          1493.79880	         9.24519e+57
          1494.60510	         9.13591e+57
          1495.41140	         7.48376e+57
          1496.21770	         8.41396e+57
          1497.02400	         9.71966e+57
          1497.83030	         8.23813e+57
          1498.63660	         7.15723e+57
          1499.44290	         7.68747e+57
          1500.24920	         7.83610e+57
          1501.05550	         8.11759e+57
          1501.86180	         8.19837e+57
          1502.66810	         8.50777e+57
          1503.47440	         8.34061e+57
          1504.28070	         7.22187e+57
          1505.08700	         8.53091e+57
          1505.89330	         9.28165e+57
          1506.69960	         9.08567e+57
          1507.50590	         9.11225e+57
          1508.31220	         8.57503e+57
          1509.11850	         7.97636e+57
          1509.92480	         9.03480e+57
          1510.73110	         8.96740e+57
          1511.53740	         7.33017e+57
          1512.34370	         6.57720e+57
          1513.15000	         8.68347e+57
          1513.95630	         1.05987e+58
          1514.76260	         1.01781e+58
          1515.56890	         8.68764e+57
          1516.37520	         8.42445e+57
          1517.18150	         7.70349e+57
          1517.98780	         7.71598e+57
          1518.79410	         7.63973e+57
          1519.60040	         8.20508e+57
          1520.40670	         9.49862e+57
          1521.21300	         9.31767e+57
          1522.01930	         8.37946e+57
          1522.82560	         9.63282e+57
          1523.63190	         1.00906e+58
          1524.43820	         8.94042e+57
          1525.24450	         6.43642e+57
          1526.05080	         7.10958e+57
          1526.85710	         7.06972e+57
          1527.66340	         6.88856e+57
          1528.46970	         7.74201e+57
          1529.27600	         8.27092e+57
          1530.08230	         7.99991e+57
          1530.88860	         8.35622e+57
          1531.69490	         9.06156e+57
          1532.50120	         9.62479e+57
          1533.30750	         1.00505e+58
          1534.11380	         9.48520e+57
          1534.92010	         9.10423e+57
          1535.72640	         1.00215e+58
          1536.53270	         1.00962e+58
          1537.33900	         8.24117e+57
          1538.14530	         7.83179e+57
          1538.95160	         8.97495e+57
          1539.75790	         8.84864e+57
          1540.56420	         8.92941e+57
          1541.37050	         9.19727e+57
          1542.17680	         8.61647e+57
          1542.98310	         8.01047e+57
          1543.78940	         7.28457e+57
          1544.59570	         6.50908e+57
          1545.40200	         7.18149e+57
          1546.20830	         9.44049e+57
          1547.01460	         1.07893e+58
          1547.82090	         1.18909e+58
          1548.62720	         1.25299e+58
          1549.43350	         1.15655e+58
          1550.23980	         1.08152e+58
          1551.04610	         1.17668e+58
          1551.85240	         1.25156e+58
          1552.65870	         1.24189e+58
          1553.46500	         1.09860e+58
          1554.27130	         1.04128e+58
          1555.07760	         1.03450e+58
          1555.88390	         9.57517e+57
          1556.69020	         9.00864e+57
          1557.49650	         9.31087e+57
          1558.30280	         9.03453e+57
          1559.10910	         8.32585e+57
          1559.91540	         9.13165e+57
          1560.72170	         8.94523e+57
          1561.52800	         7.69807e+57
          1562.33430	         8.62895e+57
          1563.14060	         8.31060e+57
          1563.94690	         8.37859e+57
          1564.75320	         8.71894e+57
          1565.55950	         7.38604e+57
          1566.36580	         7.23708e+57
          1567.17210	         9.17798e+57
          1567.97840	         9.67850e+57
          1568.78470	         8.81263e+57
          1569.59100	         9.31324e+57
          1570.39730	         1.00617e+58
          1571.20360	         8.28118e+57
          1572.00990	         7.49672e+57
          1572.81620	         8.27513e+57
          1573.62250	         9.96355e+57
          1574.42880	         9.90765e+57
          1575.23510	         8.13927e+57
          1576.04140	         8.38799e+57
          1576.84770	         9.40992e+57
          1577.65400	         8.86337e+57
          1578.46030	         9.46664e+57
          1579.26660	         1.09016e+58
          1580.07290	         9.97552e+57
          1580.87920	         7.41112e+57
          1581.68550	         7.20747e+57
          1582.49180	         8.31478e+57
          1583.29810	         7.73763e+57
          1584.10440	         7.39210e+57
          1584.91070	         7.45993e+57
          1585.71700	         7.94945e+57
          1586.52330	         8.68437e+57
          1587.32960	         7.94686e+57
          1588.13590	         7.51031e+57
          1588.94220	         8.22929e+57
          1589.74850	         8.47402e+57
          1590.55480	         9.25868e+57
          1591.36110	         9.35151e+57
          1592.16740	         9.73119e+57
          1592.97370	         8.73045e+57
          1593.78000	         8.32760e+57
          1594.58630	         8.71064e+57
          1595.39260	         8.35168e+57
          1596.19890	         9.35997e+57
          1597.00520	         9.67853e+57
          1597.81150	         8.88915e+57
          1598.61780	         7.34481e+57
          1599.42410	         6.36449e+57
          1600.23040	         7.01067e+57
          1601.03670	         7.27598e+57
          1601.84300	         7.01468e+57
          1602.64930	         9.17314e+57
          1603.45560	         9.45166e+57
          1604.26190	         8.10113e+57
          1605.06820	         7.68298e+57
          1605.87450	         7.00375e+57
          1606.68080	         6.93417e+57
          1607.48710	         6.48912e+57
          1608.29340	         6.37453e+57
          1609.09970	         6.62417e+57
          1609.90600	         7.21499e+57
          1610.71230	         6.99087e+57
          1611.51860	         6.77209e+57
          1612.32490	         7.03705e+57
          1613.13120	         8.07396e+57
          1613.93750	         8.20367e+57
          1614.74380	         9.37851e+57
          1615.55010	         8.91065e+57
          1616.35640	         9.63463e+57
          1617.16270	         1.02242e+58
          1617.96900	         9.91713e+57
          1618.77530	         9.02684e+57
          1619.58160	         8.05026e+57
          1620.38790	         8.59963e+57
          1621.19420	         8.93748e+57
          1622.00050	         8.03371e+57
          1622.80680	         8.68582e+57
          1623.61310	         8.00670e+57
          1624.41940	         8.41206e+57
          1625.22570	         9.29196e+57
          1626.03200	         8.68683e+57
          1626.83830	         7.00120e+57
          1627.64460	         7.25837e+57
          1628.45090	         7.45741e+57
          1629.25720	         9.08498e+57
          1630.06350	         9.13191e+57
          1630.86980	         6.27076e+57
          1631.67610	         6.05495e+57
          1632.48240	         8.62941e+57
          1633.28870	         8.23036e+57
          1634.09500	         8.21441e+57
          1634.90130	         1.05018e+58
          1635.70760	         9.22451e+57
          1636.51390	         7.04341e+57
          1637.32020	         7.03943e+57
          1638.12650	         7.90088e+57
          1638.93280	         9.72859e+57
          1639.73910	         1.05974e+58
          1640.54540	         1.01652e+58
          1641.35170	         7.77812e+57
          1642.15800	         7.83323e+57
          1642.96430	         9.19896e+57
          1643.77060	         8.93779e+57
          1644.57690	         8.37007e+57
          1645.38320	         8.22208e+57
          1646.18950	         7.39873e+57
          1646.99580	         9.02696e+57
          1647.80210	         8.69879e+57
          1648.60840	         7.46346e+57
          1649.41470	         7.97296e+57
          1650.22100	         7.40093e+57
          1651.02730	         7.75671e+57
          1651.83360	         7.89977e+57
          1652.63990	         7.78147e+57
          1653.44620	         9.39200e+57
          1654.25250	         8.17223e+57
          1655.05880	         6.84175e+57
          1655.86510	         7.78709e+57
          1656.67140	         7.68496e+57
          1657.47770	         7.45489e+57
          1658.28400	         8.03365e+57
          1659.09030	         8.66488e+57
          1659.89660	         9.69490e+57
          1660.70290	         1.06334e+58
          1661.50920	         1.03655e+58
          1662.31550	         9.10811e+57
          1663.12180	         7.98835e+57
          1663.92810	         8.51468e+57
          1664.73440	         1.12318e+58
          1665.54070	         1.25958e+58
          1666.34700	         1.21381e+58
          1667.15330	         1.08030e+58
          1667.95960	         8.70357e+57
          1668.76590	         8.14501e+57
          1669.57220	         7.59929e+57
          1670.37850	         7.01860e+57
          1671.18480	         7.64446e+57
          1671.99110	         7.59236e+57
          1672.79740	         7.10283e+57
          1673.60370	         7.09443e+57
          1674.41000	         8.70408e+57
          1675.21630	         8.03691e+57
          1676.02260	         6.45893e+57
          1676.82890	         6.91429e+57
          1677.63520	         6.80509e+57
          1678.44150	         7.01437e+57
          1679.24780	         7.79391e+57
          1680.05410	         7.03299e+57
          1680.86040	         6.18107e+57
          1681.66670	         6.84146e+57
          1682.47300	         7.37190e+57
          1683.27930	         8.40583e+57
          1684.08560	         9.60389e+57
          1684.89190	         8.78642e+57
          1685.69820	         5.80241e+57
          1686.50450	         5.65549e+57
          1687.31080	         6.49642e+57
          1688.11710	         7.35259e+57
          1688.92340	         6.62740e+57
          1689.72970	         5.92109e+57
          1690.53600	         5.40731e+57
          1691.34230	         6.20442e+57
          1692.14860	         8.07013e+57
          1692.95490	         8.38149e+57
          1693.76120	         7.28885e+57
          1694.56750	         7.84975e+57
          1695.37380	         7.61079e+57
          1696.18010	         8.40310e+57
          1696.98640	         8.84362e+57
          1697.79270	         8.74216e+57
          1698.59900	         8.08626e+57
          1699.40530	         6.78124e+57
          1700.21160	         6.35083e+57
          1701.01790	         7.60667e+57
          1701.82420	         6.86061e+57
          1702.63050	         8.56954e+57
          1703.43680	         8.38382e+57
          1704.24310	         7.52149e+57
          1705.04940	         7.02448e+57
          1705.85570	         6.52684e+57
          1706.66200	         8.33251e+57
          1707.46830	         8.53604e+57
          1708.27460	         6.73575e+57
          1709.08090	         5.72653e+57
          1709.88720	         4.78520e+57
          1710.69350	         5.09359e+57
          1711.49980	         5.47798e+57
          1712.30610	         6.52977e+57
          1713.11240	         9.18875e+57
          1713.91870	         8.17947e+57
          1714.72500	         7.19713e+57
          1715.53130	         8.66485e+57
          1716.33760	         8.07370e+57
          1717.14390	         7.74873e+57
          1717.95020	         9.40023e+57
          1718.75650	         8.56592e+57
          1719.56280	         8.83773e+57
          1720.36910	         7.59814e+57
          1721.17540	         6.29363e+57
          1721.98170	         6.56465e+57
          1722.78800	         6.77269e+57
          1723.59430	         6.92448e+57
          1724.40060	         7.96971e+57
          1725.20690	         7.72580e+57
          1726.01320	         7.59757e+57
          1726.81950	         7.66502e+57
          1727.62580	         6.74363e+57
          1728.43210	         5.98797e+57
          1729.23840	         6.64601e+57
          1730.04470	         7.77226e+57
          1730.85100	         9.08588e+57
          1731.65730	         8.70940e+57
          1732.46360	         7.60026e+57
          1733.26990	         6.84449e+57
          1734.07620	         7.05065e+57
          1734.88250	         7.94057e+57
          1735.68880	         8.09966e+57
          1736.49510	         7.85574e+57
          1737.30140	         7.31068e+57
          1738.10770	         6.99007e+57
          1738.91400	         7.68806e+57
          1739.72030	         7.24287e+57
          1740.52660	         5.99515e+57
          1741.33290	         5.30573e+57
          1742.13920	         5.77342e+57
          1742.94550	         6.90883e+57
          1743.75180	         7.91752e+57
          1744.55810	         8.46198e+57
          1745.36440	         7.48458e+57
          1746.17070	         5.38109e+57
          1746.97700	         5.16309e+57
          1747.78330	         6.59261e+57
          1748.58960	         6.15546e+57
          1749.39590	         6.39469e+57
          1750.20220	         5.41862e+57
          1751.00850	         6.10966e+57
          1751.81480	         6.56191e+57
          1752.62110	         7.57459e+57
          1753.42740	         7.94583e+57
          1754.23370	         6.81084e+57
          1755.04000	         7.04210e+57
          1755.84630	         7.65211e+57
          1756.65260	         8.28140e+57
          1757.45890	         9.15038e+57
          1758.26520	         8.14374e+57
          1759.07150	         9.68979e+57
          1759.87780	         8.49661e+57
          1760.68410	         7.87187e+57
          1761.49040	         8.02400e+57
          1762.29670	         7.19644e+57
          1763.10300	         8.10286e+57
          1763.90930	         7.44520e+57
          1764.71560	         7.99716e+57
          1765.52190	         8.08903e+57
          1766.32820	         7.75258e+57
          1767.13450	         8.20566e+57
          1767.94080	         7.13098e+57
          1768.74710	         6.68365e+57
          1769.55340	         7.22199e+57
          1770.35970	         6.96713e+57
          1771.16600	         7.64183e+57
          1771.97230	         7.88500e+57
          1772.77860	         7.86427e+57
          1773.58490	         7.41179e+57
          1774.39120	         6.87808e+57
          1775.19750	         6.24488e+57
          1776.00380	         6.28202e+57
          1776.81010	         7.40924e+57
          1777.61640	         7.86575e+57
          1778.42270	         6.54094e+57
          1779.22900	         6.13074e+57
          1780.03530	         6.37784e+57
          1780.84160	         7.39999e+57
          1781.64790	         8.22908e+57
          1782.45420	         7.40570e+57
          1783.26050	         7.11853e+57
          1784.06680	         7.57105e+57
          1784.87310	         7.24108e+57
          1785.67940	         7.55201e+57
          1786.48570	         7.43499e+57
          1787.29200	         6.21124e+57
          1788.09830	         5.93720e+57
          1788.90460	         5.41070e+57
          1789.71090	         5.47306e+57
          1790.51720	         5.59139e+57
          1791.32350	         7.32454e+57
          1792.12980	         9.02694e+57
          1792.93610	         8.52638e+57
          1793.74240	         8.30392e+57
          1794.54870	         7.74526e+57
          1795.35500	         8.19239e+57
          1796.16130	         7.13091e+57
          1796.96760	         5.91843e+57
          1797.77390	         5.94559e+57
          1798.58020	         6.09261e+57
          1799.38650	         6.47248e+57
          1800.19280	         6.81855e+57
          1800.99910	         6.82832e+57
          1801.80540	         6.93438e+57
          1802.61170	         8.26998e+57
          1803.41800	         8.89233e+57
          1804.22430	         6.73728e+57
          1805.03060	         6.40052e+57
          1805.83690	         7.35442e+57
          1806.64320	         7.90475e+57
          1807.44950	         7.80834e+57
          1808.25580	         8.86924e+57
          1809.06210	         9.12895e+57
          1809.86840	         6.30491e+57
          1810.67470	         7.63868e+57
          1811.48100	         8.48893e+57
          1812.28730	         7.87285e+57
          1813.09360	         7.01769e+57
          1813.89990	         7.71764e+57
          1814.70620	         7.70648e+57
          1815.51250	         7.72530e+57
          1816.31880	         7.37305e+57
          1817.12510	         6.01377e+57
          1817.93140	         6.63927e+57
          1818.73770	         7.06316e+57
          1819.54400	         7.90545e+57
          1820.35030	         8.82705e+57
          1821.15660	         7.56976e+57
          1821.96290	         6.50242e+57
          1822.76920	         7.43896e+57
          1823.57550	         7.11870e+57
          1824.38180	         7.25005e+57
          1825.18810	         7.25560e+57
          1825.99440	         8.56789e+57
          1826.80070	         7.79668e+57
          1827.60700	         6.31644e+57
          1828.41330	         6.00875e+57
          1829.21960	         7.29515e+57
          1830.02590	         8.32364e+57
          1830.83220	         7.91952e+57
          1831.63850	         7.60427e+57
          1832.44480	         7.69724e+57
          1833.25110	         7.52363e+57
          1834.05740	         8.12759e+57
          1834.86370	         6.95939e+57
          1835.67000	         5.95975e+57
          1836.47630	         8.06296e+57
          1837.28260	         9.42027e+57
          1838.08890	         8.69741e+57
          1838.89520	         8.25892e+57
          1839.70150	         7.75933e+57
          1840.50780	         7.48952e+57
          1841.31410	         7.11503e+57
          1842.12040	         7.22640e+57
          1842.92670	         7.32436e+57
          1843.73300	         6.68221e+57
          1844.53930	         6.68430e+57
          1845.34560	         6.38332e+57
          1846.15190	         7.85039e+57
          1846.95820	         8.81611e+57
          1847.76450	         6.75365e+57
          1848.57080	         4.89334e+57
          1849.37710	         6.59595e+57
          1850.18340	         7.60219e+57
          1850.98970	         7.79105e+57
          1851.79600	         8.07172e+57
          1852.60230	         8.31073e+57
          1853.40860	         7.31636e+57
          1854.21490	         7.04503e+57
          1855.02120	         5.53851e+57
          1855.82750	         4.52272e+57
          1856.63380	         5.82326e+57
          1857.44010	         8.53321e+57
          1858.24640	         7.71042e+57
          1859.05270	         6.58435e+57
          1859.85900	         6.22165e+57
          1860.66530	         6.74343e+57
          1861.47160	         6.90458e+57
          1862.27790	         7.63882e+57
          1863.08420	         7.69610e+57
          1863.89050	         7.91969e+57
          1864.69680	         7.05233e+57
          1865.50310	         6.35434e+57
          1866.30940	         6.29959e+57
          1867.11570	         6.17894e+57
          1867.92200	         7.31485e+57
          1868.72830	         8.12336e+57
          1869.53460	         7.53630e+57
          1870.34090	         7.05499e+57
          1871.14720	         7.37249e+57
          1871.95350	         7.38384e+57
          1872.75980	         7.08816e+57
          1873.56610	         7.14863e+57
          1874.37240	         6.67970e+57
          1875.17870	         6.27971e+57
          1875.98500	         7.07721e+57
          1876.79130	         8.00369e+57
          1877.59760	         7.85214e+57
          1878.40390	         6.51979e+57
          1879.21020	         6.50587e+57
          1880.01650	         7.72947e+57
          1880.82280	         8.37352e+57
          1881.62910	         8.85136e+57
          1882.43540	         9.91299e+57
          1883.24170	         8.60097e+57
          1884.04800	         6.35922e+57
          1884.85430	         6.80568e+57
          1885.66060	         8.80194e+57
          1886.46690	         8.97963e+57
          1887.27320	         8.12996e+57
          1888.07950	         6.32306e+57
          1888.88580	         6.21669e+57
          1889.69210	         8.45143e+57
          1890.49840	         8.14533e+57
          1891.30470	         7.47198e+57
          1892.11100	         8.49661e+57
          1892.91730	         7.27656e+57
          1893.72360	         7.35297e+57
          1894.52990	         6.91183e+57
          1895.33620	         7.56261e+57
          1896.14250	         7.47374e+57
          1896.94880	         6.20920e+57
          1897.75510	         4.85364e+57
          1898.56140	         6.31462e+57
          1899.36770	         6.89425e+57
          1900.17400	         5.56113e+57
          1900.98030	         5.37165e+57
          1901.78660	         7.50573e+57
          1902.59290	         7.94943e+57
          1903.39920	         8.04557e+57
          1904.20550	         8.66879e+57
          1905.01180	         9.02259e+57
          1905.81810	         1.02786e+58
          1906.62440	         1.23436e+58
          1907.43070	         1.46267e+58
          1908.23700	         1.49229e+58
          1909.04330	         1.32171e+58
          1909.84960	         1.08240e+58
          1910.65590	         9.75653e+57
          1911.46220	         9.07859e+57
          1912.26850	         8.10153e+57
          1913.07480	         7.03823e+57
          1913.88110	         4.99670e+57
          1914.68740	         5.79898e+57
          1915.49370	         6.25147e+57
          1916.30000	         6.05358e+57
          1917.10630	         6.99241e+57
          1917.91260	         6.80163e+57
          1918.71890	         5.81056e+57
          1919.52520	         6.42441e+57
          1920.33150	         6.36853e+57
          1921.13780	         6.45512e+57
          1921.94410	         8.08641e+57
          1922.75040	         8.27081e+57
          1923.55670	         7.45173e+57
          1924.36300	         7.09860e+57
          1925.16930	         6.05230e+57
          1925.97560	         5.74400e+57
          1926.78190	         5.01292e+57
          1927.58820	         5.57680e+57
          1928.39450	         5.94036e+57
          1929.20080	         5.48315e+57
          1930.00710	         6.75079e+57
          1930.81340	         8.28439e+57
          1931.61970	         7.59587e+57
          1932.42600	         7.18446e+57
          1933.23230	         8.01947e+57
          1934.03860	         6.51590e+57
          1934.84490	         5.64645e+57
          1935.65120	         7.97132e+57
          1936.45750	         9.42482e+57
          1937.26380	         6.92797e+57
          1938.07010	         7.16259e+57
          1938.87640	         7.74160e+57
          1939.68270	         7.70034e+57
          1940.48900	         8.63261e+57
          1941.29530	         8.34148e+57
          1942.10160	         7.39297e+57
          1942.90790	         6.91652e+57
          1943.71420	         6.54518e+57
          1944.52050	         5.71989e+57
          1945.32680	         5.10547e+57
          1946.13310	         7.38167e+57
          1946.93940	         8.11514e+57
          1947.74570	         7.37103e+57
          1948.55200	         5.95186e+57
          1949.35830	         6.57469e+57
          1950.16460	         5.95883e+57
          1950.97090	         5.96325e+57
          1951.77720	         7.93803e+57
          1952.58350	         8.58926e+57
          1953.38980	         6.82051e+57
          1954.19610	         4.20093e+57
          1955.00240	         4.98114e+57
          1955.80870	         5.99613e+57
          1956.61500	         6.08229e+57
          1957.42130	         5.95337e+57
          1958.22760	         7.00959e+57
          1959.03390	         7.56818e+57
          1959.84020	         7.45289e+57
          1960.64650	         7.21567e+57
          1961.45280	         7.01729e+57
          1962.25910	         6.70346e+57
          1963.06540	         6.88241e+57
          1963.87170	         5.15335e+57
          1964.67800	         6.97814e+57
          1965.48430	         6.58207e+57
          1966.29060	         6.11812e+57
          1967.09690	         6.81036e+57
          1967.90320	         7.14170e+57
          1968.70950	         7.61852e+57
          1969.51580	         5.86582e+57
          1970.32210	         6.66917e+57
          1971.12840	         7.46621e+57
          1971.93470	         5.41048e+57
          1972.74100	         4.56583e+57
          1973.54730	         5.36134e+57
          1974.35360	         6.98897e+57
          1975.15990	         8.12627e+57
          1975.96620	         6.51238e+57
          1976.77250	         7.99495e+57
          1977.57880	         7.60131e+57
          1978.38510	         5.97612e+57
          1979.19140	         7.51897e+57
          1979.99770	         8.11104e+57
          1980.80400	         7.23577e+57
          1981.61030	         6.30903e+57
          1982.41660	         6.39676e+57
          1983.22290	         5.71492e+57
          1984.02920	         5.23458e+57
          1984.83550	         6.28297e+57
          1985.64180	         6.85606e+57
          1986.44810	         6.45689e+57
          1987.25440	         6.00462e+57
          1988.06070	         6.12606e+57
          1988.86700	         6.58731e+57
          1989.67330	         5.90327e+57
          1990.47960	         6.24728e+57
          1991.28590	         6.58370e+57
          1992.09220	         5.49230e+57
          1992.89850	         4.88444e+57
          1993.70480	         4.94646e+57
          1994.51110	         5.03402e+57
          1995.31740	         4.35651e+57
          1996.12370	         5.12868e+57
          1996.93000	         6.02377e+57
          1997.73630	         6.69218e+57
          1998.54260	         7.20922e+57
          1999.34890	         6.87492e+57
          2000.15520	         6.47888e+57
          2000.96150	         6.65793e+57
          2001.76780	         5.71675e+57
          2002.57410	         5.50264e+57
          2003.38040	         6.42276e+57
          2004.18670	         7.67253e+57
          2004.99300	         6.84417e+57
          2005.79930	         6.78318e+57
          2006.60560	         6.27433e+57
          2007.41190	         6.19423e+57
          2008.21820	         6.88195e+57
          2009.02450	         5.91909e+57
          2009.83080	         6.45014e+57
          2010.63710	         6.08342e+57
          2011.44340	         7.38028e+57
          2012.24970	         6.77842e+57
          2013.05600	         6.54971e+57
          2013.86230	         5.86868e+57
          2014.66860	         4.89661e+57
          2015.47490	         5.43381e+57
          2016.28120	         5.88452e+57
          2017.08750	         6.08037e+57
          2017.89380	         5.73259e+57
          2018.70010	         7.33098e+57
          2019.50640	         5.32505e+57
          2020.31270	         5.15648e+57
          2021.11900	         6.77773e+57
          2021.92530	         6.60034e+57
          2022.73160	         6.95665e+57
          2023.53790	         6.99096e+57
          2024.34420	         6.88843e+57
          2025.15050	         5.87566e+57
          2025.95680	         5.01150e+57
          2026.76310	         6.02284e+57
          2027.56940	         6.61849e+57
          2028.37570	         7.77847e+57
          2029.18200	         6.70465e+57
          2029.98830	         6.76808e+57
          2030.79460	         6.01505e+57
          2031.60090	         5.94445e+57
          2032.40720	         5.69335e+57
          2033.21350	         6.18830e+57
          2034.01980	         5.62827e+57
          2034.82610	         3.74704e+57
          2035.63240	         4.46430e+57
          2036.43870	         4.74685e+57
          2037.24500	         4.81027e+57
          2038.05130	         6.77418e+57
          2038.85760	         5.78826e+57
          2039.66390	         6.19907e+57
          2040.47020	         6.09902e+57
          2041.27650	         5.74378e+57
          2042.08280	         6.05087e+57
          2042.88910	         6.15559e+57
          2043.69540	         6.24598e+57
          2044.50170	         5.30597e+57
          2045.30800	         4.20718e+57
          2046.11430	         5.39154e+57
          2046.92060	         5.70767e+57
          2047.72690	         5.95740e+57
          2048.53320	         4.76578e+57
          2049.33950	         3.62441e+57
          2050.14580	         4.89782e+57
          2050.95210	         7.51425e+57
          2051.75840	         7.47158e+57
          2052.56470	         4.83191e+57
          2053.37100	         4.00882e+57
          2054.17730	         4.95570e+57
          2054.98360	         5.17080e+57
          2055.78990	         4.45099e+57
          2056.59620	         3.06608e+57
          2057.40250	         4.76215e+57
          2058.20880	         6.32886e+57
          2059.01510	         7.08446e+57
          2059.82140	         7.47593e+57
          2060.62770	         1.02298e+58
          2061.43400	         1.69834e+58
          2062.24030	         1.14054e+58
          2063.04660	         5.05516e+57
          2063.85290	         1.84546e+57
          2064.65920	        -4.73735e+57
          2065.46550	        -1.01606e+58
          2066.27180	        -8.25294e+57
          2067.07810	         1.78255e+57
          2067.88440	         6.32348e+57
          2068.69070	         5.25258e+57
          2069.49700	         4.78347e+57
          2070.30330	         4.17055e+57
          2071.10960	         6.00620e+57
          2071.91590	         6.57930e+57
          2072.72220	         3.62982e+57
          2073.52850	         4.09135e+57
          2074.33480	         3.89177e+57
          2075.14110	         4.36965e+57
          2075.94740	         4.70970e+57
          2076.75370	         4.60080e+57
          2077.56000	         4.86931e+57
          2078.36630	         4.43449e+57
          2079.17260	         5.05539e+57
          2079.97890	         5.43789e+57
          2080.78520	         4.72010e+57
          2081.59150	         4.11474e+57
          2082.39780	         3.80440e+57
          2083.20410	         2.87498e+57
          2084.01040	         2.72882e+57
          2084.81670	         1.75605e+57
          2085.62300	         2.02203e+57
          2086.42930	         3.63065e+57
          2087.23560	         3.57740e+57
          2088.04190	         3.52145e+57
          2088.84820	         4.08299e+57
          2089.65450	         2.51520e+57
          2090.46080	         2.52337e+57
          2091.26710	         3.25120e+57
          2092.07340	         2.91000e+57
          2092.87970	         3.73783e+57
          2093.68600	        -2.58213e+56
          2094.49230	         3.79652e+56
          2095.29860	         3.69690e+57
          2096.10490	         2.68934e+57
          2096.91120	         1.79027e+57
          2097.71750	         4.19324e+57
          2098.52380	         1.16084e+57
          2099.33010	         1.14278e+57
          2100.13640	         1.13538e+57
          2100.94270	         1.35949e+57
          2101.74900	         2.00474e+57
          2102.55530	         3.59402e+57
          2103.36160	         2.75966e+57
          2104.16790	         3.67163e+57
          2104.97420	         2.40394e+57
          2105.78050	         1.40460e+57
          2106.58680	         1.72372e+57
          2107.39310	         1.54009e+55
          2108.19940	        -4.69658e+56
          2109.00570	        -2.28018e+57
          2109.81200	        -4.06241e+56
          2110.61830	         1.59605e+57
          2111.42460	         1.44249e+57
          2112.23090	         1.21426e+57
          2113.03720	         1.56311e+57
          2113.84350	        -4.83633e+56
          2114.64980	         5.61342e+56
          2115.45610	        -2.44589e+57
          2116.26240	        -4.74371e+57
          2117.06870	        -3.25977e+57
          2117.87500	        -4.51264e+57
          2118.68130	         1.57946e+57
          2119.48760	         3.86153e+57
          2120.29390	         3.79217e+57
          2121.10020	        -9.97327e+56
          2121.90650	        -2.37012e+57
          2122.71280	        -1.67247e+57
          2123.51910	         4.01176e+56
          2124.32540	         7.20672e+56
          2125.13170	        -3.15550e+57
          2125.93800	         3.93472e+57
          2126.74430	        -8.30583e+57
          2127.55060	        -7.72242e+57
          2128.35690	        -5.10734e+57
          2129.16320	        -5.00949e+57
          2129.96950	        -1.10021e+57
          2130.77580	         2.29212e+57
          2131.58210	         5.98066e+55
          2132.38840	         6.28995e+56
          2133.19470	         1.88677e+57
          2134.00100	        -1.69890e+57
          2134.80730	        -5.23344e+57
          2135.61360	        -6.04423e+56
          2136.41990	         3.31448e+57
          2137.22620	         5.13139e+57
          2138.03250	         3.26935e+57
          2138.83880	        -2.13368e+57
          2139.64510	         2.06470e+56
          2140.45140	        -7.09900e+57
          2141.25770	        -9.21036e+57
          2142.06400	        -8.13246e+56
          2142.87030	         7.44154e+57
          2143.67660	         9.95837e+57
          2144.48290	         9.38608e+57
          2145.28920	         1.09475e+58
          2146.09550	        -1.44168e+57
          2146.90180	        -1.28412e+58
          2147.70810	        -7.72554e+57
          2148.51440	        -4.73569e+57
          2149.32070	        -1.01514e+58
          2150.12700	        -2.41112e+58
          2150.93330	        -3.08226e+57
          2151.73960	         7.51328e+57
          2152.54590	         3.67632e+57
          2153.35220	        -2.85014e+57
          2154.15850	        -2.83177e+57
          2154.96480	         3.71753e+57
          2155.77110	        -7.54653e+57
          2156.57740	        -5.33266e+57
          2157.38370	         2.79264e+56
          2158.19000	        -1.51001e+58
          2158.99630	        -6.79341e+57
          2159.80260	        -6.66120e+57
          2160.60890	        -3.83196e+57
          2161.41520	         2.26277e+57
          2162.22150	        -1.02112e+58
          2163.02780	         1.22000e+57
          2163.83410	         4.43255e+56
          2164.64040	        -4.46081e+57
          2165.44670	        -2.97597e+57
          2166.25300	        -7.56723e+57
          2167.05930	        -4.87787e+57
          2167.86560	        -2.97122e+57
          2168.67190	        -3.57863e+57
          2169.47820	        -1.79003e+58
          2170.28450	        -1.25074e+58
          2171.09080	        -1.03335e+57
          2171.89710	         1.81636e+57
          2172.70340	        -8.60030e+57
          2173.50970	        -9.32725e+57
          2174.31600	        -2.16445e+57
          2175.12230	        -1.12461e+57
          2175.92860	        -6.16675e+57
          2176.73490	        -1.37289e+58
          2177.54120	        -7.25685e+57
          2178.34750	        -3.86355e+56
          2179.15380	                 nan
          2179.96010	                 nan
          2180.76640	                 nan
          2181.57270	                 nan
          2182.37900	                 nan
          2183.18530	                 nan
          2183.99160	                 nan
          2184.79790	                 nan
          2185.60420	                 nan
          2186.41050	                 nan
          2187.21680	                 nan
          2188.02310	                 nan
          2188.82940	                 nan
          2189.63570	                 nan
          2190.44200	                 nan
          2191.24830	                 nan
          2192.05460	                 nan
          2192.86090	                 nan
          2193.66720	                 nan
          2194.47350	                 nan
          2195.27980	                 nan
          2196.08610	                 nan
          2196.89240	                 nan
          2197.69870	                 nan
          2198.50500	                 nan
          2199.31130	                 nan
          2200.11760	                 nan
          2200.92390	                 nan
          2201.73020	                 nan
          2202.53650	                 nan
          2203.34280	                 nan
          2204.14910	                 nan
          2204.95540	                 nan
          2205.76170	                 nan
          2206.56800	                 nan
          2207.37430	                 nan
          2208.18060	                 nan
          2208.98690	                 nan
          2209.79320	                 nan
          2210.59950	                 nan
          2211.40580	                 nan
          2212.21210	                 nan
          2213.01840	                 nan
          2213.82470	                 nan
          2214.63100	                 nan
          2215.43730	         0.00000e+00
