#sample_439_stacked_spectrum_rest_UV-bands_median_H-alpha_noDC.txt
#median Lum: 1.67723e+42
#Rest-frame wavelength (A) | Luminosity (erg/s/A)
#
          1110.00000	         0.00000e+00
          1110.80630	         1.78543e+59
          1111.61260	         2.51953e+59
          1112.41890	         1.06728e+59
          1113.22520	         5.25525e+58
          1114.03150	        -2.84180e+59
          1114.83780	         2.29403e+59
          1115.64410	         1.36231e+59
          1116.45040	         1.31048e+59
          1117.25670	         1.10457e+59
          1118.06300	         2.38799e+59
          1118.86930	         1.13198e+58
          1119.67560	         1.33409e+59
          1120.48190	        -1.35329e+58
          1121.28820	        -1.24668e+59
          1122.09450	        -1.74784e+58
          1122.90080	        -3.99009e+58
          1123.70710	         4.83387e+58
          1124.51340	         1.34644e+59
          1125.31970	        -4.54874e+58
          1126.12600	        -1.16218e+58
          1126.93230	        -3.22813e+58
          1127.73860	        -4.12982e+58
          1128.54490	         3.98353e+58
          1129.35120	         1.67589e+58
          1130.15750	        -4.15078e+58
          1130.96380	        -4.38017e+58
          1131.77010	         5.45504e+58
          1132.57640	         5.62082e+58
          1133.38270	         4.11120e+58
          1134.18900	         3.94262e+58
          1134.99530	         2.42629e+58
          1135.80160	         3.63430e+58
          1136.60790	         2.97211e+58
          1137.41420	         2.28975e+58
          1138.22050	         4.31829e+58
          1139.02680	         4.06260e+58
          1139.83310	         1.17234e+58
          1140.63940	        -1.06717e+57
          1141.44570	        -3.07103e+58
          1142.25200	        -6.64168e+57
          1143.05830	         1.78572e+58
          1143.86460	         2.34741e+58
          1144.67090	         2.26393e+58
          1145.47720	         1.46382e+58
          1146.28350	         2.35775e+58
          1147.08980	         1.98677e+58
          1147.89610	         2.57064e+58
          1148.70240	         3.06204e+58
          1149.50870	         2.24698e+58
          1150.31500	         2.07182e+58
          1151.12130	         1.52481e+58
          1151.92760	         8.74909e+57
          1152.73390	         1.13075e+58
          1153.54020	         1.66726e+57
          1154.34650	         2.38090e+58
          1155.15280	         2.22504e+58
          1155.95910	         8.99061e+57
          1156.76540	         2.39900e+57
          1157.57170	        -3.87382e+57
          1158.37800	        -8.01580e+57
          1159.18430	        -1.73685e+55
          1159.99060	         8.42765e+57
          1160.79690	         4.39700e+57
          1161.60320	         1.62436e+58
          1162.40950	         1.98754e+58
          1163.21580	         1.64553e+58
          1164.02210	         1.63460e+58
          1164.82840	        -1.91213e+57
          1165.63470	         1.18322e+58
          1166.44100	         2.25665e+58
          1167.24730	         1.14263e+58
          1168.05360	         9.18512e+57
          1168.85990	         1.23487e+58
          1169.66620	         1.06340e+58
          1170.47250	         1.07311e+58
          1171.27880	         1.24546e+58
          1172.08510	         1.56259e+58
          1172.89140	         1.32338e+58
          1173.69770	         4.09447e+57
          1174.50400	         9.08187e+57
          1175.31030	         1.24928e+58
          1176.11660	         1.17240e+58
          1176.92290	         1.17920e+58
          1177.72920	         1.09931e+58
          1178.53550	         4.39876e+57
          1179.34180	         1.59998e+56
          1180.14810	         2.09964e+57
          1180.95440	         7.35233e+57
          1181.76070	         7.78942e+57
          1182.56700	         6.28994e+57
          1183.37330	         5.89812e+57
          1184.17960	         1.40139e+58
          1184.98590	         1.74114e+58
          1185.79220	         1.20307e+58
          1186.59850	         1.80305e+58
          1187.40480	         1.09724e+58
          1188.21110	         1.31840e+58
          1189.01740	         1.15784e+58
          1189.82370	         4.80787e+57
          1190.63000	         1.37061e+58
          1191.43630	         1.43973e+58
          1192.24260	         7.34017e+57
          1193.04890	         1.13807e+58
          1193.85520	         9.64648e+57
          1194.66150	         7.13319e+57
          1195.46780	         1.17934e+58
          1196.27410	         1.91750e+58
          1197.08040	         1.24043e+58
          1197.88670	         1.19743e+58
          1198.69300	         1.59492e+58
          1199.49930	         1.50874e+58
          1200.30560	         6.75946e+57
          1201.11190	         9.14856e+57
          1201.91820	         1.15495e+58
          1202.72450	         1.03671e+58
          1203.53080	         1.56033e+58
          1204.33710	         6.06028e+57
          1205.14340	         7.79335e+57
          1205.94970	         6.09319e+57
          1206.75600	         6.88328e+57
          1207.56230	         4.63161e+57
          1208.36860	         6.18475e+57
          1209.17490	         7.98046e+57
          1209.98120	         8.67298e+57
          1210.78750	         1.04426e+58
          1211.59380	         1.31185e+58
          1212.40010	         1.59124e+58
          1213.20640	         2.12101e+58
          1214.01270	         2.37726e+58
          1214.81900	         2.81458e+58
          1215.62530	         4.47971e+58
          1216.43160	         9.09606e+58
          1217.23790	         1.51198e+59
          1218.04420	         1.11909e+59
          1218.85050	         8.25797e+58
          1219.65680	         5.65156e+58
          1220.46310	         3.17913e+58
          1221.26940	         2.19760e+58
          1222.07570	         1.60796e+58
          1222.88200	         1.38376e+58
          1223.68830	         1.17938e+58
          1224.49460	         7.59806e+57
          1225.30090	         1.63542e+57
          1226.10720	         4.42917e+57
          1226.91350	         9.59274e+57
          1227.71980	         1.15701e+58
          1228.52610	         1.31006e+58
          1229.33240	         1.03597e+58
          1230.13870	         1.04466e+58
          1230.94500	         7.74383e+57
          1231.75130	         7.51001e+57
          1232.55760	         1.01586e+58
          1233.36390	         1.00338e+58
          1234.17020	         7.84027e+57
          1234.97650	         6.90676e+57
          1235.78280	         7.96129e+57
          1236.58910	         8.21059e+57
          1237.39540	         9.35443e+57
          1238.20170	         9.30318e+57
          1239.00800	         1.02873e+58
          1239.81430	         1.16746e+58
          1240.62060	         1.15743e+58
          1241.42690	         1.26605e+58
          1242.23320	         1.29920e+58
          1243.03950	         8.85812e+57
          1243.84580	         7.89306e+57
          1244.65210	         9.60753e+57
          1245.45840	         1.15358e+58
          1246.26470	         7.13460e+57
          1247.07100	         4.70951e+57
          1247.87730	         6.72208e+57
          1248.68360	         6.16919e+57
          1249.48990	         4.17629e+57
          1250.29620	         6.24398e+57
          1251.10250	         6.46521e+57
          1251.90880	         6.08341e+57
          1252.71510	         6.32169e+57
          1253.52140	         8.18600e+57
          1254.32770	         9.29312e+57
          1255.13400	         1.35886e+58
          1255.94030	         1.30563e+58
          1256.74660	         9.70056e+57
          1257.55290	         1.05215e+58
          1258.35920	         9.40335e+57
          1259.16550	         6.04693e+57
          1259.97180	         4.46270e+57
          1260.77810	         8.23789e+57
          1261.58440	         1.00621e+58
          1262.39070	         9.28204e+57
          1263.19700	         8.55317e+57
          1264.00330	         9.09717e+57
          1264.80960	         9.75671e+57
          1265.61590	         1.24995e+58
          1266.42220	         1.21139e+58
          1267.22850	         9.36730e+57
          1268.03480	         1.32583e+58
          1268.84110	         1.53431e+58
          1269.64740	         1.46281e+58
          1270.45370	         1.31003e+58
          1271.26000	         1.04071e+58
          1272.06630	         1.06399e+58
          1272.87260	         1.04239e+58
          1273.67890	         9.70290e+57
          1274.48520	         1.10713e+58
          1275.29150	         1.21836e+58
          1276.09780	         1.07626e+58
          1276.90410	         1.33952e+58
          1277.71040	         1.42177e+58
          1278.51670	         1.22871e+58
          1279.32300	         1.38515e+58
          1280.12930	         1.28006e+58
          1280.93560	         1.13256e+58
          1281.74190	         1.22172e+58
          1282.54820	         1.30621e+58
          1283.35450	         1.13542e+58
          1284.16080	         1.05533e+58
          1284.96710	         1.34535e+58
          1285.77340	         1.14763e+58
          1286.57970	         1.17319e+58
          1287.38600	         1.58773e+58
          1288.19230	         1.84473e+58
          1288.99860	         1.60059e+58
          1289.80490	         1.06193e+58
          1290.61120	         1.06879e+58
          1291.41750	         1.31845e+58
          1292.22380	         1.10593e+58
          1293.03010	         9.57484e+57
          1293.83640	         1.17011e+58
          1294.64270	         9.78135e+57
          1295.44900	         6.57054e+57
          1296.25530	         6.87631e+57
          1297.06160	         9.48523e+57
          1297.86790	         1.15961e+58
          1298.67420	         1.04982e+58
          1299.48050	         8.44353e+57
          1300.28680	         9.56553e+57
          1301.09310	         7.62881e+57
          1301.89940	         4.07228e+57
          1302.70570	         6.35932e+57
          1303.51200	         6.97893e+57
          1304.31830	         9.01613e+57
          1305.12460	         1.18975e+58
          1305.93090	         1.18909e+58
          1306.73720	         1.20882e+58
          1307.54350	         1.31736e+58
          1308.34980	         1.38388e+58
          1309.15610	         1.52151e+58
          1309.96240	         1.62369e+58
          1310.76870	         1.35858e+58
          1311.57500	         1.23274e+58
          1312.38130	         1.30113e+58
          1313.18760	         1.43420e+58
          1313.99390	         1.59193e+58
          1314.80020	         1.81069e+58
          1315.60650	         1.64719e+58
          1316.41280	         1.32390e+58
          1317.21910	         1.18251e+58
          1318.02540	         1.27641e+58
          1318.83170	         1.29502e+58
          1319.63800	         1.19074e+58
          1320.44430	         1.16584e+58
          1321.25060	         1.25952e+58
          1322.05690	         1.25412e+58
          1322.86320	         1.23967e+58
          1323.66950	         1.18982e+58
          1324.47580	         9.69058e+57
          1325.28210	         8.59241e+57
          1326.08840	         1.04978e+58
          1326.89470	         1.29717e+58
          1327.70100	         1.19936e+58
          1328.50730	         9.32853e+57
          1329.31360	         8.77185e+57
          1330.11990	         9.44221e+57
          1330.92620	         8.48490e+57
          1331.73250	         1.02859e+58
          1332.53880	         1.10890e+58
          1333.34510	         9.90284e+57
          1334.15140	         1.02009e+58
          1334.95770	         9.28229e+57
          1335.76400	         1.09017e+58
          1336.57030	         1.24528e+58
          1337.37660	         1.16099e+58
          1338.18290	         1.11275e+58
          1338.98920	         1.27311e+58
          1339.79550	         1.11954e+58
          1340.60180	         1.08090e+58
          1341.40810	         1.22933e+58
          1342.21440	         1.18523e+58
          1343.02070	         1.19063e+58
          1343.82700	         1.34469e+58
          1344.63330	         1.33742e+58
          1345.43960	         1.37812e+58
          1346.24590	         1.17789e+58
          1347.05220	         1.01451e+58
          1347.85850	         8.70245e+57
          1348.66480	         1.12378e+58
          1349.47110	         1.26064e+58
          1350.27740	         1.23821e+58
          1351.08370	         1.22764e+58
          1351.89000	         1.04982e+58
          1352.69630	         1.11325e+58
          1353.50260	         1.18845e+58
          1354.30890	         1.22772e+58
          1355.11520	         1.30236e+58
          1355.92150	         1.11843e+58
          1356.72780	         9.47147e+57
          1357.53410	         9.23853e+57
          1358.34040	         1.13330e+58
          1359.14670	         1.05121e+58
          1359.95300	         1.00374e+58
          1360.75930	         1.13077e+58
          1361.56560	         1.19913e+58
          1362.37190	         1.20476e+58
          1363.17820	         1.05666e+58
          1363.98450	         1.22789e+58
          1364.79080	         1.31151e+58
          1365.59710	         1.16773e+58
          1366.40340	         1.09289e+58
          1367.20970	         1.00392e+58
          1368.01600	         8.92753e+57
          1368.82230	         8.58827e+57
          1369.62860	         9.84838e+57
          1370.43490	         9.34572e+57
          1371.24120	         9.23332e+57
          1372.04750	         9.24852e+57
          1372.85380	         1.13036e+58
          1373.66010	         1.14305e+58
          1374.46640	         1.06301e+58
          1375.27270	         1.03528e+58
          1376.07900	         9.34605e+57
          1376.88530	         8.99013e+57
          1377.69160	         8.23475e+57
          1378.49790	         6.82502e+57
          1379.30420	         6.85980e+57
          1380.11050	         8.51985e+57
          1380.91680	         8.44222e+57
          1381.72310	         8.01366e+57
          1382.52940	         1.00013e+58
          1383.33570	         8.79344e+57
          1384.14200	         8.05544e+57
          1384.94830	         1.07467e+58
          1385.75460	         1.17836e+58
          1386.56090	         1.11642e+58
          1387.36720	         1.13109e+58
          1388.17350	         1.19601e+58
          1388.97980	         1.04713e+58
          1389.78610	         9.31125e+57
          1390.59240	         8.16074e+57
          1391.39870	         6.91774e+57
          1392.20500	         7.67969e+57
          1393.01130	         7.88215e+57
          1393.81760	         7.29478e+57
          1394.62390	         7.64449e+57
          1395.43020	         6.89302e+57
          1396.23650	         6.17202e+57
          1397.04280	         6.67096e+57
          1397.84910	         9.44142e+57
          1398.65540	         9.43199e+57
          1399.46170	         9.42262e+57
          1400.26800	         8.90618e+57
          1401.07430	         6.77005e+57
          1401.88060	         8.22782e+57
          1402.68690	         9.50413e+57
          1403.49320	         8.59638e+57
          1404.29950	         8.64035e+57
          1405.10580	         9.61214e+57
          1405.91210	         1.05791e+58
          1406.71840	         1.15596e+58
          1407.52470	         1.10516e+58
          1408.33100	         9.93549e+57
          1409.13730	         1.15140e+58
          1409.94360	         1.25130e+58
          1410.74990	         1.17259e+58
          1411.55620	         1.10573e+58
          1412.36250	         1.01480e+58
          1413.16880	         8.85325e+57
          1413.97510	         7.48491e+57
          1414.78140	         7.40649e+57
          1415.58770	         9.24005e+57
          1416.39400	         9.67794e+57
          1417.20030	         8.99763e+57
          1418.00660	         8.13844e+57
          1418.81290	         8.14308e+57
          1419.61920	         9.62414e+57
          1420.42550	         1.14606e+58
          1421.23180	         1.19071e+58
          1422.03810	         1.33172e+58
          1422.84440	         1.18395e+58
          1423.65070	         1.24752e+58
          1424.45700	         1.04821e+58
          1425.26330	         7.03195e+57
          1426.06960	         7.58854e+57
          1426.87590	         8.95462e+57
          1427.68220	         8.90885e+57
          1428.48850	         1.09376e+58
          1429.29480	         1.04473e+58
          1430.10110	         1.02810e+58
          1430.90740	         9.07456e+57
          1431.71370	         9.40390e+57
          1432.52000	         9.21766e+57
          1433.32630	         7.82416e+57
          1434.13260	         7.91892e+57
          1434.93890	         8.43165e+57
          1435.74520	         8.66358e+57
          1436.55150	         9.18824e+57
          1437.35780	         8.69041e+57
          1438.16410	         8.92522e+57
          1438.97040	         8.74039e+57
          1439.77670	         9.07633e+57
          1440.58300	         1.01533e+58
          1441.38930	         9.27014e+57
          1442.19560	         1.01881e+58
          1443.00190	         1.05028e+58
          1443.80820	         9.84059e+57
          1444.61450	         9.03194e+57
          1445.42080	         9.03074e+57
          1446.22710	         9.52371e+57
          1447.03340	         8.92326e+57
          1447.83970	         9.30535e+57
          1448.64600	         1.00713e+58
          1449.45230	         1.00285e+58
          1450.25860	         1.04629e+58
          1451.06490	         9.63537e+57
          1451.87120	         8.00886e+57
          1452.67750	         7.40820e+57
          1453.48380	         8.29968e+57
          1454.29010	         7.06310e+57
          1455.09640	         7.08372e+57
          1455.90270	         8.63551e+57
          1456.70900	         8.45127e+57
          1457.51530	         9.13430e+57
          1458.32160	         1.10771e+58
          1459.12790	         1.18498e+58
          1459.93420	         1.10821e+58
          1460.74050	         8.66819e+57
          1461.54680	         9.17771e+57
          1462.35310	         9.76052e+57
          1463.15940	         1.03035e+58
          1463.96570	         1.13857e+58
          1464.77200	         1.15727e+58
          1465.57830	         1.00076e+58
          1466.38460	         8.10792e+57
          1467.19090	         7.69914e+57
          1467.99720	         8.74635e+57
          1468.80350	         9.08550e+57
          1469.60980	         9.52494e+57
          1470.41610	         1.00931e+58
          1471.22240	         8.94520e+57
          1472.02870	         1.00380e+58
          1472.83500	         1.10259e+58
          1473.64130	         9.97122e+57
          1474.44760	         9.26824e+57
          1475.25390	         9.23360e+57
          1476.06020	         8.34185e+57
          1476.86650	         7.93088e+57
          1477.67280	         6.97019e+57
          1478.47910	         6.78343e+57
          1479.28540	         7.43406e+57
          1480.09170	         9.10516e+57
          1480.89800	         8.91469e+57
          1481.70430	         7.97361e+57
          1482.51060	         7.39444e+57
          1483.31690	         7.29207e+57
          1484.12320	         7.44211e+57
          1484.92950	         7.90257e+57
          1485.73580	         8.25386e+57
          1486.54210	         8.39206e+57
          1487.34840	         8.97205e+57
          1488.15470	         8.17030e+57
          1488.96100	         7.63182e+57
          1489.76730	         7.51425e+57
          1490.57360	         8.25043e+57
          1491.37990	         9.06318e+57
          1492.18620	         8.51655e+57
          1492.99250	         8.31187e+57
          1493.79880	         9.04029e+57
          1494.60510	         8.58499e+57
          1495.41140	         7.99085e+57
          1496.21770	         9.32826e+57
          1497.02400	         1.15159e+58
          1497.83030	         9.34977e+57
          1498.63660	         7.15194e+57
          1499.44290	         6.49334e+57
          1500.24920	         6.84866e+57
          1501.05550	         8.00261e+57
          1501.86180	         8.77918e+57
          1502.66810	         8.38762e+57
          1503.47440	         8.37814e+57
          1504.28070	         8.57200e+57
          1505.08700	         9.13893e+57
          1505.89330	         8.21172e+57
          1506.69960	         8.19574e+57
          1507.50590	         8.66303e+57
          1508.31220	         8.38524e+57
          1509.11850	         7.82342e+57
          1509.92480	         8.96267e+57
          1510.73110	         9.00695e+57
          1511.53740	         7.69852e+57
          1512.34370	         7.84556e+57
          1513.15000	         8.51248e+57
          1513.95630	         8.75303e+57
          1514.76260	         8.57221e+57
          1515.56890	         7.59481e+57
          1516.37520	         8.30646e+57
          1517.18150	         8.31708e+57
          1517.98780	         7.30231e+57
          1518.79410	         7.32885e+57
          1519.60040	         7.89934e+57
          1520.40670	         9.45067e+57
          1521.21300	         1.00445e+58
          1522.01930	         8.13146e+57
          1522.82560	         8.68339e+57
          1523.63190	         1.00983e+58
          1524.43820	         8.48149e+57
          1525.24450	         7.20821e+57
          1526.05080	         6.52937e+57
          1526.85710	         5.75130e+57
          1527.66340	         7.05438e+57
          1528.46970	         8.39203e+57
          1529.27600	         8.48385e+57
          1530.08230	         7.74495e+57
          1530.88860	         7.15373e+57
          1531.69490	         8.11443e+57
          1532.50120	         8.87484e+57
          1533.30750	         9.52056e+57
          1534.11380	         9.14312e+57
          1534.92010	         8.52784e+57
          1535.72640	         8.60936e+57
          1536.53270	         9.67398e+57
          1537.33900	         8.67736e+57
          1538.14530	         8.41838e+57
          1538.95160	         9.13363e+57
          1539.75790	         9.76576e+57
          1540.56420	         9.44814e+57
          1541.37050	         8.78546e+57
          1542.17680	         8.88279e+57
          1542.98310	         8.56139e+57
          1543.78940	         8.43628e+57
          1544.59570	         7.41197e+57
          1545.40200	         7.36345e+57
          1546.20830	         8.52629e+57
          1547.01460	         1.01806e+58
          1547.82090	         1.16037e+58
          1548.62720	         1.25489e+58
          1549.43350	         1.18949e+58
          1550.23980	         1.13478e+58
          1551.04610	         1.22402e+58
          1551.85240	         1.22417e+58
          1552.65870	         1.10180e+58
          1553.46500	         9.99194e+57
          1554.27130	         9.11233e+57
          1555.07760	         9.19179e+57
          1555.88390	         9.14216e+57
          1556.69020	         8.70954e+57
          1557.49650	         9.02776e+57
          1558.30280	         8.72257e+57
          1559.10910	         8.83308e+57
          1559.91540	         9.10533e+57
          1560.72170	         8.12428e+57
          1561.52800	         7.93771e+57
          1562.33430	         8.20970e+57
          1563.14060	         7.71649e+57
          1563.94690	         8.05744e+57
          1564.75320	         8.36246e+57
          1565.55950	         7.53257e+57
          1566.36580	         7.77715e+57
          1567.17210	         7.98351e+57
          1567.97840	         8.26273e+57
          1568.78470	         8.83133e+57
          1569.59100	         9.19277e+57
          1570.39730	         7.46728e+57
          1571.20360	         6.28211e+57
          1572.00990	         8.32843e+57
          1572.81620	         1.00040e+58
          1573.62250	         1.03921e+58
          1574.42880	         9.08765e+57
          1575.23510	         7.60526e+57
          1576.04140	         8.72047e+57
          1576.84770	         1.02369e+58
          1577.65400	         9.99930e+57
          1578.46030	         1.03576e+58
          1579.26660	         1.02415e+58
          1580.07290	         8.34821e+57
          1580.87920	         7.25274e+57
          1581.68550	         7.44230e+57
          1582.49180	         7.60473e+57
          1583.29810	         7.83924e+57
          1584.10440	         8.86640e+57
          1584.91070	         8.53924e+57
          1585.71700	         8.82984e+57
          1586.52330	         8.98159e+57
          1587.32960	         8.00784e+57
          1588.13590	         8.28708e+57
          1588.94220	         8.11357e+57
          1589.74850	         8.99424e+57
          1590.55480	         9.60034e+57
          1591.36110	         8.58184e+57
          1592.16740	         8.40608e+57
          1592.97370	         8.59616e+57
          1593.78000	         8.66702e+57
          1594.58630	         9.41434e+57
          1595.39260	         9.37037e+57
          1596.19890	         8.43781e+57
          1597.00520	         7.89931e+57
          1597.81150	         8.36993e+57
          1598.61780	         7.77401e+57
          1599.42410	         6.41771e+57
          1600.23040	         6.28447e+57
          1601.03670	         8.06634e+57
          1601.84300	         7.66332e+57
          1602.64930	         8.52060e+57
          1603.45560	         9.18648e+57
          1604.26190	         8.18811e+57
          1605.06820	         7.87870e+57
          1605.87450	         7.50993e+57
          1606.68080	         7.59805e+57
          1607.48710	         6.58070e+57
          1608.29340	         5.55448e+57
          1609.09970	         7.00565e+57
          1609.90600	         7.86504e+57
          1610.71230	         7.12892e+57
          1611.51860	         7.36282e+57
          1612.32490	         6.29934e+57
          1613.13120	         6.74486e+57
          1613.93750	         7.28312e+57
          1614.74380	         8.24017e+57
          1615.55010	         8.12732e+57
          1616.35640	         8.75187e+57
          1617.16270	         9.75153e+57
          1617.96900	         9.88257e+57
          1618.77530	         8.19357e+57
          1619.58160	         8.94362e+57
          1620.38790	         9.09662e+57
          1621.19420	         8.88066e+57
          1622.00050	         7.41465e+57
          1622.80680	         8.37246e+57
          1623.61310	         8.75391e+57
          1624.41940	         7.69150e+57
          1625.22570	         8.13066e+57
          1626.03200	         8.80572e+57
          1626.83830	         8.14864e+57
          1627.64460	         7.15892e+57
          1628.45090	         6.11075e+57
          1629.25720	         8.04567e+57
          1630.06350	         9.27634e+57
          1630.86980	         6.54079e+57
          1631.67610	         7.07376e+57
          1632.48240	         7.70195e+57
          1633.28870	         7.45890e+57
          1634.09500	         8.77413e+57
          1634.90130	         1.08807e+58
          1635.70760	         8.72174e+57
          1636.51390	         7.30805e+57
          1637.32020	         7.23757e+57
          1638.12650	         8.30644e+57
          1638.93280	         8.76800e+57
          1639.73910	         8.88433e+57
          1640.54540	         9.40929e+57
          1641.35170	         9.61710e+57
          1642.15800	         9.59344e+57
          1642.96430	         8.75668e+57
          1643.77060	         9.23176e+57
          1644.57690	         8.72593e+57
          1645.38320	         8.10081e+57
          1646.18950	         7.25372e+57
          1646.99580	         8.91607e+57
          1647.80210	         8.76221e+57
          1648.60840	         8.13983e+57
          1649.41470	         8.59595e+57
          1650.22100	         7.81258e+57
          1651.02730	         7.32196e+57
          1651.83360	         7.53480e+57
          1652.63990	         7.65664e+57
          1653.44620	         9.09118e+57
          1654.25250	         8.07427e+57
          1655.05880	         7.24827e+57
          1655.86510	         7.91939e+57
          1656.67140	         7.67319e+57
          1657.47770	         7.34820e+57
          1658.28400	         7.25837e+57
          1659.09030	         8.54507e+57
          1659.89660	         9.26485e+57
          1660.70290	         9.31483e+57
          1661.50920	         9.50108e+57
          1662.31550	         8.52623e+57
          1663.12180	         7.98714e+57
          1663.92810	         9.88210e+57
          1664.73440	         1.12107e+58
          1665.54070	         1.27364e+58
          1666.34700	         1.25520e+58
          1667.15330	         1.07420e+58
          1667.95960	         8.80037e+57
          1668.76590	         6.91645e+57
          1669.57220	         7.48624e+57
          1670.37850	         8.42212e+57
          1671.18480	         7.22156e+57
          1671.99110	         6.90568e+57
          1672.79740	         7.66639e+57
          1673.60370	         6.86642e+57
          1674.41000	         6.96987e+57
          1675.21630	         7.78669e+57
          1676.02260	         7.01119e+57
          1676.82890	         7.65340e+57
          1677.63520	         7.87397e+57
          1678.44150	         7.18251e+57
          1679.24780	         8.21659e+57
          1680.05410	         7.06303e+57
          1680.86040	         6.34203e+57
          1681.66670	         7.39600e+57
          1682.47300	         8.31268e+57
          1683.27930	         8.84084e+57
          1684.08560	         8.93380e+57
          1684.89190	         8.61119e+57
          1685.69820	         6.96448e+57
          1686.50450	         6.28342e+57
          1687.31080	         6.96233e+57
          1688.11710	         7.74506e+57
          1688.92340	         6.70412e+57
          1689.72970	         5.94429e+57
          1690.53600	         7.33776e+57
          1691.34230	         8.81905e+57
          1692.14860	         9.29073e+57
          1692.95490	         8.44066e+57
          1693.76120	         6.89852e+57
          1694.56750	         6.71833e+57
          1695.37380	         8.87026e+57
          1696.18010	         8.85022e+57
          1696.98640	         8.51080e+57
          1697.79270	         9.10136e+57
          1698.59900	         8.04649e+57
          1699.40530	         7.10059e+57
          1700.21160	         8.09575e+57
          1701.01790	         9.15266e+57
          1701.82420	         7.94129e+57
          1702.63050	         8.20916e+57
          1703.43680	         8.49609e+57
          1704.24310	         7.64322e+57
          1705.04940	         8.08561e+57
          1705.85570	         7.75575e+57
          1706.66200	         8.33906e+57
          1707.46830	         8.34223e+57
          1708.27460	         7.71636e+57
          1709.08090	         7.16807e+57
          1709.88720	         7.50273e+57
          1710.69350	         7.18243e+57
          1711.49980	         6.58221e+57
          1712.30610	         7.99254e+57
          1713.11240	         8.37895e+57
          1713.91870	         7.61511e+57
          1714.72500	         8.10057e+57
          1715.53130	         8.31548e+57
          1716.33760	         7.60139e+57
          1717.14390	         7.04565e+57
          1717.95020	         8.15335e+57
          1718.75650	         8.30761e+57
          1719.56280	         7.95566e+57
          1720.36910	         6.85718e+57
          1721.17540	         6.80128e+57
          1721.98170	         5.88103e+57
          1722.78800	         5.90495e+57
          1723.59430	         7.19430e+57
          1724.40060	         8.56588e+57
          1725.20690	         8.37933e+57
          1726.01320	         7.50168e+57
          1726.81950	         6.53265e+57
          1727.62580	         6.57936e+57
          1728.43210	         6.26636e+57
          1729.23840	         7.09085e+57
          1730.04470	         8.44342e+57
          1730.85100	         8.40239e+57
          1731.65730	         8.02859e+57
          1732.46360	         7.93836e+57
          1733.26990	         7.67624e+57
          1734.07620	         7.23304e+57
          1734.88250	         8.03511e+57
          1735.68880	         7.85154e+57
          1736.49510	         7.52627e+57
          1737.30140	         7.40259e+57
          1738.10770	         6.69595e+57
          1738.91400	         7.41752e+57
          1739.72030	         7.47713e+57
          1740.52660	         6.12206e+57
          1741.33290	         6.55086e+57
          1742.13920	         6.89172e+57
          1742.94550	         6.94063e+57
          1743.75180	         8.31856e+57
          1744.55810	         8.51500e+57
          1745.36440	         7.77008e+57
          1746.17070	         5.01422e+57
          1746.97700	         3.81373e+57
          1747.78330	         6.36150e+57
          1748.58960	         7.25974e+57
          1749.39590	         5.99692e+57
          1750.20220	         6.04816e+57
          1751.00850	         5.98670e+57
          1751.81480	         6.96210e+57
          1752.62110	         8.03623e+57
          1753.42740	         7.85564e+57
          1754.23370	         6.31235e+57
          1755.04000	         6.96880e+57
          1755.84630	         8.00971e+57
          1756.65260	         8.87454e+57
          1757.45890	         8.51382e+57
          1758.26520	         8.68760e+57
          1759.07150	         9.78381e+57
          1759.87780	         7.98396e+57
          1760.68410	         8.01638e+57
          1761.49040	         8.84256e+57
          1762.29670	         7.30106e+57
          1763.10300	         6.94499e+57
          1763.90930	         7.39061e+57
          1764.71560	         7.57579e+57
          1765.52190	         7.82312e+57
          1766.32820	         8.67710e+57
          1767.13450	         9.30437e+57
          1767.94080	         7.94198e+57
          1768.74710	         6.96196e+57
          1769.55340	         7.01590e+57
          1770.35970	         6.72596e+57
          1771.16600	         8.01374e+57
          1771.97230	         9.33712e+57
          1772.77860	         8.61695e+57
          1773.58490	         6.93633e+57
          1774.39120	         6.22659e+57
          1775.19750	         6.54307e+57
          1776.00380	         6.77545e+57
          1776.81010	         6.55397e+57
          1777.61640	         5.85948e+57
          1778.42270	         6.30066e+57
          1779.22900	         6.62473e+57
          1780.03530	         6.51908e+57
          1780.84160	         6.81742e+57
          1781.64790	         7.79717e+57
          1782.45420	         7.07322e+57
          1783.26050	         6.67355e+57
          1784.06680	         7.03847e+57
          1784.87310	         7.74238e+57
          1785.67940	         8.02011e+57
          1786.48570	         6.92489e+57
          1787.29200	         6.17130e+57
          1788.09830	         5.82925e+57
          1788.90460	         5.00501e+57
          1789.71090	         4.59223e+57
          1790.51720	         4.63797e+57
          1791.32350	         6.92144e+57
          1792.12980	         8.29514e+57
          1792.93610	         7.50286e+57
          1793.74240	         8.28011e+57
          1794.54870	         9.45963e+57
          1795.35500	         8.74788e+57
          1796.16130	         7.16196e+57
          1796.96760	         6.71750e+57
          1797.77390	         6.50446e+57
          1798.58020	         7.39179e+57
          1799.38650	         6.92950e+57
          1800.19280	         6.59208e+57
          1800.99910	         7.63006e+57
          1801.80540	         7.97920e+57
          1802.61170	         8.83674e+57
          1803.41800	         8.28393e+57
          1804.22430	         7.18408e+57
          1805.03060	         6.83472e+57
          1805.83690	         8.14461e+57
          1806.64320	         9.43183e+57
          1807.44950	         8.02307e+57
          1808.25580	         6.67962e+57
          1809.06210	         6.81884e+57
          1809.86840	         6.87422e+57
          1810.67470	         7.69427e+57
          1811.48100	         9.04599e+57
          1812.28730	         9.79580e+57
          1813.09360	         8.49173e+57
          1813.89990	         7.63538e+57
          1814.70620	         7.78893e+57
          1815.51250	         7.45594e+57
          1816.31880	         7.38757e+57
          1817.12510	         7.76239e+57
          1817.93140	         7.02352e+57
          1818.73770	         6.84003e+57
          1819.54400	         7.90852e+57
          1820.35030	         7.12963e+57
          1821.15660	         6.22807e+57
          1821.96290	         6.57138e+57
          1822.76920	         7.21650e+57
          1823.57550	         7.75161e+57
          1824.38180	         7.35878e+57
          1825.18810	         7.65331e+57
          1825.99440	         7.85657e+57
          1826.80070	         7.74059e+57
          1827.60700	         7.39548e+57
          1828.41330	         6.44434e+57
          1829.21960	         6.66298e+57
          1830.02590	         7.10094e+57
          1830.83220	         7.21733e+57
          1831.63850	         6.74190e+57
          1832.44480	         6.10059e+57
          1833.25110	         6.56045e+57
          1834.05740	         7.80758e+57
          1834.86370	         7.30566e+57
          1835.67000	         6.24495e+57
          1836.47630	         7.25767e+57
          1837.28260	         8.16403e+57
          1838.08890	         8.18667e+57
          1838.89520	         7.94846e+57
          1839.70150	         7.78539e+57
          1840.50780	         7.52627e+57
          1841.31410	         7.07823e+57
          1842.12040	         5.83052e+57
          1842.92670	         5.85614e+57
          1843.73300	         5.98765e+57
          1844.53930	         6.06465e+57
          1845.34560	         7.23243e+57
          1846.15190	         6.81625e+57
          1846.95820	         6.60609e+57
          1847.76450	         6.66590e+57
          1848.57080	         6.14126e+57
          1849.37710	         5.55299e+57
          1850.18340	         5.87182e+57
          1850.98970	         7.06753e+57
          1851.79600	         7.22855e+57
          1852.60230	         6.98684e+57
          1853.40860	         6.74732e+57
          1854.21490	         7.18795e+57
          1855.02120	         5.99586e+57
          1855.82750	         3.87493e+57
          1856.63380	         4.97669e+57
          1857.44010	         7.35940e+57
          1858.24640	         7.59356e+57
          1859.05270	         7.35393e+57
          1859.85900	         5.19734e+57
          1860.66530	         6.12249e+57
          1861.47160	         7.12445e+57
          1862.27790	         6.56708e+57
          1863.08420	         6.14563e+57
          1863.89050	         7.59258e+57
          1864.69680	         7.66113e+57
          1865.50310	         7.56748e+57
          1866.30940	         6.77790e+57
          1867.11570	         6.59211e+57
          1867.92200	         7.42269e+57
          1868.72830	         7.33911e+57
          1869.53460	         7.75335e+57
          1870.34090	         8.31246e+57
          1871.14720	         8.18780e+57
          1871.95350	         7.31482e+57
          1872.75980	         7.45490e+57
          1873.56610	         7.03593e+57
          1874.37240	         5.21729e+57
          1875.17870	         5.52982e+57
          1875.98500	         7.03963e+57
          1876.79130	         7.41250e+57
          1877.59760	         7.02146e+57
          1878.40390	         6.21781e+57
          1879.21020	         6.52408e+57
          1880.01650	         7.22211e+57
          1880.82280	         8.21033e+57
          1881.62910	         9.28824e+57
          1882.43540	         9.70649e+57
          1883.24170	         8.39347e+57
          1884.04800	         7.83902e+57
          1884.85430	         7.80298e+57
          1885.66060	         8.14571e+57
          1886.46690	         8.68649e+57
          1887.27320	         7.76253e+57
          1888.07950	         6.43335e+57
          1888.88580	         7.06080e+57
          1889.69210	         8.88420e+57
          1890.49840	         7.69688e+57
          1891.30470	         7.72123e+57
          1892.11100	         8.54304e+57
          1892.91730	         9.07307e+57
          1893.72360	         8.52030e+57
          1894.52990	         6.78306e+57
          1895.33620	         7.19689e+57
          1896.14250	         6.58313e+57
          1896.94880	         7.25686e+57
          1897.75510	         5.07550e+57
          1898.56140	         4.92342e+57
          1899.36770	         8.27057e+57
          1900.17400	         7.99959e+57
          1900.98030	         6.59327e+57
          1901.78660	         6.56856e+57
          1902.59290	         7.41668e+57
          1903.39920	         8.79432e+57
          1904.20550	         8.26759e+57
          1905.01180	         7.78285e+57
          1905.81810	         9.18131e+57
          1906.62440	         1.18337e+58
          1907.43070	         1.49970e+58
          1908.23700	         1.62678e+58
          1909.04330	         1.25127e+58
          1909.84960	         1.05187e+58
          1910.65590	         8.77545e+57
          1911.46220	         9.20836e+57
          1912.26850	         8.20816e+57
          1913.07480	         6.77993e+57
          1913.88110	         5.39167e+57
          1914.68740	         4.60239e+57
          1915.49370	         4.85287e+57
          1916.30000	         5.66548e+57
          1917.10630	         6.76634e+57
          1917.91260	         6.39074e+57
          1918.71890	         6.07519e+57
          1919.52520	         5.82180e+57
          1920.33150	         5.37079e+57
          1921.13780	         6.77237e+57
          1921.94410	         8.00589e+57
          1922.75040	         7.29621e+57
          1923.55670	         7.32572e+57
          1924.36300	         8.67697e+57
          1925.16930	         6.18949e+57
          1925.97560	         5.22042e+57
          1926.78190	         5.50198e+57
          1927.58820	         6.24605e+57
          1928.39450	         5.41201e+57
          1929.20080	         4.91850e+57
          1930.00710	         8.20872e+57
          1930.81340	         8.70372e+57
          1931.61970	         6.86029e+57
          1932.42600	         6.28517e+57
          1933.23230	         6.73530e+57
          1934.03860	         6.30138e+57
          1934.84490	         6.47622e+57
          1935.65120	         6.95357e+57
          1936.45750	         8.44415e+57
          1937.26380	         8.14702e+57
          1938.07010	         7.65674e+57
          1938.87640	         7.69444e+57
          1939.68270	         8.57305e+57
          1940.48900	         7.95691e+57
          1941.29530	         8.43870e+57
          1942.10160	         8.49299e+57
          1942.90790	         6.82883e+57
          1943.71420	         7.00133e+57
          1944.52050	         6.38019e+57
          1945.32680	         4.83303e+57
          1946.13310	         6.88371e+57
          1946.93940	         7.89466e+57
          1947.74570	         6.82635e+57
          1948.55200	         5.80049e+57
          1949.35830	         6.38850e+57
          1950.16460	         5.22717e+57
          1950.97090	         6.16250e+57
          1951.77720	         7.57833e+57
          1952.58350	         7.51915e+57
          1953.38980	         5.83120e+57
          1954.19610	         4.09910e+57
          1955.00240	         5.41225e+57
          1955.80870	         5.97661e+57
          1956.61500	         5.86915e+57
          1957.42130	         6.89310e+57
          1958.22760	         7.60732e+57
          1959.03390	         7.11216e+57
          1959.84020	         7.48685e+57
          1960.64650	         6.92699e+57
          1961.45280	         6.23974e+57
          1962.25910	         5.23284e+57
          1963.06540	         4.97839e+57
          1963.87170	         6.50655e+57
          1964.67800	         7.51522e+57
          1965.48430	         7.29439e+57
          1966.29060	         7.44436e+57
          1967.09690	         6.66584e+57
          1967.90320	         6.35449e+57
          1968.70950	         5.53195e+57
          1969.51580	         4.98463e+57
          1970.32210	         7.31244e+57
          1971.12840	         6.47432e+57
          1971.93470	         4.79892e+57
          1972.74100	         5.38742e+57
          1973.54730	         6.52383e+57
          1974.35360	         7.14283e+57
          1975.15990	         7.64491e+57
          1975.96620	         7.47848e+57
          1976.77250	         6.35324e+57
          1977.57880	         6.31991e+57
          1978.38510	         6.27030e+57
          1979.19140	         6.29830e+57
          1979.99770	         7.10783e+57
          1980.80400	         7.36738e+57
          1981.61030	         6.66455e+57
          1982.41660	         5.98592e+57
          1983.22290	         5.35658e+57
          1984.02920	         6.15685e+57
          1984.83550	         5.84447e+57
          1985.64180	         5.57112e+57
          1986.44810	         6.26531e+57
          1987.25440	         5.38201e+57
          1988.06070	         4.07187e+57
          1988.86700	         5.82741e+57
          1989.67330	         6.50632e+57
          1990.47960	         6.16107e+57
          1991.28590	         6.30084e+57
          1992.09220	         6.07849e+57
          1992.89850	         5.33425e+57
          1993.70480	         4.41001e+57
          1994.51110	         4.60388e+57
          1995.31740	         5.29387e+57
          1996.12370	         5.43571e+57
          1996.93000	         6.42172e+57
          1997.73630	         7.78283e+57
          1998.54260	         6.62740e+57
          1999.34890	         5.80994e+57
          2000.15520	         7.15520e+57
          2000.96150	         6.60696e+57
          2001.76780	         4.37285e+57
          2002.57410	         2.44478e+57
          2003.38040	         5.19174e+57
          2004.18670	         6.40886e+57
          2004.99300	         5.66949e+57
          2005.79930	         6.97554e+57
          2006.60560	         7.47379e+57
          2007.41190	         6.73293e+57
          2008.21820	         6.82524e+57
          2009.02450	         7.40988e+57
          2009.83080	         7.32033e+57
          2010.63710	         6.57802e+57
          2011.44340	         6.49574e+57
          2012.24970	         6.96500e+57
          2013.05600	         7.56796e+57
          2013.86230	         6.79875e+57
          2014.66860	         5.72472e+57
          2015.47490	         6.10928e+57
          2016.28120	         6.25285e+57
          2017.08750	         5.62631e+57
          2017.89380	         5.97295e+57
          2018.70010	         6.28467e+57
          2019.50640	         6.31142e+57
          2020.31270	         6.78084e+57
          2021.11900	         6.71025e+57
          2021.92530	         8.38150e+57
          2022.73160	         8.01869e+57
          2023.53790	         6.41258e+57
          2024.34420	         5.82853e+57
          2025.15050	         5.75293e+57
          2025.95680	         5.99811e+57
          2026.76310	         7.44085e+57
          2027.56940	         6.58600e+57
          2028.37570	         6.81794e+57
          2029.18200	         6.30712e+57
          2029.98830	         6.45105e+57
          2030.79460	         6.87728e+57
          2031.60090	         6.18802e+57
          2032.40720	         5.51822e+57
          2033.21350	         6.03580e+57
          2034.01980	         5.30576e+57
          2034.82610	         4.57897e+57
          2035.63240	         4.55857e+57
          2036.43870	         6.45101e+57
          2037.24500	         6.97981e+57
          2038.05130	         5.84822e+57
          2038.85760	         5.60701e+57
          2039.66390	         5.18324e+57
          2040.47020	         5.27140e+57
          2041.27650	         4.99004e+57
          2042.08280	         4.12382e+57
          2042.88910	         5.26560e+57
          2043.69540	         6.06737e+57
          2044.50170	         4.82367e+57
          2045.30800	         3.84313e+57
          2046.11430	         2.99045e+57
          2046.92060	         5.84005e+57
          2047.72690	         6.83655e+57
          2048.53320	         6.19134e+57
          2049.33950	         4.47966e+57
          2050.14580	         4.89405e+57
          2050.95210	         7.05003e+57
          2051.75840	         5.39843e+57
          2052.56470	         5.95151e+57
          2053.37100	         4.08431e+57
          2054.17730	         4.03274e+57
          2054.98360	         4.28700e+57
          2055.78990	         3.23039e+57
          2056.59620	         2.37316e+57
          2057.40250	         4.42115e+57
          2058.20880	         7.23578e+57
          2059.01510	         6.18827e+57
          2059.82140	         6.11609e+57
          2060.62770	         9.41184e+57
          2061.43400	         1.61058e+58
          2062.24030	         9.90458e+57
          2063.04660	         5.77332e+57
          2063.85290	         1.41696e+57
          2064.65920	        -2.57418e+57
          2065.46550	        -9.89977e+57
          2066.27180	        -9.24026e+57
          2067.07810	         4.91068e+57
          2067.88440	         4.78421e+57
          2068.69070	         6.31303e+57
          2069.49700	         4.25421e+57
          2070.30330	         2.48782e+57
          2071.10960	         5.67688e+57
          2071.91590	         5.39501e+57
          2072.72220	         4.23142e+57
          2073.52850	         4.66647e+57
          2074.33480	         4.96035e+57
          2075.14110	         5.73276e+57
          2075.94740	         5.74306e+57
          2076.75370	         5.43987e+57
          2077.56000	         3.57805e+57
          2078.36630	         4.52056e+57
          2079.17260	         4.11913e+57
          2079.97890	         4.56634e+57
          2080.78520	         4.71357e+57
          2081.59150	         5.14488e+57
          2082.39780	         5.40812e+57
          2083.20410	         3.67541e+57
          2084.01040	         4.75442e+57
          2084.81670	         4.68355e+57
          2085.62300	         3.65414e+57
          2086.42930	         3.80005e+57
          2087.23560	         4.46229e+57
          2088.04190	         3.91266e+57
          2088.84820	         4.69484e+57
          2089.65450	         2.38635e+57
          2090.46080	         2.19056e+57
          2091.26710	         2.60583e+57
          2092.07340	         3.26350e+57
          2092.87970	         2.74813e+57
          2093.68600	        -1.26332e+57
          2094.49230	         8.53605e+56
          2095.29860	         4.54932e+57
          2096.10490	         3.61724e+57
          2096.91120	         2.65569e+57
          2097.71750	         2.55309e+57
          2098.52380	        -1.40858e+56
          2099.33010	         1.74996e+57
          2100.13640	         1.89795e+57
          2100.94270	         9.43727e+56
          2101.74900	         1.96117e+57
          2102.55530	         1.60189e+57
          2103.36160	         2.26388e+57
          2104.16790	         4.51844e+57
          2104.97420	         3.32672e+57
          2105.78050	         1.90824e+57
          2106.58680	         2.60283e+57
          2107.39310	         3.87669e+56
          2108.19940	         1.27802e+57
          2109.00570	        -1.27779e+57
          2109.81200	         1.32686e+57
          2110.61830	         3.35197e+57
          2111.42460	         3.08266e+57
          2112.23090	         1.32108e+57
          2113.03720	         1.88029e+56
          2113.84350	        -2.08246e+57
          2114.64980	         1.75869e+57
          2115.45610	         3.06312e+56
          2116.26240	        -1.08399e+57
          2117.06870	        -1.11951e+57
          2117.87500	        -1.89383e+57
          2118.68130	        -2.43934e+56
          2119.48760	         2.00577e+57
          2120.29390	         2.78423e+57
          2121.10020	        -1.94537e+57
          2121.90650	        -2.34499e+57
          2122.71280	         1.31289e+57
          2123.51910	         4.84067e+57
          2124.32540	         2.20265e+56
          2125.13170	        -3.80606e+57
          2125.93800	        -2.07229e+57
          2126.74430	        -3.17833e+57
          2127.55060	        -9.38457e+57
          2128.35690	        -5.70162e+57
          2129.16320	         3.13504e+57
          2129.96950	        -4.53638e+57
          2130.77580	        -5.26720e+57
          2131.58210	         2.47333e+57
          2132.38840	        -1.21393e+57
          2133.19470	        -4.43709e+57
          2134.00100	        -1.98354e+57
          2134.80730	        -8.37192e+57
          2135.61360	         2.74599e+57
          2136.41990	         7.15897e+57
          2137.22620	         7.26043e+57
          2138.03250	         8.87418e+57
          2138.83880	        -6.91004e+57
          2139.64510	        -5.94389e+57
          2140.45140	        -6.28170e+57
          2141.25770	        -8.23185e+57
          2142.06400	        -3.92121e+57
          2142.87030	         4.60150e+57
          2143.67660	        -6.97327e+57
          2144.48290	         2.45683e+57
          2145.28920	         1.42511e+58
          2146.09550	        -2.25679e+57
          2146.90180	        -6.76270e+57
          2147.70810	        -4.15644e+57
          2148.51440	        -1.71136e+58
          2149.32070	        -6.68620e+57
          2150.12700	        -5.45361e+57
          2150.93330	        -3.43616e+57
          2151.73960	        -2.38578e+57
          2152.54590	        -6.31616e+57
          2153.35220	        -1.00748e+57
          2154.15850	         6.62423e+57
          2154.96480	        -3.39190e+57
          2155.77110	        -5.63027e+57
          2156.57740	        -1.52823e+58
          2157.38370	        -7.42782e+57
          2158.19000	        -2.48576e+57
          2158.99630	        -4.89869e+57
          2159.80260	        -1.13116e+58
          2160.60890	         1.78969e+57
          2161.41520	        -1.63983e+57
          2162.22150	        -2.24265e+57
          2163.02780	        -4.62069e+57
          2163.83410	        -9.30815e+57
          2164.64040	        -9.39096e+57
          2165.44670	        -1.07239e+58
          2166.25300	        -1.57105e+58
          2167.05930	        -3.56516e+57
          2167.86560	        -9.21904e+57
          2168.67190	        -8.87031e+57
          2169.47820	        -9.71256e+57
          2170.28450	        -9.02923e+57
          2171.09080	        -5.59857e+57
          2171.89710	        -3.05212e+57
          2172.70340	        -5.93080e+57
          2173.50970	        -2.92777e+57
          2174.31600	        -4.50093e+56
          2175.12230	         1.90238e+56
          2175.92860	        -1.29349e+57
          2176.73490	        -4.16769e+57
          2177.54120	        -8.91353e+57
          2178.34750	        -4.84500e+57
          2179.15380	                 nan
          2179.96010	                 nan
          2180.76640	                 nan
          2181.57270	                 nan
          2182.37900	                 nan
          2183.18530	                 nan
          2183.99160	                 nan
          2184.79790	                 nan
          2185.60420	                 nan
          2186.41050	                 nan
          2187.21680	                 nan
          2188.02310	                 nan
          2188.82940	                 nan
          2189.63570	                 nan
          2190.44200	                 nan
          2191.24830	                 nan
          2192.05460	                 nan
          2192.86090	                 nan
          2193.66720	                 nan
          2194.47350	                 nan
          2195.27980	                 nan
          2196.08610	                 nan
          2196.89240	                 nan
          2197.69870	                 nan
          2198.50500	                 nan
          2199.31130	                 nan
          2200.11760	                 nan
          2200.92390	                 nan
          2201.73020	                 nan
          2202.53650	                 nan
          2203.34280	                 nan
          2204.14910	                 nan
          2204.95540	                 nan
          2205.76170	                 nan
          2206.56800	                 nan
          2207.37430	                 nan
          2208.18060	                 nan
          2208.98690	                 nan
          2209.79320	                 nan
          2210.59950	                 nan
          2211.40580	                 nan
          2212.21210	                 nan
          2213.01840	                 nan
          2213.82470	                 nan
          2214.63100	                 nan
          2215.43730	         0.00000e+00
