#sample_104_stacked_spectrum_rest_UV-bands_median_H-alpha_noDC.txt
#median Lum: 1.68371e+42
#Rest-frame wavelength (A) | Luminosity (erg/s/A)
#
          1110.00000	         0.00000e+00
          1110.80630	         1.75161e+59
          1111.61260	         1.88015e+59
          1112.41890	         1.77336e+59
          1113.22520	         6.79398e+56
          1114.03150	        -2.42383e+59
          1114.83780	         1.61595e+59
          1115.64410	         1.74859e+59
          1116.45040	         1.45594e+59
          1117.25670	        -6.27119e+58
          1118.06300	         3.32186e+58
          1118.86930	         1.30123e+59
          1119.67560	         1.09303e+59
          1120.48190	         3.51067e+58
          1121.28820	        -5.54710e+58
          1122.09450	         2.12476e+58
          1122.90080	         8.66673e+58
          1123.70710	         1.14711e+59
          1124.51340	         6.04173e+58
          1125.31970	         5.03326e+58
          1126.12600	        -8.27489e+56
          1126.93230	        -3.67964e+58
          1127.73860	         2.51536e+58
          1128.54490	         3.74511e+58
          1129.35120	         3.46607e+58
          1130.15750	         9.77148e+57
          1130.96380	        -8.56980e+57
          1131.77010	         2.45904e+58
          1132.57640	         4.67529e+58
          1133.38270	         3.88440e+58
          1134.18900	         1.30941e+58
          1134.99530	         1.91652e+58
          1135.80160	         3.74764e+58
          1136.60790	         3.14854e+58
          1137.41420	        -2.16985e+57
          1138.22050	         3.71603e+58
          1139.02680	         3.91561e+58
          1139.83310	         2.85937e+58
          1140.63940	         1.25481e+58
          1141.44570	        -1.45995e+58
          1142.25200	         1.27080e+57
          1143.05830	         1.66857e+58
          1143.86460	         1.73063e+58
          1144.67090	         1.94970e+58
          1145.47720	         1.45785e+58
          1146.28350	         7.55609e+57
          1147.08980	         1.55810e+58
          1147.89610	         1.72051e+58
          1148.70240	         2.81100e+58
          1149.50870	         2.06924e+58
          1150.31500	         1.48732e+58
          1151.12130	         6.85874e+57
          1151.92760	         9.51880e+57
          1152.73390	         1.13954e+58
          1153.54020	         1.34655e+58
          1154.34650	         1.72385e+58
          1155.15280	         1.46827e+58
          1155.95910	         1.58185e+58
          1156.76540	         1.81380e+58
          1157.57170	         9.51646e+57
          1158.37800	        -4.11431e+57
          1159.18430	         1.21679e+57
          1159.99060	         5.25097e+57
          1160.79690	         1.45561e+58
          1161.60320	         1.25322e+58
          1162.40950	         1.38297e+58
          1163.21580	         1.74307e+58
          1164.02210	         1.15640e+58
          1164.82840	         8.11145e+57
          1165.63470	         2.33969e+58
          1166.44100	         3.01662e+58
          1167.24730	         2.15342e+58
          1168.05360	         1.37203e+57
          1168.85990	         1.05623e+58
          1169.66620	         8.74769e+57
          1170.47250	         1.45171e+58
          1171.27880	         1.71946e+58
          1172.08510	         1.92805e+58
          1172.89140	         1.14311e+58
          1173.69770	         1.58020e+58
          1174.50400	         1.75778e+58
          1175.31030	         1.49025e+58
          1176.11660	         1.58460e+58
          1176.92290	         1.71564e+58
          1177.72920	         1.21063e+58
          1178.53550	         4.18384e+57
          1179.34180	         1.90452e+57
          1180.14810	         9.65604e+57
          1180.95440	         1.17561e+58
          1181.76070	         8.12004e+57
          1182.56700	         4.41453e+57
          1183.37330	         4.62285e+57
          1184.17960	         1.25581e+58
          1184.98590	         1.91371e+58
          1185.79220	         1.10820e+58
          1186.59850	         6.43929e+57
          1187.40480	         6.20273e+57
          1188.21110	         1.71216e+58
          1189.01740	         8.30007e+57
          1189.82370	         7.59211e+57
          1190.63000	         8.32999e+57
          1191.43630	         1.03861e+58
          1192.24260	         7.29165e+57
          1193.04890	         1.21044e+58
          1193.85520	         1.55296e+58
          1194.66150	         2.75070e+57
          1195.46780	         4.98675e+57
          1196.27410	         1.97523e+58
          1197.08040	         7.60411e+57
          1197.88670	         1.02951e+58
          1198.69300	         1.33165e+58
          1199.49930	         1.26586e+58
          1200.30560	         7.67826e+57
          1201.11190	         7.61624e+57
          1201.91820	         9.03065e+57
          1202.72450	         5.23312e+57
          1203.53080	         9.45146e+57
          1204.33710	         7.09600e+57
          1205.14340	         4.70074e+57
          1205.94970	         5.44684e+57
          1206.75600	         4.86030e+57
          1207.56230	         1.90996e+57
          1208.36860	         8.18893e+57
          1209.17490	         4.33366e+57
          1209.98120	         3.98689e+57
          1210.78750	         6.73774e+57
          1211.59380	         1.37662e+58
          1212.40010	         1.66061e+58
          1213.20640	         1.88628e+58
          1214.01270	         1.85828e+58
          1214.81900	         2.66878e+58
          1215.62530	         4.64685e+58
          1216.43160	         8.88371e+58
          1217.23790	         1.47952e+59
          1218.04420	         1.09355e+59
          1218.85050	         8.61450e+58
          1219.65680	         5.41218e+58
          1220.46310	         3.30378e+58
          1221.26940	         2.07835e+58
          1222.07570	         8.66645e+57
          1222.88200	         7.43918e+57
          1223.68830	         1.00304e+58
          1224.49460	         7.21842e+57
          1225.30090	         3.91296e+57
          1226.10720	         6.28084e+57
          1226.91350	         7.86887e+57
          1227.71980	         9.32498e+57
          1228.52610	         1.31492e+58
          1229.33240	         9.85442e+57
          1230.13870	         9.31030e+57
          1230.94500	         6.43474e+57
          1231.75130	         4.35107e+57
          1232.55760	         7.67282e+57
          1233.36390	         8.83706e+57
          1234.17020	         8.04394e+57
          1234.97650	         7.25793e+57
          1235.78280	         7.76439e+57
          1236.58910	         8.11376e+57
          1237.39540	         1.02375e+58
          1238.20170	         1.13391e+58
          1239.00800	         1.37585e+58
          1239.81430	         1.48200e+58
          1240.62060	         9.03742e+57
          1241.42690	         1.03798e+58
          1242.23320	         1.31686e+58
          1243.03950	         7.53079e+57
          1243.84580	         6.45900e+57
          1244.65210	         8.13764e+57
          1245.45840	         1.05323e+58
          1246.26470	         1.26002e+58
          1247.07100	         1.05171e+58
          1247.87730	         7.81994e+57
          1248.68360	         3.23756e+57
          1249.48990	         8.73131e+57
          1250.29620	         1.27937e+58
          1251.10250	         1.08780e+58
          1251.90880	         5.53670e+57
          1252.71510	         5.11309e+57
          1253.52140	         7.34076e+57
          1254.32770	         9.35085e+57
          1255.13400	         1.28867e+58
          1255.94030	         1.29817e+58
          1256.74660	         9.54217e+57
          1257.55290	         9.49099e+57
          1258.35920	         7.66825e+57
          1259.16550	         4.98402e+57
          1259.97180	         4.37141e+57
          1260.77810	         7.91601e+57
          1261.58440	         1.11209e+58
          1262.39070	         8.76545e+57
          1263.19700	         7.75653e+57
          1264.00330	         8.55637e+57
          1264.80960	         1.15153e+58
          1265.61590	         1.30634e+58
          1266.42220	         1.28877e+58
          1267.22850	         1.19712e+58
          1268.03480	         1.44870e+58
          1268.84110	         1.36607e+58
          1269.64740	         1.26450e+58
          1270.45370	         1.43907e+58
          1271.26000	         1.28946e+58
          1272.06630	         1.21408e+58
          1272.87260	         1.30498e+58
          1273.67890	         1.39819e+58
          1274.48520	         1.16580e+58
          1275.29150	         1.08344e+58
          1276.09780	         8.86261e+57
          1276.90410	         1.24628e+58
          1277.71040	         1.29272e+58
          1278.51670	         1.14709e+58
          1279.32300	         1.26134e+58
          1280.12930	         1.17975e+58
          1280.93560	         1.12819e+58
          1281.74190	         1.25640e+58
          1282.54820	         1.25569e+58
          1283.35450	         1.07149e+58
          1284.16080	         1.07276e+58
          1284.96710	         1.47639e+58
          1285.77340	         1.29450e+58
          1286.57970	         1.03156e+58
          1287.38600	         1.63820e+58
          1288.19230	         1.92749e+58
          1288.99860	         1.47637e+58
          1289.80490	         9.92897e+57
          1290.61120	         1.15903e+58
          1291.41750	         1.17043e+58
          1292.22380	         1.08954e+58
          1293.03010	         1.25681e+58
          1293.83640	         1.29971e+58
          1294.64270	         1.06189e+58
          1295.44900	         6.92124e+57
          1296.25530	         7.12496e+57
          1297.06160	         9.30068e+57
          1297.86790	         9.22413e+57
          1298.67420	         8.54175e+57
          1299.48050	         8.51387e+57
          1300.28680	         1.00634e+58
          1301.09310	         7.90925e+57
          1301.89940	         2.88886e+57
          1302.70570	         5.30818e+57
          1303.51200	         8.08527e+57
          1304.31830	         9.92822e+57
          1305.12460	         1.04865e+58
          1305.93090	         1.04058e+58
          1306.73720	         1.19908e+58
          1307.54350	         1.43029e+58
          1308.34980	         1.54243e+58
          1309.15610	         1.63493e+58
          1309.96240	         1.49906e+58
          1310.76870	         1.35267e+58
          1311.57500	         1.51825e+58
          1312.38130	         1.40478e+58
          1313.18760	         1.20360e+58
          1313.99390	         1.56478e+58
          1314.80020	         1.50923e+58
          1315.60650	         1.26932e+58
          1316.41280	         1.39700e+58
          1317.21910	         1.27911e+58
          1318.02540	         1.39410e+58
          1318.83170	         1.36735e+58
          1319.63800	         1.16419e+58
          1320.44430	         1.03185e+58
          1321.25060	         1.21050e+58
          1322.05690	         1.31011e+58
          1322.86320	         1.20679e+58
          1323.66950	         1.06969e+58
          1324.47580	         9.75357e+57
          1325.28210	         1.08315e+58
          1326.08840	         1.28240e+58
          1326.89470	         1.38316e+58
          1327.70100	         1.09164e+58
          1328.50730	         8.27861e+57
          1329.31360	         1.17234e+58
          1330.11990	         1.11415e+58
          1330.92620	         8.87079e+57
          1331.73250	         1.05125e+58
          1332.53880	         1.00993e+58
          1333.34510	         7.72317e+57
          1334.15140	         7.35138e+57
          1334.95770	         7.90300e+57
          1335.76400	         9.50521e+57
          1336.57030	         1.06590e+58
          1337.37660	         1.06309e+58
          1338.18290	         1.02723e+58
          1338.98920	         1.05811e+58
          1339.79550	         1.17367e+58
          1340.60180	         1.13349e+58
          1341.40810	         1.24809e+58
          1342.21440	         1.16332e+58
          1343.02070	         1.14648e+58
          1343.82700	         1.34425e+58
          1344.63330	         1.29683e+58
          1345.43960	         1.31413e+58
          1346.24590	         9.92436e+57
          1347.05220	         1.09919e+58
          1347.85850	         1.08344e+58
          1348.66480	         1.21817e+58
          1349.47110	         1.20048e+58
          1350.27740	         9.31166e+57
          1351.08370	         1.00789e+58
          1351.89000	         1.03213e+58
          1352.69630	         9.56962e+57
          1353.50260	         1.07482e+58
          1354.30890	         1.18644e+58
          1355.11520	         1.10853e+58
          1355.92150	         1.04539e+58
          1356.72780	         9.75560e+57
          1357.53410	         1.02155e+58
          1358.34040	         1.12812e+58
          1359.14670	         9.82042e+57
          1359.95300	         1.08643e+58
          1360.75930	         1.12221e+58
          1361.56560	         1.03717e+58
          1362.37190	         1.22610e+58
          1363.17820	         1.22065e+58
          1363.98450	         1.25010e+58
          1364.79080	         1.10563e+58
          1365.59710	         1.09149e+58
          1366.40340	         1.19696e+58
          1367.20970	         1.05371e+58
          1368.01600	         1.05111e+58
          1368.82230	         9.76251e+57
          1369.62860	         1.00472e+58
          1370.43490	         9.46374e+57
          1371.24120	         9.05208e+57
          1372.04750	         8.66192e+57
          1372.85380	         1.14514e+58
          1373.66010	         1.09901e+58
          1374.46640	         1.04158e+58
          1375.27270	         1.09883e+58
          1376.07900	         1.04012e+58
          1376.88530	         8.82958e+57
          1377.69160	         8.35292e+57
          1378.49790	         7.19137e+57
          1379.30420	         7.62164e+57
          1380.11050	         8.88270e+57
          1380.91680	         8.17477e+57
          1381.72310	         8.34679e+57
          1382.52940	         9.30997e+57
          1383.33570	         8.52734e+57
          1384.14200	         8.28546e+57
          1384.94830	         8.76822e+57
          1385.75460	         9.88127e+57
          1386.56090	         1.10122e+58
          1387.36720	         1.05831e+58
          1388.17350	         1.29936e+58
          1388.97980	         1.06956e+58
          1389.78610	         8.92604e+57
          1390.59240	         8.11811e+57
          1391.39870	         5.78303e+57
          1392.20500	         7.12656e+57
          1393.01130	         7.77558e+57
          1393.81760	         8.08764e+57
          1394.62390	         7.76976e+57
          1395.43020	         6.53424e+57
          1396.23650	         6.75102e+57
          1397.04280	         6.17790e+57
          1397.84910	         8.13364e+57
          1398.65540	         9.47134e+57
          1399.46170	         1.01780e+58
          1400.26800	         8.24093e+57
          1401.07430	         6.74880e+57
          1401.88060	         7.77401e+57
          1402.68690	         9.49425e+57
          1403.49320	         9.38001e+57
          1404.29950	         8.01961e+57
          1405.10580	         1.00703e+58
          1405.91210	         1.15911e+58
          1406.71840	         9.92283e+57
          1407.52470	         9.66673e+57
          1408.33100	         1.04379e+58
          1409.13730	         1.17382e+58
          1409.94360	         1.23032e+58
          1410.74990	         1.27983e+58
          1411.55620	         1.15324e+58
          1412.36250	         9.12360e+57
          1413.16880	         9.17529e+57
          1413.97510	         8.99595e+57
          1414.78140	         8.67995e+57
          1415.58770	         1.02344e+58
          1416.39400	         1.05110e+58
          1417.20030	         1.00155e+58
          1418.00660	         9.42359e+57
          1418.81290	         1.14336e+58
          1419.61920	         1.13283e+58
          1420.42550	         1.15135e+58
          1421.23180	         1.38312e+58
          1422.03810	         1.45141e+58
          1422.84440	         1.23156e+58
          1423.65070	         1.07864e+58
          1424.45700	         1.07994e+58
          1425.26330	         8.35788e+57
          1426.06960	         8.93645e+57
          1426.87590	         1.03240e+58
          1427.68220	         9.46237e+57
          1428.48850	         1.04080e+58
          1429.29480	         1.05587e+58
          1430.10110	         9.29491e+57
          1430.90740	         9.14999e+57
          1431.71370	         9.42229e+57
          1432.52000	         9.00449e+57
          1433.32630	         7.44397e+57
          1434.13260	         7.00936e+57
          1434.93890	         6.74715e+57
          1435.74520	         7.83855e+57
          1436.55150	         8.29320e+57
          1437.35780	         8.03236e+57
          1438.16410	         9.45423e+57
          1438.97040	         9.64890e+57
          1439.77670	         9.57013e+57
          1440.58300	         9.81381e+57
          1441.38930	         9.70562e+57
          1442.19560	         9.53388e+57
          1443.00190	         8.87996e+57
          1443.80820	         1.12153e+58
          1444.61450	         9.69837e+57
          1445.42080	         7.43006e+57
          1446.22710	         9.79773e+57
          1447.03340	         8.95191e+57
          1447.83970	         9.70096e+57
          1448.64600	         1.05431e+58
          1449.45230	         9.88899e+57
          1450.25860	         8.66041e+57
          1451.06490	         7.60628e+57
          1451.87120	         7.22486e+57
          1452.67750	         7.05340e+57
          1453.48380	         8.08742e+57
          1454.29010	         7.62207e+57
          1455.09640	         6.94450e+57
          1455.90270	         8.76829e+57
          1456.70900	         9.12553e+57
          1457.51530	         1.02674e+58
          1458.32160	         1.22303e+58
          1459.12790	         1.08585e+58
          1459.93420	         9.17635e+57
          1460.74050	         7.06997e+57
          1461.54680	         8.36247e+57
          1462.35310	         8.20950e+57
          1463.15940	         8.19665e+57
          1463.96570	         1.10110e+58
          1464.77200	         1.20118e+58
          1465.57830	         1.08084e+58
          1466.38460	         9.23146e+57
          1467.19090	         8.03257e+57
          1467.99720	         8.98029e+57
          1468.80350	         8.91224e+57
          1469.60980	         9.21034e+57
          1470.41610	         1.04871e+58
          1471.22240	         9.94261e+57
          1472.02870	         9.60157e+57
          1472.83500	         1.03126e+58
          1473.64130	         1.03844e+58
          1474.44760	         9.15077e+57
          1475.25390	         9.17178e+57
          1476.06020	         8.66726e+57
          1476.86650	         9.14793e+57
          1477.67280	         8.44669e+57
          1478.47910	         7.15627e+57
          1479.28540	         7.11515e+57
          1480.09170	         7.50325e+57
          1480.89800	         8.25327e+57
          1481.70430	         9.60310e+57
          1482.51060	         9.17083e+57
          1483.31690	         7.66693e+57
          1484.12320	         7.12068e+57
          1484.92950	         7.43923e+57
          1485.73580	         8.26198e+57
          1486.54210	         9.13621e+57
          1487.34840	         8.67590e+57
          1488.15470	         7.57245e+57
          1488.96100	         9.17155e+57
          1489.76730	         8.79572e+57
          1490.57360	         7.79839e+57
          1491.37990	         6.73486e+57
          1492.18620	         8.23622e+57
          1492.99250	         8.72541e+57
          1493.79880	         9.08092e+57
          1494.60510	         9.03645e+57
          1495.41140	         7.06241e+57
          1496.21770	         8.08672e+57
          1497.02400	         1.01276e+58
          1497.83030	         9.25673e+57
          1498.63660	         7.63842e+57
          1499.44290	         7.05238e+57
          1500.24920	         6.94763e+57
          1501.05550	         8.03559e+57
          1501.86180	         8.16058e+57
          1502.66810	         9.75599e+57
          1503.47440	         9.44450e+57
          1504.28070	         8.10597e+57
          1505.08700	         8.90211e+57
          1505.89330	         9.27806e+57
          1506.69960	         7.86641e+57
          1507.50590	         7.89481e+57
          1508.31220	         8.29156e+57
          1509.11850	         8.49958e+57
          1509.92480	         8.26135e+57
          1510.73110	         8.21860e+57
          1511.53740	         7.92431e+57
          1512.34370	         7.64471e+57
          1513.15000	         9.18952e+57
          1513.95630	         9.68020e+57
          1514.76260	         8.95996e+57
          1515.56890	         8.77291e+57
          1516.37520	         8.93501e+57
          1517.18150	         8.85447e+57
          1517.98780	         7.75220e+57
          1518.79410	         7.15101e+57
          1519.60040	         7.85466e+57
          1520.40670	         8.92691e+57
          1521.21300	         9.15386e+57
          1522.01930	         8.15255e+57
          1522.82560	         8.58957e+57
          1523.63190	         1.04440e+58
          1524.43820	         9.23170e+57
          1525.24450	         6.73860e+57
          1526.05080	         5.71518e+57
          1526.85710	         5.62259e+57
          1527.66340	         6.23225e+57
          1528.46970	         7.56973e+57
          1529.27600	         8.19912e+57
          1530.08230	         7.46575e+57
          1530.88860	         7.97177e+57
          1531.69490	         8.37019e+57
          1532.50120	         8.95222e+57
          1533.30750	         9.30790e+57
          1534.11380	         1.02036e+58
          1534.92010	         8.87986e+57
          1535.72640	         8.58237e+57
          1536.53270	         8.39016e+57
          1537.33900	         7.16163e+57
          1538.14530	         8.39769e+57
          1538.95160	         9.04869e+57
          1539.75790	         8.41636e+57
          1540.56420	         8.65286e+57
          1541.37050	         8.68329e+57
          1542.17680	         7.95892e+57
          1542.98310	         7.75426e+57
          1543.78940	         6.83193e+57
          1544.59570	         6.42540e+57
          1545.40200	         7.37950e+57
          1546.20830	         8.36665e+57
          1547.01460	         1.03027e+58
          1547.82090	         1.19334e+58
          1548.62720	         1.24620e+58
          1549.43350	         1.15874e+58
          1550.23980	         1.13318e+58
          1551.04610	         1.24659e+58
          1551.85240	         1.29602e+58
          1552.65870	         1.13535e+58
          1553.46500	         1.03492e+58
          1554.27130	         1.04708e+58
          1555.07760	         1.00178e+58
          1555.88390	         8.18172e+57
          1556.69020	         8.47013e+57
          1557.49650	         8.71293e+57
          1558.30280	         7.62258e+57
          1559.10910	         8.16765e+57
          1559.91540	         9.03280e+57
          1560.72170	         8.39729e+57
          1561.52800	         8.15270e+57
          1562.33430	         8.85268e+57
          1563.14060	         8.36295e+57
          1563.94690	         7.95633e+57
          1564.75320	         7.31757e+57
          1565.55950	         6.53327e+57
          1566.36580	         7.53222e+57
          1567.17210	         8.53322e+57
          1567.97840	         9.37326e+57
          1568.78470	         8.75388e+57
          1569.59100	         9.50006e+57
          1570.39730	         8.57137e+57
          1571.20360	         6.88965e+57
          1572.00990	         7.69223e+57
          1572.81620	         8.26320e+57
          1573.62250	         9.21655e+57
          1574.42880	         9.08445e+57
          1575.23510	         7.78925e+57
          1576.04140	         8.46184e+57
          1576.84770	         9.27712e+57
          1577.65400	         8.54701e+57
          1578.46030	         9.15198e+57
          1579.26660	         9.99604e+57
          1580.07290	         8.91011e+57
          1580.87920	         7.12531e+57
          1581.68550	         7.27464e+57
          1582.49180	         8.25595e+57
          1583.29810	         8.25202e+57
          1584.10440	         9.03493e+57
          1584.91070	         8.75247e+57
          1585.71700	         8.50356e+57
          1586.52330	         8.68405e+57
          1587.32960	         8.54267e+57
          1588.13590	         9.10265e+57
          1588.94220	         9.00531e+57
          1589.74850	         8.59888e+57
          1590.55480	         8.46328e+57
          1591.36110	         7.80825e+57
          1592.16740	         7.69100e+57
          1592.97370	         7.90629e+57
          1593.78000	         8.18011e+57
          1594.58630	         9.44123e+57
          1595.39260	         9.04516e+57
          1596.19890	         8.69198e+57
          1597.00520	         9.18336e+57
          1597.81150	         8.56842e+57
          1598.61780	         7.55438e+57
          1599.42410	         7.53111e+57
          1600.23040	         6.79538e+57
          1601.03670	         7.14046e+57
          1601.84300	         6.37855e+57
          1602.64930	         7.09336e+57
          1603.45560	         8.81634e+57
          1604.26190	         7.82933e+57
          1605.06820	         7.03752e+57
          1605.87450	         6.62430e+57
          1606.68080	         6.96539e+57
          1607.48710	         6.68690e+57
          1608.29340	         6.40367e+57
          1609.09970	         6.83379e+57
          1609.90600	         6.89616e+57
          1610.71230	         6.67624e+57
          1611.51860	         7.62839e+57
          1612.32490	         7.18617e+57
          1613.13120	         6.94934e+57
          1613.93750	         7.47399e+57
          1614.74380	         7.90332e+57
          1615.55010	         9.16813e+57
          1616.35640	         9.04155e+57
          1617.16270	         9.45896e+57
          1617.96900	         9.56795e+57
          1618.77530	         8.27541e+57
          1619.58160	         8.02282e+57
          1620.38790	         8.12071e+57
          1621.19420	         9.19071e+57
          1622.00050	         8.13945e+57
          1622.80680	         8.83213e+57
          1623.61310	         8.15544e+57
          1624.41940	         7.86580e+57
          1625.22570	         8.95331e+57
          1626.03200	         9.63728e+57
          1626.83830	         9.43057e+57
          1627.64460	         7.83913e+57
          1628.45090	         6.71031e+57
          1629.25720	         7.93130e+57
          1630.06350	         9.09062e+57
          1630.86980	         6.86879e+57
          1631.67610	         8.12235e+57
          1632.48240	         8.72996e+57
          1633.28870	         8.22814e+57
          1634.09500	         8.95299e+57
          1634.90130	         1.02239e+58
          1635.70760	         8.83775e+57
          1636.51390	         7.47152e+57
          1637.32020	         7.45053e+57
          1638.12650	         9.27723e+57
          1638.93280	         9.15906e+57
          1639.73910	         1.04246e+58
          1640.54540	         1.10221e+58
          1641.35170	         8.66356e+57
          1642.15800	         8.35746e+57
          1642.96430	         8.04642e+57
          1643.77060	         7.56900e+57
          1644.57690	         7.66503e+57
          1645.38320	         7.62421e+57
          1646.18950	         7.34077e+57
          1646.99580	         8.61721e+57
          1647.80210	         8.26666e+57
          1648.60840	         7.56335e+57
          1649.41470	         7.83759e+57
          1650.22100	         7.33736e+57
          1651.02730	         7.46470e+57
          1651.83360	         6.57278e+57
          1652.63990	         6.65115e+57
          1653.44620	         8.37986e+57
          1654.25250	         8.33148e+57
          1655.05880	         7.57965e+57
          1655.86510	         7.07084e+57
          1656.67140	         7.35824e+57
          1657.47770	         7.31728e+57
          1658.28400	         8.08549e+57
          1659.09030	         8.04920e+57
          1659.89660	         9.15940e+57
          1660.70290	         9.25945e+57
          1661.50920	         8.94129e+57
          1662.31550	         8.21237e+57
          1663.12180	         8.27879e+57
          1663.92810	         9.37319e+57
          1664.73440	         1.09089e+58
          1665.54070	         1.19388e+58
          1666.34700	         1.21430e+58
          1667.15330	         1.10606e+58
          1667.95960	         8.08537e+57
          1668.76590	         6.56759e+57
          1669.57220	         6.65797e+57
          1670.37850	         7.90968e+57
          1671.18480	         8.34940e+57
          1671.99110	         7.87751e+57
          1672.79740	         7.57155e+57
          1673.60370	         7.25425e+57
          1674.41000	         7.46073e+57
          1675.21630	         7.55671e+57
          1676.02260	         7.14778e+57
          1676.82890	         6.37335e+57
          1677.63520	         5.72030e+57
          1678.44150	         6.05180e+57
          1679.24780	         8.41901e+57
          1680.05410	         8.03188e+57
          1680.86040	         5.22529e+57
          1681.66670	         5.80819e+57
          1682.47300	         8.01672e+57
          1683.27930	         8.10361e+57
          1684.08560	         7.03639e+57
          1684.89190	         6.72872e+57
          1685.69820	         6.08105e+57
          1686.50450	         5.66867e+57
          1687.31080	         6.03390e+57
          1688.11710	         7.22401e+57
          1688.92340	         6.47039e+57
          1689.72970	         5.94041e+57
          1690.53600	         7.24730e+57
          1691.34230	         7.15119e+57
          1692.14860	         7.80710e+57
          1692.95490	         7.36911e+57
          1693.76120	         7.04695e+57
          1694.56750	         7.08722e+57
          1695.37380	         8.33651e+57
          1696.18010	         8.58937e+57
          1696.98640	         8.35150e+57
          1697.79270	         8.36602e+57
          1698.59900	         7.91104e+57
          1699.40530	         6.83106e+57
          1700.21160	         7.43565e+57
          1701.01790	         7.54701e+57
          1701.82420	         6.21074e+57
          1702.63050	         7.73034e+57
          1703.43680	         8.83182e+57
          1704.24310	         9.52293e+57
          1705.04940	         8.10576e+57
          1705.85570	         7.24306e+57
          1706.66200	         7.06884e+57
          1707.46830	         7.11806e+57
          1708.27460	         8.12408e+57
          1709.08090	         7.09812e+57
          1709.88720	         5.30231e+57
          1710.69350	         6.13993e+57
          1711.49980	         6.88350e+57
          1712.30610	         6.96326e+57
          1713.11240	         8.68053e+57
          1713.91870	         7.86398e+57
          1714.72500	         7.17604e+57
          1715.53130	         7.95062e+57
          1716.33760	         8.10614e+57
          1717.14390	         7.80294e+57
          1717.95020	         8.15509e+57
          1718.75650	         9.38071e+57
          1719.56280	         9.31228e+57
          1720.36910	         7.09635e+57
          1721.17540	         7.59750e+57
          1721.98170	         6.83774e+57
          1722.78800	         6.85930e+57
          1723.59430	         7.50590e+57
          1724.40060	         8.41694e+57
          1725.20690	         8.29536e+57
          1726.01320	         8.48138e+57
          1726.81950	         8.01194e+57
          1727.62580	         7.20924e+57
          1728.43210	         7.18395e+57
          1729.23840	         8.18676e+57
          1730.04470	         7.40037e+57
          1730.85100	         8.41828e+57
          1731.65730	         8.44925e+57
          1732.46360	         8.17546e+57
          1733.26990	         7.40199e+57
          1734.07620	         6.92839e+57
          1734.88250	         6.78545e+57
          1735.68880	         7.60452e+57
          1736.49510	         7.84851e+57
          1737.30140	         7.47974e+57
          1738.10770	         6.36712e+57
          1738.91400	         7.12128e+57
          1739.72030	         7.03541e+57
          1740.52660	         5.50268e+57
          1741.33290	         5.16746e+57
          1742.13920	         5.41556e+57
          1742.94550	         6.20732e+57
          1743.75180	         7.39307e+57
          1744.55810	         7.37858e+57
          1745.36440	         6.68951e+57
          1746.17070	         5.04192e+57
          1746.97700	         6.05043e+57
          1747.78330	         6.09985e+57
          1748.58960	         5.97096e+57
          1749.39590	         7.38841e+57
          1750.20220	         7.44238e+57
          1751.00850	         6.04890e+57
          1751.81480	         6.30054e+57
          1752.62110	         7.47980e+57
          1753.42740	         7.87755e+57
          1754.23370	         7.46952e+57
          1755.04000	         7.94297e+57
          1755.84630	         7.38440e+57
          1756.65260	         8.23806e+57
          1757.45890	         8.87327e+57
          1758.26520	         7.53175e+57
          1759.07150	         8.43108e+57
          1759.87780	         8.26973e+57
          1760.68410	         7.15576e+57
          1761.49040	         7.95942e+57
          1762.29670	         6.43007e+57
          1763.10300	         6.63665e+57
          1763.90930	         7.68344e+57
          1764.71560	         8.44890e+57
          1765.52190	         7.98542e+57
          1766.32820	         7.94527e+57
          1767.13450	         8.34488e+57
          1767.94080	         7.29282e+57
          1768.74710	         6.21359e+57
          1769.55340	         6.65598e+57
          1770.35970	         7.40032e+57
          1771.16600	         7.40130e+57
          1771.97230	         8.40623e+57
          1772.77860	         8.77833e+57
          1773.58490	         6.90378e+57
          1774.39120	         6.25048e+57
          1775.19750	         5.68420e+57
          1776.00380	         5.48439e+57
          1776.81010	         5.62572e+57
          1777.61640	         5.94524e+57
          1778.42270	         6.67745e+57
          1779.22900	         6.66472e+57
          1780.03530	         5.78951e+57
          1780.84160	         6.55805e+57
          1781.64790	         8.15107e+57
          1782.45420	         6.85841e+57
          1783.26050	         6.31520e+57
          1784.06680	         7.60572e+57
          1784.87310	         7.87023e+57
          1785.67940	         7.53828e+57
          1786.48570	         7.66731e+57
          1787.29200	         6.55202e+57
          1788.09830	         5.32258e+57
          1788.90460	         5.14815e+57
          1789.71090	         5.30842e+57
          1790.51720	         5.08452e+57
          1791.32350	         6.41725e+57
          1792.12980	         8.31807e+57
          1792.93610	         7.80837e+57
          1793.74240	         7.02922e+57
          1794.54870	         6.78191e+57
          1795.35500	         7.12771e+57
          1796.16130	         7.27595e+57
          1796.96760	         7.38260e+57
          1797.77390	         6.58922e+57
          1798.58020	         6.87031e+57
          1799.38650	         7.57452e+57
          1800.19280	         7.40159e+57
          1800.99910	         7.86128e+57
          1801.80540	         7.80957e+57
          1802.61170	         8.20986e+57
          1803.41800	         7.22913e+57
          1804.22430	         6.58570e+57
          1805.03060	         7.24714e+57
          1805.83690	         7.14311e+57
          1806.64320	         6.60403e+57
          1807.44950	         7.61699e+57
          1808.25580	         6.82608e+57
          1809.06210	         6.84807e+57
          1809.86840	         6.19724e+57
          1810.67470	         7.07900e+57
          1811.48100	         9.05881e+57
          1812.28730	         7.99951e+57
          1813.09360	         6.44538e+57
          1813.89990	         7.73659e+57
          1814.70620	         7.68611e+57
          1815.51250	         7.97709e+57
          1816.31880	         8.03430e+57
          1817.12510	         7.01374e+57
          1817.93140	         6.48638e+57
          1818.73770	         7.05582e+57
          1819.54400	         8.44448e+57
          1820.35030	         8.58588e+57
          1821.15660	         6.76515e+57
          1821.96290	         6.05422e+57
          1822.76920	         6.99414e+57
          1823.57550	         7.53761e+57
          1824.38180	         7.10980e+57
          1825.18810	         7.16633e+57
          1825.99440	         8.53917e+57
          1826.80070	         8.06713e+57
          1827.60700	         6.59541e+57
          1828.41330	         5.46113e+57
          1829.21960	         5.92516e+57
          1830.02590	         6.75537e+57
          1830.83220	         7.53337e+57
          1831.63850	         7.44147e+57
          1832.44480	         7.06844e+57
          1833.25110	         7.78711e+57
          1834.05740	         8.31611e+57
          1834.86370	         7.00641e+57
          1835.67000	         5.91795e+57
          1836.47630	         7.26906e+57
          1837.28260	         8.65889e+57
          1838.08890	         9.14367e+57
          1838.89520	         9.63428e+57
          1839.70150	         8.33537e+57
          1840.50780	         7.73963e+57
          1841.31410	         6.89214e+57
          1842.12040	         5.80589e+57
          1842.92670	         6.64824e+57
          1843.73300	         6.52004e+57
          1844.53930	         7.11695e+57
          1845.34560	         7.05656e+57
          1846.15190	         6.49789e+57
          1846.95820	         6.68218e+57
          1847.76450	         6.27099e+57
          1848.57080	         5.78214e+57
          1849.37710	         5.62485e+57
          1850.18340	         6.26127e+57
          1850.98970	         7.27635e+57
          1851.79600	         7.95496e+57
          1852.60230	         6.81510e+57
          1853.40860	         6.74106e+57
          1854.21490	         6.92943e+57
          1855.02120	         7.12866e+57
          1855.82750	         4.66014e+57
          1856.63380	         5.26477e+57
          1857.44010	         6.81831e+57
          1858.24640	         7.21809e+57
          1859.05270	         6.16514e+57
          1859.85900	         5.56276e+57
          1860.66530	         5.63758e+57
          1861.47160	         6.01613e+57
          1862.27790	         6.60008e+57
          1863.08420	         6.67511e+57
          1863.89050	         7.51021e+57
          1864.69680	         7.62050e+57
          1865.50310	         6.50605e+57
          1866.30940	         6.39103e+57
          1867.11570	         6.39909e+57
          1867.92200	         6.90216e+57
          1868.72830	         7.49733e+57
          1869.53460	         7.64864e+57
          1870.34090	         7.63940e+57
          1871.14720	         7.68922e+57
          1871.95350	         7.10917e+57
          1872.75980	         7.52600e+57
          1873.56610	         6.53842e+57
          1874.37240	         5.59313e+57
          1875.17870	         5.69440e+57
          1875.98500	         7.33217e+57
          1876.79130	         7.77409e+57
          1877.59760	         7.35558e+57
          1878.40390	         6.31937e+57
          1879.21020	         6.41487e+57
          1880.01650	         6.72606e+57
          1880.82280	         7.96091e+57
          1881.62910	         9.71332e+57
          1882.43540	         9.41550e+57
          1883.24170	         8.14639e+57
          1884.04800	         7.03338e+57
          1884.85430	         6.75954e+57
          1885.66060	         8.11773e+57
          1886.46690	         8.00315e+57
          1887.27320	         7.43272e+57
          1888.07950	         6.81244e+57
          1888.88580	         6.99037e+57
          1889.69210	         7.99904e+57
          1890.49840	         8.50912e+57
          1891.30470	         8.62437e+57
          1892.11100	         8.77789e+57
          1892.91730	         7.24812e+57
          1893.72360	         7.86709e+57
          1894.52990	         7.81111e+57
          1895.33620	         6.95520e+57
          1896.14250	         6.86044e+57
          1896.94880	         6.14422e+57
          1897.75510	         4.13343e+57
          1898.56140	         4.46097e+57
          1899.36770	         7.34851e+57
          1900.17400	         5.76464e+57
          1900.98030	         5.51885e+57
          1901.78660	         7.65386e+57
          1902.59290	         8.41012e+57
          1903.39920	         9.41194e+57
          1904.20550	         9.68705e+57
          1905.01180	         9.50615e+57
          1905.81810	         9.96624e+57
          1906.62440	         1.21355e+58
          1907.43070	         1.48455e+58
          1908.23700	         1.44727e+58
          1909.04330	         1.16961e+58
          1909.84960	         1.12395e+58
          1910.65590	         1.04659e+58
          1911.46220	         9.61183e+57
          1912.26850	         8.27559e+57
          1913.07480	         6.37144e+57
          1913.88110	         6.18236e+57
          1914.68740	         5.88744e+57
          1915.49370	         4.94625e+57
          1916.30000	         5.62585e+57
          1917.10630	         6.38444e+57
          1917.91260	         6.03962e+57
          1918.71890	         6.52599e+57
          1919.52520	         6.78140e+57
          1920.33150	         5.86216e+57
          1921.13780	         6.38748e+57
          1921.94410	         7.87119e+57
          1922.75040	         7.42119e+57
          1923.55670	         7.46092e+57
          1924.36300	         7.58247e+57
          1925.16930	         5.42807e+57
          1925.97560	         4.48310e+57
          1926.78190	         4.53745e+57
          1927.58820	         6.07216e+57
          1928.39450	         6.36703e+57
          1929.20080	         5.99643e+57
          1930.00710	         7.27534e+57
          1930.81340	         7.89348e+57
          1931.61970	         7.00187e+57
          1932.42600	         6.23235e+57
          1933.23230	         7.35264e+57
          1934.03860	         6.95447e+57
          1934.84490	         6.75758e+57
          1935.65120	         8.33657e+57
          1936.45750	         8.46994e+57
          1937.26380	         7.62692e+57
          1938.07010	         6.72835e+57
          1938.87640	         6.68226e+57
          1939.68270	         7.58126e+57
          1940.48900	         8.47455e+57
          1941.29530	         8.40293e+57
          1942.10160	         7.41841e+57
          1942.90790	         6.25104e+57
          1943.71420	         6.56988e+57
          1944.52050	         6.43577e+57
          1945.32680	         6.72434e+57
          1946.13310	         6.72305e+57
          1946.93940	         7.32790e+57
          1947.74570	         7.77357e+57
          1948.55200	         5.89363e+57
          1949.35830	         6.32736e+57
          1950.16460	         6.35007e+57
          1950.97090	         6.28180e+57
          1951.77720	         7.66928e+57
          1952.58350	         8.56931e+57
          1953.38980	         6.54521e+57
          1954.19610	         4.13319e+57
          1955.00240	         4.48927e+57
          1955.80870	         6.46338e+57
          1956.61500	         6.39536e+57
          1957.42130	         6.45600e+57
          1958.22760	         6.24704e+57
          1959.03390	         6.22107e+57
          1959.84020	         7.01835e+57
          1960.64650	         6.87333e+57
          1961.45280	         6.59765e+57
          1962.25910	         6.00815e+57
          1963.06540	         6.10554e+57
          1963.87170	         5.60774e+57
          1964.67800	         7.21187e+57
          1965.48430	         7.47301e+57
          1966.29060	         5.77119e+57
          1967.09690	         6.40675e+57
          1967.90320	         7.23517e+57
          1968.70950	         6.66841e+57
          1969.51580	         6.80825e+57
          1970.32210	         6.73659e+57
          1971.12840	         6.19642e+57
          1971.93470	         5.37472e+57
          1972.74100	         5.64425e+57
          1973.54730	         6.96766e+57
          1974.35360	         6.29361e+57
          1975.15990	         7.34426e+57
          1975.96620	         7.25793e+57
          1976.77250	         7.96044e+57
          1977.57880	         7.79647e+57
          1978.38510	         6.41642e+57
          1979.19140	         7.07524e+57
          1979.99770	         7.31876e+57
          1980.80400	         7.33368e+57
          1981.61030	         6.69858e+57
          1982.41660	         5.76233e+57
          1983.22290	         5.31653e+57
          1984.02920	         4.28565e+57
          1984.83550	         4.87540e+57
          1985.64180	         6.06014e+57
          1986.44810	         7.65817e+57
          1987.25440	         6.20148e+57
          1988.06070	         6.23595e+57
          1988.86700	         6.23369e+57
          1989.67330	         6.34315e+57
          1990.47960	         6.73719e+57
          1991.28590	         6.87363e+57
          1992.09220	         5.30387e+57
          1992.89850	         5.76855e+57
          1993.70480	         5.99944e+57
          1994.51110	         4.83664e+57
          1995.31740	         4.73014e+57
          1996.12370	         4.75549e+57
          1996.93000	         5.60634e+57
          1997.73630	         7.09902e+57
          1998.54260	         8.64554e+57
          1999.34890	         7.93534e+57
          2000.15520	         6.89587e+57
          2000.96150	         7.22788e+57
          2001.76780	         5.76838e+57
          2002.57410	         5.03424e+57
          2003.38040	         6.90467e+57
          2004.18670	         7.06063e+57
          2004.99300	         5.82541e+57
          2005.79930	         7.68022e+57
          2006.60560	         6.97155e+57
          2007.41190	         5.69302e+57
          2008.21820	         6.37655e+57
          2009.02450	         6.13814e+57
          2009.83080	         5.57850e+57
          2010.63710	         5.82027e+57
          2011.44340	         7.12817e+57
          2012.24970	         7.49266e+57
          2013.05600	         7.37461e+57
          2013.86230	         6.53586e+57
          2014.66860	         4.54637e+57
          2015.47490	         6.05958e+57
          2016.28120	         5.87762e+57
          2017.08750	         5.38794e+57
          2017.89380	         6.57693e+57
          2018.70010	         5.83207e+57
          2019.50640	         6.44640e+57
          2020.31270	         7.14932e+57
          2021.11900	         8.08606e+57
          2021.92530	         7.99272e+57
          2022.73160	         7.98968e+57
          2023.53790	         7.88846e+57
          2024.34420	         6.42473e+57
          2025.15050	         5.79105e+57
          2025.95680	         6.03512e+57
          2026.76310	         6.34722e+57
          2027.56940	         5.88072e+57
          2028.37570	         7.09458e+57
          2029.18200	         7.29660e+57
          2029.98830	         6.12651e+57
          2030.79460	         6.57500e+57
          2031.60090	         6.59809e+57
          2032.40720	         6.23134e+57
          2033.21350	         6.12658e+57
          2034.01980	         4.80024e+57
          2034.82610	         3.99059e+57
          2035.63240	         6.04181e+57
          2036.43870	         5.66962e+57
          2037.24500	         6.52102e+57
          2038.05130	         7.04588e+57
          2038.85760	         6.02611e+57
          2039.66390	         5.36368e+57
          2040.47020	         5.76928e+57
          2041.27650	         6.03289e+57
          2042.08280	         5.05808e+57
          2042.88910	         5.67545e+57
          2043.69540	         7.06617e+57
          2044.50170	         5.83861e+57
          2045.30800	         5.37130e+57
          2046.11430	         3.90977e+57
          2046.92060	         5.67212e+57
          2047.72690	         6.32996e+57
          2048.53320	         4.58074e+57
          2049.33950	         4.52451e+57
          2050.14580	         4.96322e+57
          2050.95210	         5.15706e+57
          2051.75840	         7.19557e+57
          2052.56470	         5.23460e+57
          2053.37100	         4.25503e+57
          2054.17730	         4.98341e+57
          2054.98360	         5.22181e+57
          2055.78990	         3.55826e+57
          2056.59620	         4.33225e+57
          2057.40250	         5.38764e+57
          2058.20880	         7.18285e+57
          2059.01510	         7.23301e+57
          2059.82140	         6.29428e+57
          2060.62770	         1.05228e+58
          2061.43400	         1.61214e+58
          2062.24030	         1.15700e+58
          2063.04660	         4.88866e+57
          2063.85290	         1.70085e+57
          2064.65920	        -4.65601e+57
          2065.46550	        -9.31443e+57
          2066.27180	        -9.01150e+57
          2067.07810	         2.13645e+57
          2067.88440	         6.05462e+57
          2068.69070	         7.52590e+57
          2069.49700	         7.06818e+57
          2070.30330	         5.42704e+57
          2071.10960	         7.26327e+57
          2071.91590	         6.90627e+57
          2072.72220	         4.75936e+57
          2073.52850	         4.44540e+57
          2074.33480	         4.30759e+57
          2075.14110	         5.30301e+57
          2075.94740	         6.26066e+57
          2076.75370	         4.10120e+57
          2077.56000	         4.61347e+57
          2078.36630	         5.64640e+57
          2079.17260	         5.39404e+57
          2079.97890	         4.45157e+57
          2080.78520	         5.74374e+57
          2081.59150	         5.01933e+57
          2082.39780	         4.52703e+57
          2083.20410	         2.87010e+57
          2084.01040	         1.80662e+57
          2084.81670	         2.61554e+57
          2085.62300	         3.04920e+57
          2086.42930	         3.39329e+57
          2087.23560	         4.04711e+57
          2088.04190	         3.62586e+57
          2088.84820	         1.77644e+57
          2089.65450	         7.92716e+56
          2090.46080	         1.81490e+57
          2091.26710	         3.66040e+57
          2092.07340	         4.29943e+57
          2092.87970	         2.96299e+57
          2093.68600	        -4.34508e+56
          2094.49230	         2.17142e+56
          2095.29860	         5.77923e+57
          2096.10490	         4.97370e+57
          2096.91120	         3.65024e+57
          2097.71750	         1.19020e+57
          2098.52380	         5.48630e+56
          2099.33010	         2.70328e+57
          2100.13640	         1.56097e+57
          2100.94270	         1.06186e+57
          2101.74900	         3.99800e+57
          2102.55530	         2.34424e+57
          2103.36160	         8.55188e+56
          2104.16790	         3.89026e+57
          2104.97420	         3.86822e+57
          2105.78050	         1.50313e+57
          2106.58680	         3.77638e+56
          2107.39310	         1.61815e+56
          2108.19940	         6.70857e+56
          2109.00570	        -9.91210e+56
          2109.81200	        -6.16079e+56
          2110.61830	        -1.61895e+56
          2111.42460	         3.06808e+56
          2112.23090	         1.64124e+57
          2113.03720	        -1.63018e+57
          2113.84350	         1.63593e+57
          2114.64980	         2.14241e+57
          2115.45610	        -7.25518e+55
          2116.26240	        -9.18893e+56
          2117.06870	        -1.04759e+57
          2117.87500	        -8.66045e+56
          2118.68130	         1.19674e+57
          2119.48760	         3.27567e+57
          2120.29390	        -2.60137e+55
          2121.10020	        -3.45038e+57
          2121.90650	        -1.60940e+57
          2122.71280	         3.80718e+57
          2123.51910	         2.51145e+57
          2124.32540	         7.45316e+55
          2125.13170	        -1.35688e+57
          2125.93800	         2.98023e+57
          2126.74430	        -3.87547e+56
          2127.55060	        -6.34074e+57
          2128.35690	        -4.81650e+57
          2129.16320	        -1.92276e+57
          2129.96950	        -4.83419e+57
          2130.77580	        -8.33989e+57
          2131.58210	         2.48737e+57
          2132.38840	         3.10026e+57
          2133.19470	         3.97674e+57
          2134.00100	        -7.83229e+56
          2134.80730	         1.65347e+57
          2135.61360	        -5.74651e+56
          2136.41990	         3.79450e+57
          2137.22620	         7.44060e+57
          2138.03250	        -1.40531e+56
          2138.83880	        -5.00343e+57
          2139.64510	        -3.87927e+57
          2140.45140	        -7.37164e+57
          2141.25770	        -9.20332e+57
          2142.06400	        -4.59121e+57
          2142.87030	         3.10708e+57
          2143.67660	         5.79823e+57
          2144.48290	         6.83341e+57
          2145.28920	         5.92719e+57
          2146.09550	        -1.42267e+58
          2146.90180	        -1.04389e+58
          2147.70810	        -5.13014e+57
          2148.51440	        -6.88454e+57
          2149.32070	        -6.43488e+57
          2150.12700	        -1.34291e+58
          2150.93330	        -7.34971e+56
          2151.73960	         4.34472e+57
          2152.54590	         1.74650e+57
          2153.35220	        -2.49609e+57
          2154.15850	        -8.08114e+57
          2154.96480	         9.20735e+56
          2155.77110	        -7.62071e+56
          2156.57740	        -6.52884e+56
          2157.38370	         1.52958e+57
          2158.19000	         5.11190e+57
          2158.99630	        -1.07701e+58
          2159.80260	        -1.99480e+58
          2160.60890	        -1.08111e+58
          2161.41520	        -4.64979e+57
          2162.22150	         5.54825e+56
          2163.02780	        -1.03626e+58
          2163.83410	        -1.04211e+57
          2164.64040	        -9.72918e+57
          2165.44670	        -4.81077e+57
          2166.25300	         2.05460e+57
          2167.05930	        -6.30793e+57
          2167.86560	         5.76266e+56
          2168.67190	        -3.26360e+57
          2169.47820	         4.01162e+56
          2170.28450	         2.43330e+57
          2171.09080	         5.30945e+57
          2171.89710	        -2.55221e+57
          2172.70340	        -4.73902e+56
          2173.50970	        -6.94076e+57
          2174.31600	        -2.79907e+57
          2175.12230	        -2.51956e+55
          2175.92860	        -5.23128e+57
          2176.73490	        -2.67595e+57
          2177.54120	        -7.61237e+57
          2178.34750	        -4.20450e+57
          2179.15380	                 nan
          2179.96010	                 nan
          2180.76640	                 nan
          2181.57270	                 nan
          2182.37900	                 nan
          2183.18530	                 nan
          2183.99160	                 nan
          2184.79790	                 nan
          2185.60420	                 nan
          2186.41050	                 nan
          2187.21680	                 nan
          2188.02310	                 nan
          2188.82940	                 nan
          2189.63570	                 nan
          2190.44200	                 nan
          2191.24830	                 nan
          2192.05460	                 nan
          2192.86090	                 nan
          2193.66720	                 nan
          2194.47350	                 nan
          2195.27980	                 nan
          2196.08610	                 nan
          2196.89240	                 nan
          2197.69870	                 nan
          2198.50500	                 nan
          2199.31130	                 nan
          2200.11760	                 nan
          2200.92390	                 nan
          2201.73020	                 nan
          2202.53650	                 nan
          2203.34280	                 nan
          2204.14910	                 nan
          2204.95540	                 nan
          2205.76170	                 nan
          2206.56800	                 nan
          2207.37430	                 nan
          2208.18060	                 nan
          2208.98690	                 nan
          2209.79320	                 nan
          2210.59950	                 nan
          2211.40580	                 nan
          2212.21210	                 nan
          2213.01840	                 nan
          2213.82470	                 nan
          2214.63100	                 nan
          2215.43730	         0.00000e+00
