#sample_417_stacked_spectrum_rest_UV-bands_median_H-alpha_noDC.txt
#median Lum: 1.69895e+42
#Rest-frame wavelength (A) | Luminosity (erg/s/A)
#
          1110.00000	         0.00000e+00
          1110.80630	         1.33112e+59
          1111.61260	         3.33200e+59
          1112.41890	         1.79094e+59
          1113.22520	        -9.58848e+58
          1114.03150	        -7.69757e+58
          1114.83780	         2.73162e+59
          1115.64410	         2.91718e+58
          1116.45040	         5.77543e+58
          1117.25670	         1.07379e+59
          1118.06300	         8.41416e+58
          1118.86930	        -9.80943e+58
          1119.67560	         6.91511e+58
          1120.48190	        -2.29840e+58
          1121.28820	        -5.33309e+58
          1122.09450	         1.12942e+57
          1122.90080	        -5.55436e+58
          1123.70710	         8.14564e+58
          1124.51340	         1.59935e+59
          1125.31970	        -1.65165e+58
          1126.12600	         3.11422e+58
          1126.93230	        -2.10356e+58
          1127.73860	        -4.79366e+57
          1128.54490	         5.63462e+58
          1129.35120	         2.04602e+58
          1130.15750	         2.66127e+57
          1130.96380	        -1.81812e+57
          1131.77010	         2.75481e+58
          1132.57640	         2.27591e+58
          1133.38270	         3.40904e+58
          1134.18900	         3.31877e+58
          1134.99530	         2.42641e+57
          1135.80160	         1.79767e+58
          1136.60790	         1.58770e+58
          1137.41420	        -6.94261e+57
          1138.22050	         1.56810e+58
          1139.02680	         2.62625e+58
          1139.83310	         3.49976e+58
          1140.63940	         1.63874e+58
          1141.44570	        -1.55150e+58
          1142.25200	        -7.14759e+57
          1143.05830	         1.52524e+58
          1143.86460	         2.19881e+58
          1144.67090	         2.89806e+58
          1145.47720	         4.88842e+57
          1146.28350	         4.07617e+57
          1147.08980	         1.86692e+58
          1147.89610	         1.74575e+58
          1148.70240	         2.16794e+58
          1149.50870	         2.90919e+58
          1150.31500	         2.15260e+58
          1151.12130	         9.88755e+57
          1151.92760	         8.93988e+57
          1152.73390	         1.28873e+58
          1153.54020	         1.11529e+58
          1154.34650	         2.48353e+58
          1155.15280	         2.20742e+58
          1155.95910	         3.29153e+57
          1156.76540	         1.64116e+58
          1157.57170	         7.27311e+57
          1158.37800	        -4.83077e+57
          1159.18430	        -2.87967e+57
          1159.99060	         5.03870e+57
          1160.79690	        -1.95189e+57
          1161.60320	         1.24668e+58
          1162.40950	         1.98770e+58
          1163.21580	         1.28534e+58
          1164.02210	         1.88446e+58
          1164.82840	         1.47378e+58
          1165.63470	         2.10229e+58
          1166.44100	         3.55463e+58
          1167.24730	         1.74145e+58
          1168.05360	         9.49399e+57
          1168.85990	         1.25265e+58
          1169.66620	         1.44306e+58
          1170.47250	         5.02219e+57
          1171.27880	         8.17087e+57
          1172.08510	         6.73472e+57
          1172.89140	         2.09370e+57
          1173.69770	         6.97881e+57
          1174.50400	         1.64830e+58
          1175.31030	         1.67590e+58
          1176.11660	         1.84102e+58
          1176.92290	         1.74819e+58
          1177.72920	         1.28237e+58
          1178.53550	         8.08869e+57
          1179.34180	         9.37138e+57
          1180.14810	         9.39774e+57
          1180.95440	         1.26865e+58
          1181.76070	         8.28828e+57
          1182.56700	         4.54111e+57
          1183.37330	         4.40443e+57
          1184.17960	         1.09332e+58
          1184.98590	         1.23076e+58
          1185.79220	         6.53513e+57
          1186.59850	         1.20915e+58
          1187.40480	         1.06850e+58
          1188.21110	         1.09613e+58
          1189.01740	         8.77251e+57
          1189.82370	         5.98089e+57
          1190.63000	         1.21727e+58
          1191.43630	         9.57068e+57
          1192.24260	         4.89798e+57
          1193.04890	         6.14023e+57
          1193.85520	         1.28658e+58
          1194.66150	         4.82090e+57
          1195.46780	         1.15366e+58
          1196.27410	         1.25773e+58
          1197.08040	         7.08998e+57
          1197.88670	         1.34428e+58
          1198.69300	         1.72717e+58
          1199.49930	         1.76336e+58
          1200.30560	         8.07298e+57
          1201.11190	         5.08447e+57
          1201.91820	         5.66925e+57
          1202.72450	         5.37569e+57
          1203.53080	         1.26018e+58
          1204.33710	         5.47130e+57
          1205.14340	         5.99388e+57
          1205.94970	         6.27295e+57
          1206.75600	         6.76196e+57
          1207.56230	         6.11193e+57
          1208.36860	         8.42633e+57
          1209.17490	         5.57895e+57
          1209.98120	         5.66882e+57
          1210.78750	         7.98514e+57
          1211.59380	         1.23367e+58
          1212.40010	         1.83651e+58
          1213.20640	         2.05540e+58
          1214.01270	         1.93832e+58
          1214.81900	         2.46879e+58
          1215.62530	         4.53612e+58
          1216.43160	         8.93066e+58
          1217.23790	         1.50195e+59
          1218.04420	         1.18407e+59
          1218.85050	         8.80577e+58
          1219.65680	         5.99684e+58
          1220.46310	         3.66113e+58
          1221.26940	         2.46592e+58
          1222.07570	         1.58058e+58
          1222.88200	         1.27179e+58
          1223.68830	         1.02455e+58
          1224.49460	         7.03786e+57
          1225.30090	         7.02334e+57
          1226.10720	         6.50803e+57
          1226.91350	         8.43151e+57
          1227.71980	         8.05421e+57
          1228.52610	         9.96833e+57
          1229.33240	         6.75500e+57
          1230.13870	         8.63058e+57
          1230.94500	         1.28009e+58
          1231.75130	         8.47740e+57
          1232.55760	         1.02785e+58
          1233.36390	         9.94909e+57
          1234.17020	         7.52766e+57
          1234.97650	         6.55594e+57
          1235.78280	         7.43358e+57
          1236.58910	         8.86363e+57
          1237.39540	         1.09884e+58
          1238.20170	         1.13050e+58
          1239.00800	         1.08362e+58
          1239.81430	         1.35539e+58
          1240.62060	         1.16606e+58
          1241.42690	         1.22047e+58
          1242.23320	         1.32691e+58
          1243.03950	         6.89598e+57
          1243.84580	         5.83505e+57
          1244.65210	         1.26972e+58
          1245.45840	         1.22661e+58
          1246.26470	         7.81583e+57
          1247.07100	         6.09659e+57
          1247.87730	         4.78771e+57
          1248.68360	         4.50768e+57
          1249.48990	         4.53276e+57
          1250.29620	         5.17343e+57
          1251.10250	         8.78436e+57
          1251.90880	         9.32273e+57
          1252.71510	         7.97276e+57
          1253.52140	         7.91389e+57
          1254.32770	         9.54595e+57
          1255.13400	         1.22116e+58
          1255.94030	         1.27237e+58
          1256.74660	         1.35085e+58
          1257.55290	         1.23649e+58
          1258.35920	         8.13281e+57
          1259.16550	         5.45503e+57
          1259.97180	         5.84826e+57
          1260.77810	         1.02356e+58
          1261.58440	         1.25723e+58
          1262.39070	         8.09026e+57
          1263.19700	         7.15901e+57
          1264.00330	         9.49662e+57
          1264.80960	         9.82385e+57
          1265.61590	         1.31042e+58
          1266.42220	         1.25429e+58
          1267.22850	         1.12595e+58
          1268.03480	         1.31269e+58
          1268.84110	         1.43494e+58
          1269.64740	         1.50941e+58
          1270.45370	         1.45743e+58
          1271.26000	         1.25698e+58
          1272.06630	         1.13915e+58
          1272.87260	         1.09056e+58
          1273.67890	         1.21054e+58
          1274.48520	         1.30416e+58
          1275.29150	         1.31322e+58
          1276.09780	         1.21941e+58
          1276.90410	         1.26624e+58
          1277.71040	         1.24965e+58
          1278.51670	         1.30924e+58
          1279.32300	         1.34191e+58
          1280.12930	         1.22612e+58
          1280.93560	         1.11675e+58
          1281.74190	         1.10758e+58
          1282.54820	         1.20507e+58
          1283.35450	         1.18208e+58
          1284.16080	         1.36490e+58
          1284.96710	         1.53306e+58
          1285.77340	         1.19347e+58
          1286.57970	         1.17639e+58
          1287.38600	         1.59125e+58
          1288.19230	         1.92109e+58
          1288.99860	         1.69426e+58
          1289.80490	         1.19589e+58
          1290.61120	         1.41259e+58
          1291.41750	         1.42518e+58
          1292.22380	         1.23983e+58
          1293.03010	         1.07840e+58
          1293.83640	         1.03361e+58
          1294.64270	         9.40542e+57
          1295.44900	         7.27023e+57
          1296.25530	         8.48016e+57
          1297.06160	         1.08112e+58
          1297.86790	         1.08319e+58
          1298.67420	         1.08614e+58
          1299.48050	         9.91534e+57
          1300.28680	         9.68308e+57
          1301.09310	         7.81103e+57
          1301.89940	         4.89835e+57
          1302.70570	         7.19333e+57
          1303.51200	         8.58070e+57
          1304.31830	         1.06060e+58
          1305.12460	         1.19596e+58
          1305.93090	         1.12086e+58
          1306.73720	         1.22944e+58
          1307.54350	         1.37162e+58
          1308.34980	         1.43213e+58
          1309.15610	         1.61293e+58
          1309.96240	         1.76500e+58
          1310.76870	         1.56040e+58
          1311.57500	         1.11375e+58
          1312.38130	         1.09880e+58
          1313.18760	         1.26302e+58
          1313.99390	         1.39333e+58
          1314.80020	         1.64296e+58
          1315.60650	         1.38932e+58
          1316.41280	         1.16240e+58
          1317.21910	         1.11789e+58
          1318.02540	         1.30398e+58
          1318.83170	         1.38100e+58
          1319.63800	         1.23675e+58
          1320.44430	         1.08915e+58
          1321.25060	         1.23910e+58
          1322.05690	         1.33502e+58
          1322.86320	         1.23452e+58
          1323.66950	         1.13655e+58
          1324.47580	         1.07883e+58
          1325.28210	         1.03961e+58
          1326.08840	         1.10708e+58
          1326.89470	         1.13540e+58
          1327.70100	         8.82491e+57
          1328.50730	         7.77404e+57
          1329.31360	         1.08178e+58
          1330.11990	         1.08998e+58
          1330.92620	         9.27923e+57
          1331.73250	         8.78054e+57
          1332.53880	         8.27508e+57
          1333.34510	         7.64179e+57
          1334.15140	         8.15633e+57
          1334.95770	         8.68613e+57
          1335.76400	         1.06319e+58
          1336.57030	         1.08293e+58
          1337.37660	         9.57218e+57
          1338.18290	         1.13248e+58
          1338.98920	         1.26913e+58
          1339.79550	         1.16182e+58
          1340.60180	         1.10925e+58
          1341.40810	         1.26175e+58
          1342.21440	         1.03692e+58
          1343.02070	         1.18530e+58
          1343.82700	         1.50193e+58
          1344.63330	         1.30850e+58
          1345.43960	         1.13040e+58
          1346.24590	         1.02211e+58
          1347.05220	         1.10109e+58
          1347.85850	         9.90282e+57
          1348.66480	         1.14197e+58
          1349.47110	         1.27056e+58
          1350.27740	         1.21107e+58
          1351.08370	         1.19342e+58
          1351.89000	         1.05414e+58
          1352.69630	         1.21680e+58
          1353.50260	         1.28499e+58
          1354.30890	         1.24403e+58
          1355.11520	         1.13128e+58
          1355.92150	         9.94500e+57
          1356.72780	         9.82155e+57
          1357.53410	         9.84772e+57
          1358.34040	         1.09355e+58
          1359.14670	         1.11777e+58
          1359.95300	         1.04588e+58
          1360.75930	         1.04247e+58
          1361.56560	         1.10912e+58
          1362.37190	         1.17644e+58
          1363.17820	         1.08515e+58
          1363.98450	         1.02984e+58
          1364.79080	         1.12967e+58
          1365.59710	         1.33481e+58
          1366.40340	         1.20231e+58
          1367.20970	         9.04645e+57
          1368.01600	         8.81592e+57
          1368.82230	         8.33670e+57
          1369.62860	         9.73462e+57
          1370.43490	         9.35932e+57
          1371.24120	         9.30254e+57
          1372.04750	         9.64620e+57
          1372.85380	         1.15584e+58
          1373.66010	         1.18036e+58
          1374.46640	         1.10279e+58
          1375.27270	         1.07560e+58
          1376.07900	         9.61900e+57
          1376.88530	         8.17825e+57
          1377.69160	         7.25854e+57
          1378.49790	         6.75351e+57
          1379.30420	         8.18218e+57
          1380.11050	         9.71708e+57
          1380.91680	         8.24170e+57
          1381.72310	         8.40649e+57
          1382.52940	         8.64561e+57
          1383.33570	         7.74359e+57
          1384.14200	         1.09589e+58
          1384.94830	         1.11631e+58
          1385.75460	         1.00741e+58
          1386.56090	         1.04822e+58
          1387.36720	         1.06304e+58
          1388.17350	         1.27409e+58
          1388.97980	         1.21323e+58
          1389.78610	         8.58506e+57
          1390.59240	         8.37524e+57
          1391.39870	         8.32638e+57
          1392.20500	         8.79924e+57
          1393.01130	         7.56678e+57
          1393.81760	         7.92249e+57
          1394.62390	         8.03893e+57
          1395.43020	         7.11303e+57
          1396.23650	         6.95079e+57
          1397.04280	         6.41938e+57
          1397.84910	         7.71188e+57
          1398.65540	         8.26896e+57
          1399.46170	         8.71330e+57
          1400.26800	         7.65804e+57
          1401.07430	         6.51811e+57
          1401.88060	         8.09754e+57
          1402.68690	         1.02896e+58
          1403.49320	         1.04424e+58
          1404.29950	         9.32639e+57
          1405.10580	         1.02789e+58
          1405.91210	         1.02560e+58
          1406.71840	         1.07119e+58
          1407.52470	         9.96793e+57
          1408.33100	         9.34037e+57
          1409.13730	         1.09756e+58
          1409.94360	         1.12303e+58
          1410.74990	         1.15364e+58
          1411.55620	         1.12045e+58
          1412.36250	         9.54280e+57
          1413.16880	         9.90127e+57
          1413.97510	         7.93623e+57
          1414.78140	         8.44451e+57
          1415.58770	         9.77854e+57
          1416.39400	         1.06801e+58
          1417.20030	         1.06121e+58
          1418.00660	         9.02262e+57
          1418.81290	         9.35136e+57
          1419.61920	         1.03902e+58
          1420.42550	         1.22621e+58
          1421.23180	         1.37547e+58
          1422.03810	         1.34402e+58
          1422.84440	         1.11777e+58
          1423.65070	         1.22887e+58
          1424.45700	         1.20813e+58
          1425.26330	         9.78171e+57
          1426.06960	         9.28695e+57
          1426.87590	         1.14117e+58
          1427.68220	         1.10095e+58
          1428.48850	         1.07805e+58
          1429.29480	         1.14425e+58
          1430.10110	         1.10865e+58
          1430.90740	         9.46974e+57
          1431.71370	         9.18188e+57
          1432.52000	         9.00785e+57
          1433.32630	         7.18169e+57
          1434.13260	         7.16014e+57
          1434.93890	         7.99367e+57
          1435.74520	         9.17464e+57
          1436.55150	         9.76673e+57
          1437.35780	         9.36951e+57
          1438.16410	         9.98782e+57
          1438.97040	         9.03844e+57
          1439.77670	         8.82549e+57
          1440.58300	         8.80573e+57
          1441.38930	         9.23353e+57
          1442.19560	         9.52246e+57
          1443.00190	         9.86179e+57
          1443.80820	         1.06177e+58
          1444.61450	         9.82076e+57
          1445.42080	         7.62074e+57
          1446.22710	         9.88647e+57
          1447.03340	         1.00544e+58
          1447.83970	         1.02732e+58
          1448.64600	         1.10155e+58
          1449.45230	         1.06414e+58
          1450.25860	         1.05576e+58
          1451.06490	         9.16935e+57
          1451.87120	         7.52511e+57
          1452.67750	         7.21801e+57
          1453.48380	         9.03067e+57
          1454.29010	         8.47828e+57
          1455.09640	         7.75372e+57
          1455.90270	         9.02456e+57
          1456.70900	         8.65549e+57
          1457.51530	         1.03251e+58
          1458.32160	         1.17488e+58
          1459.12790	         1.17745e+58
          1459.93420	         9.94888e+57
          1460.74050	         8.39879e+57
          1461.54680	         8.31454e+57
          1462.35310	         8.47137e+57
          1463.15940	         9.77177e+57
          1463.96570	         1.16852e+58
          1464.77200	         1.24442e+58
          1465.57830	         1.09495e+58
          1466.38460	         9.71804e+57
          1467.19090	         8.14707e+57
          1467.99720	         8.43125e+57
          1468.80350	         9.25909e+57
          1469.60980	         9.19257e+57
          1470.41610	         9.67746e+57
          1471.22240	         9.06937e+57
          1472.02870	         9.08708e+57
          1472.83500	         1.00092e+58
          1473.64130	         1.00610e+58
          1474.44760	         1.00194e+58
          1475.25390	         1.06347e+58
          1476.06020	         9.52773e+57
          1476.86650	         8.89797e+57
          1477.67280	         7.60966e+57
          1478.47910	         7.16868e+57
          1479.28540	         7.43533e+57
          1480.09170	         7.53585e+57
          1480.89800	         7.29246e+57
          1481.70430	         8.81082e+57
          1482.51060	         8.45672e+57
          1483.31690	         7.26964e+57
          1484.12320	         7.21378e+57
          1484.92950	         7.34527e+57
          1485.73580	         7.00565e+57
          1486.54210	         8.41888e+57
          1487.34840	         1.04578e+58
          1488.15470	         8.71428e+57
          1488.96100	         8.34535e+57
          1489.76730	         9.21527e+57
          1490.57360	         8.36082e+57
          1491.37990	         7.60302e+57
          1492.18620	         9.00228e+57
          1492.99250	         8.71455e+57
          1493.79880	         7.88165e+57
          1494.60510	         9.00871e+57
          1495.41140	         7.81950e+57
          1496.21770	         8.46565e+57
          1497.02400	         1.14269e+58
          1497.83030	         8.46506e+57
          1498.63660	         6.39726e+57
          1499.44290	         6.71080e+57
          1500.24920	         7.69251e+57
          1501.05550	         9.24403e+57
          1501.86180	         8.98339e+57
          1502.66810	         8.81082e+57
          1503.47440	         9.36007e+57
          1504.28070	         8.54880e+57
          1505.08700	         8.48147e+57
          1505.89330	         9.05639e+57
          1506.69960	         8.41922e+57
          1507.50590	         7.12969e+57
          1508.31220	         7.11164e+57
          1509.11850	         8.73368e+57
          1509.92480	         1.02862e+58
          1510.73110	         9.23524e+57
          1511.53740	         7.46918e+57
          1512.34370	         7.42981e+57
          1513.15000	         8.46401e+57
          1513.95630	         9.53058e+57
          1514.76260	         9.38216e+57
          1515.56890	         8.88634e+57
          1516.37520	         9.45992e+57
          1517.18150	         8.94345e+57
          1517.98780	         7.34858e+57
          1518.79410	         6.87530e+57
          1519.60040	         7.70545e+57
          1520.40670	         9.71391e+57
          1521.21300	         9.38965e+57
          1522.01930	         8.33798e+57
          1522.82560	         8.47943e+57
          1523.63190	         1.01202e+58
          1524.43820	         8.91238e+57
          1525.24450	         5.97233e+57
          1526.05080	         6.23127e+57
          1526.85710	         7.15861e+57
          1527.66340	         7.91262e+57
          1528.46970	         7.88630e+57
          1529.27600	         7.51631e+57
          1530.08230	         6.97065e+57
          1530.88860	         7.29099e+57
          1531.69490	         9.47032e+57
          1532.50120	         1.05965e+58
          1533.30750	         1.01990e+58
          1534.11380	         9.55680e+57
          1534.92010	         8.70881e+57
          1535.72640	         8.69820e+57
          1536.53270	         9.50177e+57
          1537.33900	         9.10526e+57
          1538.14530	         8.67397e+57
          1538.95160	         8.51020e+57
          1539.75790	         8.98291e+57
          1540.56420	         8.54810e+57
          1541.37050	         7.72693e+57
          1542.17680	         7.46808e+57
          1542.98310	         7.12359e+57
          1543.78940	         6.30451e+57
          1544.59570	         6.97900e+57
          1545.40200	         7.70457e+57
          1546.20830	         9.24608e+57
          1547.01460	         1.07818e+58
          1547.82090	         1.01381e+58
          1548.62720	         1.18828e+58
          1549.43350	         1.19090e+58
          1550.23980	         1.13350e+58
          1551.04610	         1.21262e+58
          1551.85240	         1.21890e+58
          1552.65870	         1.18573e+58
          1553.46500	         1.04442e+58
          1554.27130	         1.02676e+58
          1555.07760	         1.06658e+58
          1555.88390	         9.32923e+57
          1556.69020	         9.12457e+57
          1557.49650	         9.21689e+57
          1558.30280	         7.82472e+57
          1559.10910	         7.87766e+57
          1559.91540	         8.63297e+57
          1560.72170	         8.32806e+57
          1561.52800	         7.97764e+57
          1562.33430	         7.66159e+57
          1563.14060	         7.89497e+57
          1563.94690	         8.00136e+57
          1564.75320	         7.98563e+57
          1565.55950	         6.47379e+57
          1566.36580	         7.20289e+57
          1567.17210	         9.50152e+57
          1567.97840	         9.21523e+57
          1568.78470	         8.34659e+57
          1569.59100	         8.56780e+57
          1570.39730	         7.96407e+57
          1571.20360	         7.61960e+57
          1572.00990	         7.80495e+57
          1572.81620	         9.01717e+57
          1573.62250	         1.07581e+58
          1574.42880	         9.70048e+57
          1575.23510	         7.61485e+57
          1576.04140	         8.10730e+57
          1576.84770	         9.69134e+57
          1577.65400	         9.34285e+57
          1578.46030	         9.82466e+57
          1579.26660	         1.06404e+58
          1580.07290	         9.54260e+57
          1580.87920	         7.90996e+57
          1581.68550	         7.53338e+57
          1582.49180	         7.90918e+57
          1583.29810	         8.08583e+57
          1584.10440	         8.90409e+57
          1584.91070	         8.85532e+57
          1585.71700	         8.92801e+57
          1586.52330	         9.69539e+57
          1587.32960	         9.05195e+57
          1588.13590	         8.10458e+57
          1588.94220	         8.67831e+57
          1589.74850	         8.96562e+57
          1590.55480	         9.85604e+57
          1591.36110	         8.52156e+57
          1592.16740	         7.77526e+57
          1592.97370	         8.50147e+57
          1593.78000	         8.71152e+57
          1594.58630	         9.24334e+57
          1595.39260	         8.37314e+57
          1596.19890	         8.73144e+57
          1597.00520	         9.83529e+57
          1597.81150	         8.98361e+57
          1598.61780	         7.37720e+57
          1599.42410	         7.02008e+57
          1600.23040	         7.04570e+57
          1601.03670	         8.40737e+57
          1601.84300	         8.16975e+57
          1602.64930	         8.43704e+57
          1603.45560	         8.42032e+57
          1604.26190	         7.50945e+57
          1605.06820	         6.68512e+57
          1605.87450	         6.80504e+57
          1606.68080	         6.74432e+57
          1607.48710	         6.04698e+57
          1608.29340	         6.04604e+57
          1609.09970	         6.86513e+57
          1609.90600	         7.29392e+57
          1610.71230	         6.54405e+57
          1611.51860	         7.64673e+57
          1612.32490	         6.88518e+57
          1613.13120	         7.49087e+57
          1613.93750	         8.49507e+57
          1614.74380	         8.37199e+57
          1615.55010	         8.51554e+57
          1616.35640	         8.75945e+57
          1617.16270	         9.18247e+57
          1617.96900	         9.54562e+57
          1618.77530	         8.98377e+57
          1619.58160	         7.97193e+57
          1620.38790	         7.77314e+57
          1621.19420	         8.92089e+57
          1622.00050	         8.26586e+57
          1622.80680	         7.98871e+57
          1623.61310	         8.67131e+57
          1624.41940	         8.88571e+57
          1625.22570	         9.38675e+57
          1626.03200	         8.81000e+57
          1626.83830	         7.17771e+57
          1627.64460	         6.33828e+57
          1628.45090	         7.34198e+57
          1629.25720	         9.41603e+57
          1630.06350	         9.55073e+57
          1630.86980	         6.09676e+57
          1631.67610	         7.97633e+57
          1632.48240	         9.35900e+57
          1633.28870	         7.60293e+57
          1634.09500	         9.04081e+57
          1634.90130	         1.12758e+58
          1635.70760	         9.93471e+57
          1636.51390	         9.25135e+57
          1637.32020	         7.63307e+57
          1638.12650	         7.80303e+57
          1638.93280	         8.97285e+57
          1639.73910	         1.07434e+58
          1640.54540	         1.07310e+58
          1641.35170	         9.18811e+57
          1642.15800	         8.65889e+57
          1642.96430	         8.75082e+57
          1643.77060	         9.49918e+57
          1644.57690	         9.17574e+57
          1645.38320	         9.59812e+57
          1646.18950	         7.60786e+57
          1646.99580	         8.55682e+57
          1647.80210	         9.22627e+57
          1648.60840	         7.72634e+57
          1649.41470	         7.52237e+57
          1650.22100	         6.58963e+57
          1651.02730	         6.55971e+57
          1651.83360	         7.26101e+57
          1652.63990	         7.71184e+57
          1653.44620	         8.70365e+57
          1654.25250	         8.63021e+57
          1655.05880	         7.76139e+57
          1655.86510	         8.58798e+57
          1656.67140	         8.46019e+57
          1657.47770	         7.62283e+57
          1658.28400	         8.26521e+57
          1659.09030	         8.71290e+57
          1659.89660	         9.58792e+57
          1660.70290	         1.05804e+58
          1661.50920	         1.06111e+58
          1662.31550	         9.15046e+57
          1663.12180	         8.44737e+57
          1663.92810	         1.01159e+58
          1664.73440	         1.13088e+58
          1665.54070	         1.19933e+58
          1666.34700	         1.19509e+58
          1667.15330	         1.08762e+58
          1667.95960	         9.14012e+57
          1668.76590	         6.67758e+57
          1669.57220	         6.51486e+57
          1670.37850	         7.67697e+57
          1671.18480	         8.32191e+57
          1671.99110	         7.57508e+57
          1672.79740	         7.00602e+57
          1673.60370	         6.83558e+57
          1674.41000	         7.11843e+57
          1675.21630	         8.20476e+57
          1676.02260	         7.90215e+57
          1676.82890	         7.14543e+57
          1677.63520	         6.75435e+57
          1678.44150	         6.84805e+57
          1679.24780	         8.12399e+57
          1680.05410	         7.27838e+57
          1680.86040	         6.22529e+57
          1681.66670	         7.24245e+57
          1682.47300	         8.90399e+57
          1683.27930	         8.89029e+57
          1684.08560	         8.09507e+57
          1684.89190	         7.88662e+57
          1685.69820	         6.06487e+57
          1686.50450	         4.75228e+57
          1687.31080	         6.78172e+57
          1688.11710	         7.25252e+57
          1688.92340	         6.82326e+57
          1689.72970	         7.15383e+57
          1690.53600	         5.74802e+57
          1691.34230	         6.30399e+57
          1692.14860	         7.80557e+57
          1692.95490	         7.49161e+57
          1693.76120	         7.05132e+57
          1694.56750	         7.30991e+57
          1695.37380	         8.01355e+57
          1696.18010	         8.63944e+57
          1696.98640	         8.99373e+57
          1697.79270	         7.90586e+57
          1698.59900	         8.90419e+57
          1699.40530	         7.58735e+57
          1700.21160	         7.55745e+57
          1701.01790	         8.52437e+57
          1701.82420	         7.11908e+57
          1702.63050	         7.63392e+57
          1703.43680	         8.61312e+57
          1704.24310	         8.67854e+57
          1705.04940	         8.59526e+57
          1705.85570	         8.25934e+57
          1706.66200	         7.80391e+57
          1707.46830	         7.89647e+57
          1708.27460	         7.96060e+57
          1709.08090	         6.96386e+57
          1709.88720	         6.03450e+57
          1710.69350	         6.22101e+57
          1711.49980	         6.78757e+57
          1712.30610	         7.12442e+57
          1713.11240	         9.58678e+57
          1713.91870	         8.43748e+57
          1714.72500	         8.47202e+57
          1715.53130	         9.15736e+57
          1716.33760	         7.79408e+57
          1717.14390	         7.56162e+57
          1717.95020	         9.39018e+57
          1718.75650	         9.45061e+57
          1719.56280	         7.97505e+57
          1720.36910	         6.56185e+57
          1721.17540	         6.79518e+57
          1721.98170	         5.49999e+57
          1722.78800	         6.54069e+57
          1723.59430	         7.02624e+57
          1724.40060	         7.55882e+57
          1725.20690	         8.27258e+57
          1726.01320	         7.67100e+57
          1726.81950	         7.43772e+57
          1727.62580	         6.99250e+57
          1728.43210	         6.93389e+57
          1729.23840	         8.28226e+57
          1730.04470	         8.17972e+57
          1730.85100	         8.39529e+57
          1731.65730	         8.55566e+57
          1732.46360	         8.06103e+57
          1733.26990	         7.26011e+57
          1734.07620	         7.17990e+57
          1734.88250	         7.37302e+57
          1735.68880	         7.72464e+57
          1736.49510	         7.95516e+57
          1737.30140	         7.50474e+57
          1738.10770	         7.23683e+57
          1738.91400	         7.14148e+57
          1739.72030	         7.13189e+57
          1740.52660	         6.69203e+57
          1741.33290	         5.96477e+57
          1742.13920	         6.14455e+57
          1742.94550	         6.68034e+57
          1743.75180	         7.99030e+57
          1744.55810	         8.00104e+57
          1745.36440	         6.78877e+57
          1746.17070	         5.59265e+57
          1746.97700	         5.40981e+57
          1747.78330	         6.12669e+57
          1748.58960	         6.45405e+57
          1749.39590	         5.89989e+57
          1750.20220	         6.30709e+57
          1751.00850	         5.75185e+57
          1751.81480	         5.65784e+57
          1752.62110	         6.54908e+57
          1753.42740	         7.33701e+57
          1754.23370	         8.18539e+57
          1755.04000	         8.50259e+57
          1755.84630	         8.27894e+57
          1756.65260	         9.25888e+57
          1757.45890	         8.81159e+57
          1758.26520	         7.39086e+57
          1759.07150	         8.57865e+57
          1759.87780	         8.94727e+57
          1760.68410	         8.00197e+57
          1761.49040	         8.38796e+57
          1762.29670	         7.17508e+57
          1763.10300	         7.52918e+57
          1763.90930	         7.18320e+57
          1764.71560	         7.56864e+57
          1765.52190	         8.98408e+57
          1766.32820	         8.44518e+57
          1767.13450	         8.08891e+57
          1767.94080	         7.28354e+57
          1768.74710	         7.19382e+57
          1769.55340	         7.18451e+57
          1770.35970	         6.33959e+57
          1771.16600	         7.23687e+57
          1771.97230	         8.49145e+57
          1772.77860	         8.09818e+57
          1773.58490	         7.04014e+57
          1774.39120	         6.28593e+57
          1775.19750	         5.91245e+57
          1776.00380	         6.29536e+57
          1776.81010	         7.26447e+57
          1777.61640	         6.39803e+57
          1778.42270	         6.48959e+57
          1779.22900	         6.43060e+57
          1780.03530	         5.72434e+57
          1780.84160	         7.00551e+57
          1781.64790	         7.56303e+57
          1782.45420	         7.27568e+57
          1783.26050	         7.00950e+57
          1784.06680	         6.83366e+57
          1784.87310	         7.57147e+57
          1785.67940	         7.98922e+57
          1786.48570	         7.44807e+57
          1787.29200	         6.07708e+57
          1788.09830	         5.25876e+57
          1788.90460	         5.35773e+57
          1789.71090	         6.38005e+57
          1790.51720	         5.94087e+57
          1791.32350	         6.46710e+57
          1792.12980	         7.80141e+57
          1792.93610	         8.02594e+57
          1793.74240	         7.43770e+57
          1794.54870	         8.86922e+57
          1795.35500	         8.97729e+57
          1796.16130	         7.48901e+57
          1796.96760	         7.02645e+57
          1797.77390	         8.20176e+57
          1798.58020	         7.73793e+57
          1799.38650	         6.56523e+57
          1800.19280	         6.21184e+57
          1800.99910	         6.73426e+57
          1801.80540	         6.42245e+57
          1802.61170	         7.21987e+57
          1803.41800	         7.65537e+57
          1804.22430	         6.92485e+57
          1805.03060	         7.09042e+57
          1805.83690	         7.82570e+57
          1806.64320	         8.89862e+57
          1807.44950	         8.48173e+57
          1808.25580	         7.02901e+57
          1809.06210	         7.97772e+57
          1809.86840	         7.66225e+57
          1810.67470	         8.46834e+57
          1811.48100	         9.53518e+57
          1812.28730	         8.52070e+57
          1813.09360	         7.59558e+57
          1813.89990	         7.99954e+57
          1814.70620	         7.51617e+57
          1815.51250	         7.49531e+57
          1816.31880	         8.71476e+57
          1817.12510	         8.37855e+57
          1817.93140	         6.74556e+57
          1818.73770	         6.65096e+57
          1819.54400	         8.78390e+57
          1820.35030	         9.61433e+57
          1821.15660	         6.38116e+57
          1821.96290	         5.99784e+57
          1822.76920	         7.45517e+57
          1823.57550	         8.05687e+57
          1824.38180	         8.01069e+57
          1825.18810	         7.82433e+57
          1825.99440	         8.80754e+57
          1826.80070	         8.57872e+57
          1827.60700	         6.22671e+57
          1828.41330	         5.04479e+57
          1829.21960	         5.95162e+57
          1830.02590	         7.27950e+57
          1830.83220	         8.05397e+57
          1831.63850	         7.51357e+57
          1832.44480	         7.48699e+57
          1833.25110	         7.77742e+57
          1834.05740	         8.23762e+57
          1834.86370	         7.15230e+57
          1835.67000	         5.18853e+57
          1836.47630	         5.99825e+57
          1837.28260	         8.00339e+57
          1838.08890	         8.84735e+57
          1838.89520	         8.07737e+57
          1839.70150	         7.98407e+57
          1840.50780	         7.83102e+57
          1841.31410	         7.12453e+57
          1842.12040	         5.71515e+57
          1842.92670	         6.83776e+57
          1843.73300	         7.99499e+57
          1844.53930	         6.62952e+57
          1845.34560	         7.09406e+57
          1846.15190	         7.42910e+57
          1846.95820	         7.13729e+57
          1847.76450	         6.94524e+57
          1848.57080	         5.87034e+57
          1849.37710	         6.62492e+57
          1850.18340	         7.69155e+57
          1850.98970	         8.14162e+57
          1851.79600	         7.39386e+57
          1852.60230	         6.61314e+57
          1853.40860	         7.66996e+57
          1854.21490	         6.19254e+57
          1855.02120	         5.43560e+57
          1855.82750	         5.55302e+57
          1856.63380	         6.57766e+57
          1857.44010	         7.90140e+57
          1858.24640	         7.61555e+57
          1859.05270	         7.46120e+57
          1859.85900	         5.47972e+57
          1860.66530	         5.02574e+57
          1861.47160	         6.45938e+57
          1862.27790	         6.71024e+57
          1863.08420	         7.12220e+57
          1863.89050	         7.93389e+57
          1864.69680	         7.41473e+57
          1865.50310	         6.60477e+57
          1866.30940	         5.58947e+57
          1867.11570	         6.41632e+57
          1867.92200	         7.66122e+57
          1868.72830	         7.21639e+57
          1869.53460	         7.44041e+57
          1870.34090	         6.92118e+57
          1871.14720	         7.52062e+57
          1871.95350	         7.26844e+57
          1872.75980	         7.28383e+57
          1873.56610	         7.13646e+57
          1874.37240	         5.09947e+57
          1875.17870	         5.35275e+57
          1875.98500	         7.44512e+57
          1876.79130	         7.72356e+57
          1877.59760	         7.46413e+57
          1878.40390	         6.12617e+57
          1879.21020	         5.43929e+57
          1880.01650	         6.14597e+57
          1880.82280	         7.71775e+57
          1881.62910	         9.05575e+57
          1882.43540	         1.04736e+58
          1883.24170	         8.19775e+57
          1884.04800	         6.42364e+57
          1884.85430	         6.76122e+57
          1885.66060	         7.31598e+57
          1886.46690	         7.25762e+57
          1887.27320	         6.69836e+57
          1888.07950	         6.22574e+57
          1888.88580	         6.33513e+57
          1889.69210	         8.44647e+57
          1890.49840	         8.32850e+57
          1891.30470	         7.68684e+57
          1892.11100	         7.49965e+57
          1892.91730	         7.68181e+57
          1893.72360	         7.59214e+57
          1894.52990	         7.38723e+57
          1895.33620	         8.03123e+57
          1896.14250	         6.56791e+57
          1896.94880	         6.71906e+57
          1897.75510	         4.95583e+57
          1898.56140	         5.63251e+57
          1899.36770	         7.65162e+57
          1900.17400	         5.38092e+57
          1900.98030	         4.85995e+57
          1901.78660	         7.09926e+57
          1902.59290	         7.16846e+57
          1903.39920	         8.53465e+57
          1904.20550	         9.80572e+57
          1905.01180	         9.40973e+57
          1905.81810	         9.48076e+57
          1906.62440	         1.22330e+58
          1907.43070	         1.48790e+58
          1908.23700	         1.52530e+58
          1909.04330	         1.24112e+58
          1909.84960	         1.11517e+58
          1910.65590	         1.02365e+58
          1911.46220	         9.18073e+57
          1912.26850	         8.20149e+57
          1913.07480	         5.86421e+57
          1913.88110	         5.08045e+57
          1914.68740	         5.98410e+57
          1915.49370	         5.68139e+57
          1916.30000	         6.48558e+57
          1917.10630	         7.30122e+57
          1917.91260	         7.34655e+57
          1918.71890	         6.82752e+57
          1919.52520	         7.01894e+57
          1920.33150	         6.79490e+57
          1921.13780	         7.08328e+57
          1921.94410	         8.46230e+57
          1922.75040	         7.32926e+57
          1923.55670	         7.08749e+57
          1924.36300	         7.31703e+57
          1925.16930	         6.47582e+57
          1925.97560	         5.35790e+57
          1926.78190	         5.37904e+57
          1927.58820	         5.97353e+57
          1928.39450	         5.68836e+57
          1929.20080	         5.44491e+57
          1930.00710	         6.58380e+57
          1930.81340	         7.80305e+57
          1931.61970	         7.39119e+57
          1932.42600	         7.42902e+57
          1933.23230	         7.45166e+57
          1934.03860	         5.55723e+57
          1934.84490	         5.79436e+57
          1935.65120	         7.94985e+57
          1936.45750	         1.01619e+58
          1937.26380	         7.21869e+57
          1938.07010	         5.99327e+57
          1938.87640	         7.46719e+57
          1939.68270	         7.33922e+57
          1940.48900	         6.95794e+57
          1941.29530	         7.77192e+57
          1942.10160	         6.79577e+57
          1942.90790	         6.77996e+57
          1943.71420	         6.86231e+57
          1944.52050	         6.70212e+57
          1945.32680	         6.07859e+57
          1946.13310	         7.45707e+57
          1946.93940	         8.26034e+57
          1947.74570	         5.90774e+57
          1948.55200	         5.85900e+57
          1949.35830	         7.00796e+57
          1950.16460	         5.46978e+57
          1950.97090	         5.95709e+57
          1951.77720	         7.76633e+57
          1952.58350	         8.17217e+57
          1953.38980	         6.04696e+57
          1954.19610	         5.07905e+57
          1955.00240	         5.04122e+57
          1955.80870	         6.05554e+57
          1956.61500	         6.67235e+57
          1957.42130	         6.97107e+57
          1958.22760	         6.28533e+57
          1959.03390	         7.21106e+57
          1959.84020	         7.67530e+57
          1960.64650	         7.95923e+57
          1961.45280	         6.85963e+57
          1962.25910	         5.25200e+57
          1963.06540	         5.34560e+57
          1963.87170	         6.10445e+57
          1964.67800	         5.99485e+57
          1965.48430	         6.11479e+57
          1966.29060	         6.30324e+57
          1967.09690	         6.91264e+57
          1967.90320	         6.89772e+57
          1968.70950	         6.88623e+57
          1969.51580	         5.70772e+57
          1970.32210	         6.39314e+57
          1971.12840	         7.22848e+57
          1971.93470	         5.14810e+57
          1972.74100	         5.25793e+57
          1973.54730	         7.13019e+57
          1974.35360	         6.98305e+57
          1975.15990	         7.53743e+57
          1975.96620	         7.30835e+57
          1976.77250	         7.72692e+57
          1977.57880	         7.89477e+57
          1978.38510	         6.62539e+57
          1979.19140	         7.20090e+57
          1979.99770	         8.20752e+57
          1980.80400	         8.22679e+57
          1981.61030	         7.55851e+57
          1982.41660	         5.65207e+57
          1983.22290	         5.94827e+57
          1984.02920	         5.60329e+57
          1984.83550	         6.59917e+57
          1985.64180	         7.22603e+57
          1986.44810	         7.04360e+57
          1987.25440	         6.45300e+57
          1988.06070	         6.07209e+57
          1988.86700	         5.36362e+57
          1989.67330	         6.32959e+57
          1990.47960	         6.72422e+57
          1991.28590	         6.45699e+57
          1992.09220	         6.65454e+57
          1992.89850	         6.07540e+57
          1993.70480	         6.04631e+57
          1994.51110	         4.84329e+57
          1995.31740	         4.94328e+57
          1996.12370	         5.19659e+57
          1996.93000	         6.73715e+57
          1997.73630	         6.57509e+57
          1998.54260	         6.74765e+57
          1999.34890	         7.23760e+57
          2000.15520	         6.42400e+57
          2000.96150	         6.61960e+57
          2001.76780	         6.33244e+57
          2002.57410	         4.98618e+57
          2003.38040	         6.76571e+57
          2004.18670	         5.94864e+57
          2004.99300	         5.14820e+57
          2005.79930	         6.77094e+57
          2006.60560	         6.53441e+57
          2007.41190	         6.56265e+57
          2008.21820	         6.51697e+57
          2009.02450	         7.57005e+57
          2009.83080	         6.39792e+57
          2010.63710	         6.34627e+57
          2011.44340	         7.28895e+57
          2012.24970	         7.08623e+57
          2013.05600	         6.23226e+57
          2013.86230	         5.71555e+57
          2014.66860	         5.83172e+57
          2015.47490	         6.67086e+57
          2016.28120	         5.89986e+57
          2017.08750	         5.65721e+57
          2017.89380	         7.08602e+57
          2018.70010	         7.48529e+57
          2019.50640	         6.01433e+57
          2020.31270	         7.18771e+57
          2021.11900	         7.23997e+57
          2021.92530	         6.67387e+57
          2022.73160	         7.70314e+57
          2023.53790	         7.73932e+57
          2024.34420	         7.06390e+57
          2025.15050	         5.44528e+57
          2025.95680	         5.68008e+57
          2026.76310	         6.88240e+57
          2027.56940	         6.75867e+57
          2028.37570	         7.50634e+57
          2029.18200	         6.86636e+57
          2029.98830	         6.46774e+57
          2030.79460	         6.95166e+57
          2031.60090	         6.67849e+57
          2032.40720	         5.86748e+57
          2033.21350	         4.60391e+57
          2034.01980	         4.15492e+57
          2034.82610	         3.82854e+57
          2035.63240	         4.59492e+57
          2036.43870	         6.00279e+57
          2037.24500	         6.42795e+57
          2038.05130	         5.92023e+57
          2038.85760	         5.53775e+57
          2039.66390	         5.93168e+57
          2040.47020	         5.87842e+57
          2041.27650	         5.66943e+57
          2042.08280	         5.84133e+57
          2042.88910	         6.06924e+57
          2043.69540	         7.13472e+57
          2044.50170	         5.82004e+57
          2045.30800	         4.75079e+57
          2046.11430	         4.98833e+57
          2046.92060	         5.91853e+57
          2047.72690	         6.34834e+57
          2048.53320	         5.82113e+57
          2049.33950	         5.35822e+57
          2050.14580	         5.77423e+57
          2050.95210	         7.64121e+57
          2051.75840	         7.76863e+57
          2052.56470	         6.30717e+57
          2053.37100	         4.83539e+57
          2054.17730	         4.68208e+57
          2054.98360	         5.70483e+57
          2055.78990	         3.08461e+57
          2056.59620	         3.65358e+57
          2057.40250	         6.73579e+57
          2058.20880	         8.19786e+57
          2059.01510	         6.57103e+57
          2059.82140	         6.28404e+57
          2060.62770	         9.43164e+57
          2061.43400	         1.51988e+58
          2062.24030	         1.01264e+58
          2063.04660	         4.24079e+57
          2063.85290	         1.67300e+57
          2064.65920	        -2.68170e+57
          2065.46550	        -7.94748e+57
          2066.27180	        -7.76619e+57
          2067.07810	         4.22145e+57
          2067.88440	         5.15743e+57
          2068.69070	         4.45462e+57
          2069.49700	         5.06939e+57
          2070.30330	         4.71480e+57
          2071.10960	         6.96493e+57
          2071.91590	         7.21226e+57
          2072.72220	         4.62618e+57
          2073.52850	         4.70232e+57
          2074.33480	         5.34218e+57
          2075.14110	         5.62335e+57
          2075.94740	         5.68683e+57
          2076.75370	         5.17744e+57
          2077.56000	         5.27034e+57
          2078.36630	         6.58489e+57
          2079.17260	         6.22697e+57
          2079.97890	         6.10735e+57
          2080.78520	         6.78656e+57
          2081.59150	         4.81149e+57
          2082.39780	         4.41166e+57
          2083.20410	         2.88153e+57
          2084.01040	         2.50715e+57
          2084.81670	         3.48484e+57
          2085.62300	         3.01312e+57
          2086.42930	         2.89495e+57
          2087.23560	         2.71062e+57
          2088.04190	         1.85817e+57
          2088.84820	         2.48070e+57
          2089.65450	         2.17986e+57
          2090.46080	         1.14445e+56
          2091.26710	         2.01218e+57
          2092.07340	         3.64489e+57
          2092.87970	         2.45308e+57
          2093.68600	        -5.27850e+56
          2094.49230	         2.85549e+57
          2095.29860	         5.90466e+57
          2096.10490	         5.91488e+57
          2096.91120	         3.87986e+57
          2097.71750	         9.96281e+56
          2098.52380	         4.80998e+56
          2099.33010	         1.57340e+57
          2100.13640	         2.77016e+57
          2100.94270	         1.75994e+57
          2101.74900	         3.67822e+57
          2102.55530	         3.77768e+57
          2103.36160	         2.12946e+57
          2104.16790	         3.80592e+57
          2104.97420	         2.15709e+57
          2105.78050	         7.63190e+56
          2106.58680	         1.27746e+57
          2107.39310	        -2.49421e+57
          2108.19940	        -3.98506e+56
          2109.00570	        -2.46394e+56
          2109.81200	         5.88740e+54
          2110.61830	        -1.11996e+57
          2111.42460	        -1.07831e+57
          2112.23090	        -4.34093e+56
          2113.03720	         1.03119e+56
          2113.84350	         3.86833e+57
          2114.64980	         3.89250e+57
          2115.45610	        -1.22067e+57
          2116.26240	        -8.43562e+56
          2117.06870	        -3.13782e+57
          2117.87500	        -2.43264e+57
          2118.68130	         2.56899e+57
          2119.48760	         2.65688e+57
          2120.29390	         3.40794e+57
          2121.10020	        -4.59136e+57
          2121.90650	        -3.02022e+57
          2122.71280	         3.81808e+56
          2123.51910	         5.69634e+57
          2124.32540	        -7.14349e+55
          2125.13170	        -1.37899e+57
          2125.93800	         1.57158e+57
          2126.74430	        -5.50397e+57
          2127.55060	        -8.28919e+57
          2128.35690	        -6.93888e+57
          2129.16320	        -7.85738e+57
          2129.96950	        -2.53875e+57
          2130.77580	         3.39347e+57
          2131.58210	         4.75111e+57
          2132.38840	         4.69182e+57
          2133.19470	        -1.89357e+55
          2134.00100	        -9.80644e+55
          2134.80730	        -3.24201e+57
          2135.61360	         1.67140e+56
          2136.41990	         4.47074e+56
          2137.22620	         2.55036e+57
          2138.03250	         1.50123e+58
          2138.83880	        -1.48424e+57
          2139.64510	        -5.05328e+57
          2140.45140	        -7.60182e+57
          2141.25770	        -1.39650e+58
          2142.06400	        -9.73763e+57
          2142.87030	         4.90917e+57
          2143.67660	         5.21435e+57
          2144.48290	         9.29186e+57
          2145.28920	         1.75334e+57
          2146.09550	        -4.89313e+57
          2146.90180	        -8.72659e+57
          2147.70810	        -1.34205e+57
          2148.51440	         2.91032e+57
          2149.32070	        -1.86282e+58
          2150.12700	        -8.98136e+57
          2150.93330	        -1.06947e+58
          2151.73960	        -1.02812e+58
          2152.54590	        -7.23443e+57
          2153.35220	        -7.25831e+57
          2154.15850	        -1.10548e+58
          2154.96480	        -1.19737e+57
          2155.77110	         1.35492e+57
          2156.57740	        -6.28553e+57
          2157.38370	         1.79037e+57
          2158.19000	         1.86837e+57
          2158.99630	        -3.41975e+57
          2159.80260	        -1.36932e+58
          2160.60890	        -1.19956e+58
          2161.41520	        -4.97565e+57
          2162.22150	        -6.62893e+57
          2163.02780	        -9.72755e+56
          2163.83410	        -6.16000e+57
          2164.64040	        -4.27734e+57
          2165.44670	        -1.60532e+58
          2166.25300	        -1.03474e+58
          2167.05930	        -2.35101e+56
          2167.86560	        -4.22167e+57
          2168.67190	        -9.37804e+56
          2169.47820	        -1.50170e+58
          2170.28450	        -1.83280e+58
          2171.09080	        -1.61146e+58
          2171.89710	         3.88995e+56
          2172.70340	         4.25598e+57
          2173.50970	        -9.81666e+57
          2174.31600	        -5.47531e+57
          2175.12230	         1.69096e+57
          2175.92860	        -2.92838e+57
          2176.73490	        -1.24493e+58
          2177.54120	        -7.13064e+57
          2178.34750	         1.31354e+56
          2179.15380	                 nan
          2179.96010	                 nan
          2180.76640	                 nan
          2181.57270	                 nan
          2182.37900	                 nan
          2183.18530	                 nan
          2183.99160	                 nan
          2184.79790	                 nan
          2185.60420	                 nan
          2186.41050	                 nan
          2187.21680	                 nan
          2188.02310	                 nan
          2188.82940	                 nan
          2189.63570	                 nan
          2190.44200	                 nan
          2191.24830	                 nan
          2192.05460	                 nan
          2192.86090	                 nan
          2193.66720	                 nan
          2194.47350	                 nan
          2195.27980	                 nan
          2196.08610	                 nan
          2196.89240	                 nan
          2197.69870	                 nan
          2198.50500	                 nan
          2199.31130	                 nan
          2200.11760	                 nan
          2200.92390	                 nan
          2201.73020	                 nan
          2202.53650	                 nan
          2203.34280	                 nan
          2204.14910	                 nan
          2204.95540	                 nan
          2205.76170	                 nan
          2206.56800	                 nan
          2207.37430	                 nan
          2208.18060	                 nan
          2208.98690	                 nan
          2209.79320	                 nan
          2210.59950	                 nan
          2211.40580	                 nan
          2212.21210	                 nan
          2213.01840	                 nan
          2213.82470	                 nan
          2214.63100	                 nan
          2215.43730	         0.00000e+00
