#sample_455_stacked_spectrum_rest_UV-bands_median_H-alpha_noDC.txt
#median Lum: 1.66618e+42
#Rest-frame wavelength (A) | Luminosity (erg/s/A)
#
          1110.00000	         0.00000e+00
          1110.80630	         8.12402e+58
          1111.61260	         1.07410e+59
          1112.41890	         3.73459e+59
          1113.22520	        -1.14526e+59
          1114.03150	         1.24857e+58
          1114.83780	         1.52706e+59
          1115.64410	         1.21950e+59
          1116.45040	         9.33563e+58
          1117.25670	        -2.95548e+58
          1118.06300	         1.27143e+59
          1118.86930	        -2.22199e+58
          1119.67560	         1.40115e+59
          1120.48190	         1.07708e+58
          1121.28820	        -1.24299e+59
          1122.09450	         2.44588e+58
          1122.90080	         6.07989e+58
          1123.70710	         1.30065e+59
          1124.51340	         6.95844e+58
          1125.31970	         2.00752e+57
          1126.12600	         2.52295e+57
          1126.93230	         1.04734e+58
          1127.73860	        -4.47374e+58
          1128.54490	         7.81764e+57
          1129.35120	         4.31603e+58
          1130.15750	        -3.66973e+58
          1130.96380	        -9.41659e+57
          1131.77010	         7.14194e+58
          1132.57640	         2.09450e+58
          1133.38270	         1.06678e+58
          1134.18900	         7.73250e+56
          1134.99530	        -1.76113e+58
          1135.80160	        -9.69913e+57
          1136.60790	         1.10899e+58
          1137.41420	        -5.22517e+57
          1138.22050	         3.56888e+58
          1139.02680	         3.19857e+58
          1139.83310	         1.73712e+58
          1140.63940	         1.32288e+58
          1141.44570	        -2.61433e+58
          1142.25200	         8.36903e+57
          1143.05830	         3.92636e+58
          1143.86460	         2.82593e+58
          1144.67090	         1.23963e+58
          1145.47720	         5.35083e+57
          1146.28350	         1.64394e+58
          1147.08980	         3.31318e+58
          1147.89610	         2.96861e+58
          1148.70240	         2.50823e+58
          1149.50870	         2.06353e+58
          1150.31500	         1.94166e+58
          1151.12130	         1.85584e+58
          1151.92760	         4.63938e+57
          1152.73390	        -2.86588e+57
          1153.54020	         3.84946e+57
          1154.34650	         2.82261e+58
          1155.15280	         2.35576e+58
          1155.95910	         1.54161e+57
          1156.76540	        -1.09620e+57
          1157.57170	         7.50603e+57
          1158.37800	        -3.99904e+57
          1159.18430	        -9.19695e+57
          1159.99060	         1.38540e+57
          1160.79690	         7.36815e+57
          1161.60320	         1.84560e+58
          1162.40950	         2.12020e+58
          1163.21580	         8.08237e+57
          1164.02210	         1.66125e+58
          1164.82840	         6.31190e+57
          1165.63470	         2.11212e+58
          1166.44100	         3.21159e+58
          1167.24730	         2.55434e+58
          1168.05360	         2.41100e+57
          1168.85990	         1.31853e+58
          1169.66620	         1.43237e+58
          1170.47250	         1.96677e+58
          1171.27880	         1.11013e+58
          1172.08510	         6.10185e+57
          1172.89140	         1.70429e+58
          1173.69770	         1.50303e+57
          1174.50400	         4.81716e+57
          1175.31030	         1.16056e+58
          1176.11660	         1.71806e+58
          1176.92290	         1.49826e+58
          1177.72920	         1.14477e+58
          1178.53550	         9.45397e+57
          1179.34180	         1.87830e+57
          1180.14810	         5.68013e+57
          1180.95440	         8.60645e+57
          1181.76070	         6.92754e+57
          1182.56700	         1.01520e+58
          1183.37330	         8.87604e+57
          1184.17960	         1.02164e+58
          1184.98590	         9.39864e+57
          1185.79220	         1.37121e+58
          1186.59850	         9.27509e+57
          1187.40480	         7.55525e+57
          1188.21110	         1.29694e+58
          1189.01740	         8.90166e+57
          1189.82370	         8.27409e+57
          1190.63000	         1.30983e+58
          1191.43630	         1.51621e+58
          1192.24260	         1.04224e+58
          1193.04890	         9.76878e+57
          1193.85520	         1.04133e+58
          1194.66150	         1.15061e+58
          1195.46780	         1.27002e+58
          1196.27410	         1.33345e+58
          1197.08040	         1.34444e+58
          1197.88670	         1.76481e+58
          1198.69300	         1.72028e+58
          1199.49930	         1.30540e+58
          1200.30560	         9.02340e+57
          1201.11190	         1.19110e+58
          1201.91820	         1.20700e+58
          1202.72450	         1.13626e+58
          1203.53080	         1.61055e+58
          1204.33710	         1.10041e+58
          1205.14340	         7.15678e+57
          1205.94970	         4.23946e+57
          1206.75600	         4.96543e+57
          1207.56230	         4.30845e+57
          1208.36860	         9.16112e+57
          1209.17490	         2.60397e+57
          1209.98120	         3.78065e+57
          1210.78750	         7.46049e+57
          1211.59380	         1.32294e+58
          1212.40010	         1.97918e+58
          1213.20640	         2.11060e+58
          1214.01270	         2.11165e+58
          1214.81900	         2.53944e+58
          1215.62530	         4.71253e+58
          1216.43160	         9.24122e+58
          1217.23790	         1.54865e+59
          1218.04420	         1.15819e+59
          1218.85050	         8.64671e+58
          1219.65680	         5.59274e+58
          1220.46310	         3.60511e+58
          1221.26940	         2.27364e+58
          1222.07570	         1.20916e+58
          1222.88200	         1.07600e+58
          1223.68830	         1.11712e+58
          1224.49460	         7.98897e+57
          1225.30090	         4.05672e+57
          1226.10720	         2.93115e+57
          1226.91350	         5.63025e+57
          1227.71980	         1.05830e+58
          1228.52610	         1.30794e+58
          1229.33240	         8.77941e+57
          1230.13870	         8.76810e+57
          1230.94500	         8.55940e+57
          1231.75130	         7.11890e+57
          1232.55760	         1.04724e+58
          1233.36390	         8.63998e+57
          1234.17020	         1.03198e+58
          1234.97650	         8.56201e+57
          1235.78280	         6.30082e+57
          1236.58910	         8.06400e+57
          1237.39540	         1.11489e+58
          1238.20170	         1.16992e+58
          1239.00800	         1.30496e+58
          1239.81430	         1.27273e+58
          1240.62060	         1.11756e+58
          1241.42690	         9.94237e+57
          1242.23320	         1.04119e+58
          1243.03950	         8.48240e+57
          1243.84580	         8.88410e+57
          1244.65210	         9.68517e+57
          1245.45840	         8.61043e+57
          1246.26470	         6.88190e+57
          1247.07100	         7.10019e+57
          1247.87730	         8.30535e+57
          1248.68360	         6.15375e+57
          1249.48990	         1.00447e+58
          1250.29620	         1.21862e+58
          1251.10250	         6.92647e+57
          1251.90880	         4.33224e+57
          1252.71510	         8.08089e+57
          1253.52140	         8.34401e+57
          1254.32770	         8.56721e+57
          1255.13400	         1.26191e+58
          1255.94030	         1.24924e+58
          1256.74660	         1.06834e+58
          1257.55290	         1.20778e+58
          1258.35920	         8.21329e+57
          1259.16550	         6.79858e+57
          1259.97180	         6.54754e+57
          1260.77810	         9.03467e+57
          1261.58440	         1.22450e+58
          1262.39070	         1.04802e+58
          1263.19700	         8.76101e+57
          1264.00330	         9.74437e+57
          1264.80960	         1.00658e+58
          1265.61590	         1.06064e+58
          1266.42220	         1.10636e+58
          1267.22850	         1.01981e+58
          1268.03480	         1.39312e+58
          1268.84110	         1.62100e+58
          1269.64740	         1.41942e+58
          1270.45370	         1.30756e+58
          1271.26000	         1.04171e+58
          1272.06630	         9.62330e+57
          1272.87260	         8.84477e+57
          1273.67890	         1.03919e+58
          1274.48520	         1.16211e+58
          1275.29150	         1.21990e+58
          1276.09780	         1.15808e+58
          1276.90410	         1.57903e+58
          1277.71040	         1.41304e+58
          1278.51670	         1.08531e+58
          1279.32300	         1.28333e+58
          1280.12930	         1.36455e+58
          1280.93560	         1.42430e+58
          1281.74190	         1.49757e+58
          1282.54820	         1.38624e+58
          1283.35450	         1.01594e+58
          1284.16080	         8.79833e+57
          1284.96710	         1.08804e+58
          1285.77340	         1.20237e+58
          1286.57970	         1.11884e+58
          1287.38600	         1.40662e+58
          1288.19230	         1.75888e+58
          1288.99860	         1.46320e+58
          1289.80490	         1.01374e+58
          1290.61120	         1.29668e+58
          1291.41750	         1.49665e+58
          1292.22380	         1.21381e+58
          1293.03010	         9.79288e+57
          1293.83640	         1.18338e+58
          1294.64270	         1.11150e+58
          1295.44900	         1.03209e+58
          1296.25530	         9.99315e+57
          1297.06160	         9.78984e+57
          1297.86790	         9.40676e+57
          1298.67420	         9.99113e+57
          1299.48050	         9.91923e+57
          1300.28680	         1.09101e+58
          1301.09310	         7.88702e+57
          1301.89940	         4.79805e+57
          1302.70570	         7.45012e+57
          1303.51200	         8.08585e+57
          1304.31830	         1.09777e+58
          1305.12460	         1.15095e+58
          1305.93090	         1.11344e+58
          1306.73720	         1.30711e+58
          1307.54350	         1.42317e+58
          1308.34980	         1.54676e+58
          1309.15610	         1.62201e+58
          1309.96240	         1.58738e+58
          1310.76870	         1.43310e+58
          1311.57500	         1.22317e+58
          1312.38130	         1.16456e+58
          1313.18760	         1.32731e+58
          1313.99390	         1.44091e+58
          1314.80020	         1.64179e+58
          1315.60650	         1.59077e+58
          1316.41280	         1.15044e+58
          1317.21910	         1.14379e+58
          1318.02540	         1.39670e+58
          1318.83170	         1.34244e+58
          1319.63800	         1.23314e+58
          1320.44430	         1.19055e+58
          1321.25060	         1.22789e+58
          1322.05690	         1.24753e+58
          1322.86320	         1.25797e+58
          1323.66950	         1.25695e+58
          1324.47580	         1.07135e+58
          1325.28210	         1.07366e+58
          1326.08840	         1.02404e+58
          1326.89470	         1.15829e+58
          1327.70100	         1.18940e+58
          1328.50730	         9.57090e+57
          1329.31360	         1.02673e+58
          1330.11990	         9.56087e+57
          1330.92620	         8.66188e+57
          1331.73250	         1.04092e+58
          1332.53880	         8.97350e+57
          1333.34510	         9.08944e+57
          1334.15140	         9.88785e+57
          1334.95770	         9.86088e+57
          1335.76400	         1.04703e+58
          1336.57030	         1.12616e+58
          1337.37660	         9.91500e+57
          1338.18290	         9.39252e+57
          1338.98920	         1.00528e+58
          1339.79550	         1.04297e+58
          1340.60180	         1.18594e+58
          1341.40810	         1.36691e+58
          1342.21440	         1.24512e+58
          1343.02070	         1.18071e+58
          1343.82700	         1.44183e+58
          1344.63330	         1.37930e+58
          1345.43960	         1.25170e+58
          1346.24590	         1.06942e+58
          1347.05220	         1.16940e+58
          1347.85850	         1.09538e+58
          1348.66480	         1.12192e+58
          1349.47110	         1.20357e+58
          1350.27740	         1.25595e+58
          1351.08370	         1.20852e+58
          1351.89000	         1.23271e+58
          1352.69630	         1.19543e+58
          1353.50260	         1.02873e+58
          1354.30890	         1.14488e+58
          1355.11520	         1.20379e+58
          1355.92150	         1.24282e+58
          1356.72780	         9.39769e+57
          1357.53410	         8.16870e+57
          1358.34040	         1.09337e+58
          1359.14670	         9.41303e+57
          1359.95300	         9.22464e+57
          1360.75930	         1.06164e+58
          1361.56560	         1.09430e+58
          1362.37190	         1.23818e+58
          1363.17820	         1.13047e+58
          1363.98450	         1.20283e+58
          1364.79080	         1.30625e+58
          1365.59710	         1.22294e+58
          1366.40340	         1.17123e+58
          1367.20970	         1.07448e+58
          1368.01600	         9.28695e+57
          1368.82230	         9.07629e+57
          1369.62860	         9.93212e+57
          1370.43490	         1.11138e+58
          1371.24120	         1.19236e+58
          1372.04750	         1.07967e+58
          1372.85380	         1.17637e+58
          1373.66010	         1.11489e+58
          1374.46640	         9.64225e+57
          1375.27270	         9.97175e+57
          1376.07900	         8.82134e+57
          1376.88530	         8.78325e+57
          1377.69160	         8.71887e+57
          1378.49790	         7.97053e+57
          1379.30420	         7.86868e+57
          1380.11050	         9.49713e+57
          1380.91680	         9.69574e+57
          1381.72310	         9.39242e+57
          1382.52940	         8.68254e+57
          1383.33570	         9.38920e+57
          1384.14200	         9.83912e+57
          1384.94830	         1.05228e+58
          1385.75460	         1.12696e+58
          1386.56090	         1.13018e+58
          1387.36720	         1.21143e+58
          1388.17350	         1.26089e+58
          1388.97980	         1.04592e+58
          1389.78610	         9.71239e+57
          1390.59240	         9.08189e+57
          1391.39870	         7.64084e+57
          1392.20500	         8.08332e+57
          1393.01130	         7.11197e+57
          1393.81760	         7.64336e+57
          1394.62390	         8.42269e+57
          1395.43020	         7.47067e+57
          1396.23650	         6.16715e+57
          1397.04280	         6.33013e+57
          1397.84910	         8.02363e+57
          1398.65540	         1.01482e+58
          1399.46170	         9.67858e+57
          1400.26800	         7.26251e+57
          1401.07430	         6.79234e+57
          1401.88060	         7.91992e+57
          1402.68690	         9.21601e+57
          1403.49320	         9.84740e+57
          1404.29950	         8.30655e+57
          1405.10580	         9.60844e+57
          1405.91210	         1.07024e+58
          1406.71840	         9.61587e+57
          1407.52470	         1.04773e+58
          1408.33100	         1.03196e+58
          1409.13730	         1.18153e+58
          1409.94360	         1.28321e+58
          1410.74990	         1.21101e+58
          1411.55620	         9.91353e+57
          1412.36250	         9.90606e+57
          1413.16880	         9.89999e+57
          1413.97510	         8.88011e+57
          1414.78140	         9.38666e+57
          1415.58770	         1.08755e+58
          1416.39400	         1.15991e+58
          1417.20030	         9.52199e+57
          1418.00660	         9.45746e+57
          1418.81290	         1.04710e+58
          1419.61920	         1.12600e+58
          1420.42550	         1.20477e+58
          1421.23180	         1.29163e+58
          1422.03810	         1.22400e+58
          1422.84440	         1.07976e+58
          1423.65070	         1.18376e+58
          1424.45700	         1.00473e+58
          1425.26330	         7.73270e+57
          1426.06960	         8.62441e+57
          1426.87590	         9.59413e+57
          1427.68220	         9.47000e+57
          1428.48850	         1.02341e+58
          1429.29480	         1.05791e+58
          1430.10110	         9.48190e+57
          1430.90740	         8.65650e+57
          1431.71370	         8.48695e+57
          1432.52000	         8.64572e+57
          1433.32630	         8.30180e+57
          1434.13260	         8.04467e+57
          1434.93890	         8.44355e+57
          1435.74520	         9.43299e+57
          1436.55150	         1.01941e+58
          1437.35780	         9.80224e+57
          1438.16410	         9.88783e+57
          1438.97040	         9.28071e+57
          1439.77670	         9.36521e+57
          1440.58300	         9.87236e+57
          1441.38930	         9.82102e+57
          1442.19560	         1.02677e+58
          1443.00190	         9.90001e+57
          1443.80820	         1.05777e+58
          1444.61450	         9.56053e+57
          1445.42080	         8.68322e+57
          1446.22710	         1.06775e+58
          1447.03340	         9.98446e+57
          1447.83970	         1.07620e+58
          1448.64600	         1.06012e+58
          1449.45230	         1.03760e+58
          1450.25860	         9.92167e+57
          1451.06490	         8.45892e+57
          1451.87120	         7.73740e+57
          1452.67750	         7.27496e+57
          1453.48380	         8.09042e+57
          1454.29010	         7.83865e+57
          1455.09640	         7.77215e+57
          1455.90270	         9.61671e+57
          1456.70900	         9.75636e+57
          1457.51530	         1.00805e+58
          1458.32160	         1.11670e+58
          1459.12790	         1.08660e+58
          1459.93420	         9.39656e+57
          1460.74050	         8.43571e+57
          1461.54680	         8.89177e+57
          1462.35310	         7.96968e+57
          1463.15940	         8.91402e+57
          1463.96570	         1.24235e+58
          1464.77200	         1.32382e+58
          1465.57830	         1.13293e+58
          1466.38460	         9.87131e+57
          1467.19090	         8.70533e+57
          1467.99720	         8.37077e+57
          1468.80350	         9.43365e+57
          1469.60980	         9.62069e+57
          1470.41610	         1.09489e+58
          1471.22240	         9.70784e+57
          1472.02870	         9.66849e+57
          1472.83500	         1.13302e+58
          1473.64130	         1.06798e+58
          1474.44760	         1.03049e+58
          1475.25390	         9.03127e+57
          1476.06020	         7.96580e+57
          1476.86650	         8.49871e+57
          1477.67280	         8.27849e+57
          1478.47910	         7.00600e+57
          1479.28540	         6.54730e+57
          1480.09170	         8.64031e+57
          1480.89800	         9.22058e+57
          1481.70430	         8.86409e+57
          1482.51060	         8.11707e+57
          1483.31690	         7.83373e+57
          1484.12320	         7.49647e+57
          1484.92950	         6.98381e+57
          1485.73580	         8.20990e+57
          1486.54210	         1.00638e+58
          1487.34840	         1.07173e+58
          1488.15470	         1.02528e+58
          1488.96100	         8.83131e+57
          1489.76730	         9.18064e+57
          1490.57360	         9.09516e+57
          1491.37990	         7.90239e+57
          1492.18620	         8.33816e+57
          1492.99250	         8.60449e+57
          1493.79880	         8.80135e+57
          1494.60510	         8.68409e+57
          1495.41140	         8.08648e+57
          1496.21770	         8.83014e+57
          1497.02400	         1.02050e+58
          1497.83030	         9.14061e+57
          1498.63660	         7.38950e+57
          1499.44290	         6.81928e+57
          1500.24920	         7.77213e+57
          1501.05550	         8.10397e+57
          1501.86180	         8.34722e+57
          1502.66810	         8.68020e+57
          1503.47440	         8.87604e+57
          1504.28070	         8.66919e+57
          1505.08700	         9.57992e+57
          1505.89330	         1.00549e+58
          1506.69960	         8.22093e+57
          1507.50590	         8.35815e+57
          1508.31220	         9.97378e+57
          1509.11850	         9.82638e+57
          1509.92480	         8.82041e+57
          1510.73110	         8.82803e+57
          1511.53740	         7.89686e+57
          1512.34370	         7.64040e+57
          1513.15000	         8.98677e+57
          1513.95630	         1.03980e+58
          1514.76260	         9.45402e+57
          1515.56890	         8.42931e+57
          1516.37520	         9.22156e+57
          1517.18150	         8.90595e+57
          1517.98780	         7.30558e+57
          1518.79410	         7.42125e+57
          1519.60040	         8.72156e+57
          1520.40670	         9.03626e+57
          1521.21300	         9.60162e+57
          1522.01930	         9.24807e+57
          1522.82560	         9.45219e+57
          1523.63190	         1.02403e+58
          1524.43820	         8.60142e+57
          1525.24450	         6.19612e+57
          1526.05080	         5.89972e+57
          1526.85710	         6.22178e+57
          1527.66340	         6.89120e+57
          1528.46970	         8.13415e+57
          1529.27600	         7.61824e+57
          1530.08230	         7.59659e+57
          1530.88860	         7.81337e+57
          1531.69490	         8.56272e+57
          1532.50120	         9.92712e+57
          1533.30750	         1.04028e+58
          1534.11380	         9.10483e+57
          1534.92010	         9.41419e+57
          1535.72640	         9.92400e+57
          1536.53270	         9.74950e+57
          1537.33900	         9.20564e+57
          1538.14530	         9.20449e+57
          1538.95160	         9.66364e+57
          1539.75790	         8.72120e+57
          1540.56420	         8.72159e+57
          1541.37050	         8.94870e+57
          1542.17680	         7.75499e+57
          1542.98310	         7.50742e+57
          1543.78940	         8.04907e+57
          1544.59570	         7.43585e+57
          1545.40200	         7.81042e+57
          1546.20830	         9.45116e+57
          1547.01460	         1.05562e+58
          1547.82090	         1.17222e+58
          1548.62720	         1.17787e+58
          1549.43350	         1.24183e+58
          1550.23980	         1.08322e+58
          1551.04610	         1.16903e+58
          1551.85240	         1.26445e+58
          1552.65870	         1.15134e+58
          1553.46500	         1.06003e+58
          1554.27130	         1.01411e+58
          1555.07760	         9.89773e+57
          1555.88390	         8.61250e+57
          1556.69020	         9.48372e+57
          1557.49650	         8.69651e+57
          1558.30280	         8.02552e+57
          1559.10910	         9.42611e+57
          1559.91540	         9.61728e+57
          1560.72170	         8.09419e+57
          1561.52800	         8.13879e+57
          1562.33430	         8.42432e+57
          1563.14060	         7.63505e+57
          1563.94690	         7.99179e+57
          1564.75320	         8.98193e+57
          1565.55950	         7.40625e+57
          1566.36580	         7.36292e+57
          1567.17210	         9.12525e+57
          1567.97840	         9.22422e+57
          1568.78470	         9.11868e+57
          1569.59100	         8.89860e+57
          1570.39730	         8.10625e+57
          1571.20360	         7.30835e+57
          1572.00990	         7.05428e+57
          1572.81620	         7.51763e+57
          1573.62250	         9.30450e+57
          1574.42880	         9.28276e+57
          1575.23510	         8.13256e+57
          1576.04140	         8.29398e+57
          1576.84770	         8.36678e+57
          1577.65400	         8.41211e+57
          1578.46030	         9.60658e+57
          1579.26660	         1.10531e+58
          1580.07290	         9.29195e+57
          1580.87920	         7.43692e+57
          1581.68550	         8.03401e+57
          1582.49180	         8.08647e+57
          1583.29810	         6.60863e+57
          1584.10440	         7.30057e+57
          1584.91070	         8.82288e+57
          1585.71700	         9.08974e+57
          1586.52330	         8.52346e+57
          1587.32960	         8.85021e+57
          1588.13590	         9.02700e+57
          1588.94220	         8.45451e+57
          1589.74850	         8.76390e+57
          1590.55480	         9.33652e+57
          1591.36110	         8.23981e+57
          1592.16740	         7.63822e+57
          1592.97370	         8.12875e+57
          1593.78000	         8.43927e+57
          1594.58630	         8.75111e+57
          1595.39260	         8.68206e+57
          1596.19890	         8.71711e+57
          1597.00520	         9.14160e+57
          1597.81150	         8.01604e+57
          1598.61780	         6.78549e+57
          1599.42410	         6.70185e+57
          1600.23040	         7.09139e+57
          1601.03670	         7.58327e+57
          1601.84300	         6.62087e+57
          1602.64930	         7.19669e+57
          1603.45560	         8.58469e+57
          1604.26190	         7.33182e+57
          1605.06820	         7.05691e+57
          1605.87450	         7.54534e+57
          1606.68080	         6.83856e+57
          1607.48710	         5.93886e+57
          1608.29340	         6.30417e+57
          1609.09970	         7.48307e+57
          1609.90600	         7.73684e+57
          1610.71230	         6.33547e+57
          1611.51860	         6.58512e+57
          1612.32490	         7.03310e+57
          1613.13120	         7.27904e+57
          1613.93750	         7.79826e+57
          1614.74380	         8.26776e+57
          1615.55010	         8.91639e+57
          1616.35640	         1.00676e+58
          1617.16270	         1.06098e+58
          1617.96900	         1.05633e+58
          1618.77530	         8.35887e+57
          1619.58160	         7.26594e+57
          1620.38790	         7.51654e+57
          1621.19420	         9.23461e+57
          1622.00050	         9.49070e+57
          1622.80680	         9.30753e+57
          1623.61310	         9.06301e+57
          1624.41940	         8.68987e+57
          1625.22570	         8.91491e+57
          1626.03200	         8.30141e+57
          1626.83830	         8.45131e+57
          1627.64460	         7.86523e+57
          1628.45090	         7.54067e+57
          1629.25720	         9.55420e+57
          1630.06350	         9.31936e+57
          1630.86980	         6.69380e+57
          1631.67610	         8.00904e+57
          1632.48240	         9.40798e+57
          1633.28870	         8.43263e+57
          1634.09500	         7.84960e+57
          1634.90130	         1.04420e+58
          1635.70760	         1.03882e+58
          1636.51390	         7.83558e+57
          1637.32020	         7.12649e+57
          1638.12650	         8.67796e+57
          1638.93280	         9.74694e+57
          1639.73910	         1.09166e+58
          1640.54540	         1.06384e+58
          1641.35170	         8.82303e+57
          1642.15800	         9.39195e+57
          1642.96430	         9.13306e+57
          1643.77060	         9.13849e+57
          1644.57690	         7.61294e+57
          1645.38320	         8.15085e+57
          1646.18950	         7.12842e+57
          1646.99580	         8.73183e+57
          1647.80210	         9.35549e+57
          1648.60840	         8.32912e+57
          1649.41470	         8.37069e+57
          1650.22100	         7.20675e+57
          1651.02730	         6.80227e+57
          1651.83360	         6.89088e+57
          1652.63990	         7.59681e+57
          1653.44620	         8.98031e+57
          1654.25250	         8.43377e+57
          1655.05880	         7.14300e+57
          1655.86510	         7.83702e+57
          1656.67140	         8.32530e+57
          1657.47770	         7.54213e+57
          1658.28400	         8.75664e+57
          1659.09030	         9.14922e+57
          1659.89660	         8.24500e+57
          1660.70290	         9.18121e+57
          1661.50920	         9.91037e+57
          1662.31550	         8.20271e+57
          1663.12180	         7.84541e+57
          1663.92810	         9.71485e+57
          1664.73440	         1.13422e+58
          1665.54070	         1.08144e+58
          1666.34700	         1.17028e+58
          1667.15330	         1.12533e+58
          1667.95960	         8.43269e+57
          1668.76590	         6.45635e+57
          1669.57220	         6.68397e+57
          1670.37850	         7.41495e+57
          1671.18480	         7.79292e+57
          1671.99110	         7.85062e+57
          1672.79740	         6.96328e+57
          1673.60370	         6.71772e+57
          1674.41000	         7.03509e+57
          1675.21630	         7.23718e+57
          1676.02260	         6.44628e+57
          1676.82890	         6.10337e+57
          1677.63520	         7.35056e+57
          1678.44150	         7.69044e+57
          1679.24780	         8.17783e+57
          1680.05410	         8.86179e+57
          1680.86040	         7.69357e+57
          1681.66670	         7.42499e+57
          1682.47300	         7.76085e+57
          1683.27930	         7.94709e+57
          1684.08560	         8.91186e+57
          1684.89190	         8.71401e+57
          1685.69820	         6.18260e+57
          1686.50450	         5.18902e+57
          1687.31080	         6.75297e+57
          1688.11710	         7.67169e+57
          1688.92340	         6.46174e+57
          1689.72970	         5.70799e+57
          1690.53600	         6.70218e+57
          1691.34230	         7.28202e+57
          1692.14860	         7.04165e+57
          1692.95490	         7.36711e+57
          1693.76120	         6.77787e+57
          1694.56750	         6.80424e+57
          1695.37380	         9.40116e+57
          1696.18010	         9.38000e+57
          1696.98640	         8.73060e+57
          1697.79270	         8.01576e+57
          1698.59900	         8.03155e+57
          1699.40530	         7.76238e+57
          1700.21160	         7.79212e+57
          1701.01790	         8.80226e+57
          1701.82420	         7.71319e+57
          1702.63050	         7.37326e+57
          1703.43680	         8.59837e+57
          1704.24310	         9.04361e+57
          1705.04940	         7.55140e+57
          1705.85570	         8.17873e+57
          1706.66200	         9.17282e+57
          1707.46830	         8.45752e+57
          1708.27460	         7.79240e+57
          1709.08090	         6.33580e+57
          1709.88720	         6.19550e+57
          1710.69350	         6.39977e+57
          1711.49980	         5.90117e+57
          1712.30610	         5.91493e+57
          1713.11240	         7.87422e+57
          1713.91870	         7.15644e+57
          1714.72500	         6.06975e+57
          1715.53130	         8.03301e+57
          1716.33760	         8.69888e+57
          1717.14390	         8.41749e+57
          1717.95020	         8.45695e+57
          1718.75650	         8.28007e+57
          1719.56280	         8.16347e+57
          1720.36910	         7.51442e+57
          1721.17540	         6.69603e+57
          1721.98170	         6.53686e+57
          1722.78800	         6.45629e+57
          1723.59430	         7.22027e+57
          1724.40060	         8.80448e+57
          1725.20690	         8.80733e+57
          1726.01320	         8.48542e+57
          1726.81950	         7.94603e+57
          1727.62580	         7.74676e+57
          1728.43210	         5.75648e+57
          1729.23840	         6.51352e+57
          1730.04470	         7.24322e+57
          1730.85100	         7.79987e+57
          1731.65730	         7.43021e+57
          1732.46360	         7.52530e+57
          1733.26990	         7.02710e+57
          1734.07620	         6.52239e+57
          1734.88250	         7.59740e+57
          1735.68880	         7.88723e+57
          1736.49510	         7.97601e+57
          1737.30140	         8.46556e+57
          1738.10770	         7.28209e+57
          1738.91400	         6.99558e+57
          1739.72030	         7.17771e+57
          1740.52660	         6.52578e+57
          1741.33290	         6.17065e+57
          1742.13920	         6.24777e+57
          1742.94550	         6.88206e+57
          1743.75180	         7.92458e+57
          1744.55810	         8.00328e+57
          1745.36440	         7.65126e+57
          1746.17070	         5.37361e+57
          1746.97700	         5.21329e+57
          1747.78330	         6.35791e+57
          1748.58960	         7.48604e+57
          1749.39590	         7.34526e+57
          1750.20220	         6.97396e+57
          1751.00850	         6.27398e+57
          1751.81480	         6.42292e+57
          1752.62110	         7.46107e+57
          1753.42740	         8.89656e+57
          1754.23370	         7.18998e+57
          1755.04000	         6.58131e+57
          1755.84630	         7.90937e+57
          1756.65260	         8.68203e+57
          1757.45890	         8.99917e+57
          1758.26520	         7.77965e+57
          1759.07150	         8.54739e+57
          1759.87780	         8.71477e+57
          1760.68410	         8.19641e+57
          1761.49040	         8.02272e+57
          1762.29670	         7.34125e+57
          1763.10300	         7.37948e+57
          1763.90930	         7.76192e+57
          1764.71560	         8.20578e+57
          1765.52190	         7.53699e+57
          1766.32820	         7.82548e+57
          1767.13450	         8.28873e+57
          1767.94080	         6.73871e+57
          1768.74710	         6.54335e+57
          1769.55340	         7.09074e+57
          1770.35970	         5.89923e+57
          1771.16600	         7.21874e+57
          1771.97230	         8.52695e+57
          1772.77860	         8.86734e+57
          1773.58490	         6.80792e+57
          1774.39120	         5.22520e+57
          1775.19750	         5.59207e+57
          1776.00380	         5.86005e+57
          1776.81010	         6.48946e+57
          1777.61640	         6.62932e+57
          1778.42270	         6.93030e+57
          1779.22900	         6.89930e+57
          1780.03530	         5.82676e+57
          1780.84160	         7.06508e+57
          1781.64790	         8.23947e+57
          1782.45420	         7.26556e+57
          1783.26050	         6.34274e+57
          1784.06680	         7.11672e+57
          1784.87310	         7.52435e+57
          1785.67940	         7.13023e+57
          1786.48570	         6.88876e+57
          1787.29200	         6.41200e+57
          1788.09830	         6.47080e+57
          1788.90460	         5.71296e+57
          1789.71090	         4.64404e+57
          1790.51720	         5.46153e+57
          1791.32350	         8.27281e+57
          1792.12980	         8.50114e+57
          1792.93610	         8.23369e+57
          1793.74240	         7.87961e+57
          1794.54870	         7.96490e+57
          1795.35500	         8.12704e+57
          1796.16130	         7.70663e+57
          1796.96760	         7.27374e+57
          1797.77390	         7.04152e+57
          1798.58020	         7.05018e+57
          1799.38650	         7.30779e+57
          1800.19280	         7.22406e+57
          1800.99910	         8.11510e+57
          1801.80540	         7.58849e+57
          1802.61170	         6.49475e+57
          1803.41800	         7.09599e+57
          1804.22430	         7.35260e+57
          1805.03060	         6.68477e+57
          1805.83690	         7.66542e+57
          1806.64320	         7.37731e+57
          1807.44950	         7.42978e+57
          1808.25580	         7.58816e+57
          1809.06210	         6.84114e+57
          1809.86840	         7.95216e+57
          1810.67470	         7.95952e+57
          1811.48100	         9.40780e+57
          1812.28730	         8.94602e+57
          1813.09360	         7.36810e+57
          1813.89990	         7.65655e+57
          1814.70620	         7.41278e+57
          1815.51250	         7.93699e+57
          1816.31880	         8.33603e+57
          1817.12510	         7.68778e+57
          1817.93140	         5.96611e+57
          1818.73770	         6.92474e+57
          1819.54400	         8.45233e+57
          1820.35030	         8.44224e+57
          1821.15660	         6.25122e+57
          1821.96290	         6.30726e+57
          1822.76920	         7.17542e+57
          1823.57550	         6.95068e+57
          1824.38180	         7.23130e+57
          1825.18810	         8.06258e+57
          1825.99440	         9.07438e+57
          1826.80070	         7.93872e+57
          1827.60700	         5.90625e+57
          1828.41330	         5.31168e+57
          1829.21960	         6.06481e+57
          1830.02590	         6.53540e+57
          1830.83220	         7.48839e+57
          1831.63850	         7.95543e+57
          1832.44480	         7.34294e+57
          1833.25110	         8.45497e+57
          1834.05740	         8.68699e+57
          1834.86370	         7.12445e+57
          1835.67000	         5.87639e+57
          1836.47630	         7.09468e+57
          1837.28260	         8.94380e+57
          1838.08890	         8.96121e+57
          1838.89520	         8.77975e+57
          1839.70150	         8.77827e+57
          1840.50780	         7.45939e+57
          1841.31410	         6.32600e+57
          1842.12040	         6.43957e+57
          1842.92670	         7.06613e+57
          1843.73300	         6.93841e+57
          1844.53930	         6.77551e+57
          1845.34560	         7.09037e+57
          1846.15190	         7.21747e+57
          1846.95820	         7.06775e+57
          1847.76450	         6.67545e+57
          1848.57080	         5.47480e+57
          1849.37710	         7.03395e+57
          1850.18340	         7.27163e+57
          1850.98970	         7.09153e+57
          1851.79600	         8.34721e+57
          1852.60230	         7.37357e+57
          1853.40860	         7.03680e+57
          1854.21490	         6.94035e+57
          1855.02120	         5.16648e+57
          1855.82750	         4.91752e+57
          1856.63380	         5.77736e+57
          1857.44010	         7.55601e+57
          1858.24640	         7.37315e+57
          1859.05270	         7.33669e+57
          1859.85900	         5.93726e+57
          1860.66530	         5.96856e+57
          1861.47160	         5.72744e+57
          1862.27790	         6.35880e+57
          1863.08420	         7.82555e+57
          1863.89050	         7.60221e+57
          1864.69680	         6.92707e+57
          1865.50310	         7.42409e+57
          1866.30940	         6.69225e+57
          1867.11570	         5.84748e+57
          1867.92200	         7.44898e+57
          1868.72830	         8.41502e+57
          1869.53460	         7.57980e+57
          1870.34090	         7.69245e+57
          1871.14720	         8.29002e+57
          1871.95350	         7.20698e+57
          1872.75980	         6.93282e+57
          1873.56610	         6.86026e+57
          1874.37240	         5.74126e+57
          1875.17870	         6.64536e+57
          1875.98500	         7.70765e+57
          1876.79130	         7.73127e+57
          1877.59760	         7.56241e+57
          1878.40390	         6.88075e+57
          1879.21020	         6.98802e+57
          1880.01650	         8.34850e+57
          1880.82280	         8.65010e+57
          1881.62910	         9.03332e+57
          1882.43540	         9.61440e+57
          1883.24170	         7.81773e+57
          1884.04800	         6.68728e+57
          1884.85430	         8.26478e+57
          1885.66060	         8.40594e+57
          1886.46690	         7.71170e+57
          1887.27320	         7.25224e+57
          1888.07950	         6.06112e+57
          1888.88580	         6.96619e+57
          1889.69210	         8.22553e+57
          1890.49840	         8.56623e+57
          1891.30470	         8.00537e+57
          1892.11100	         7.78732e+57
          1892.91730	         8.31894e+57
          1893.72360	         7.93661e+57
          1894.52990	         7.44513e+57
          1895.33620	         8.44976e+57
          1896.14250	         7.84407e+57
          1896.94880	         6.76485e+57
          1897.75510	         5.01178e+57
          1898.56140	         6.44665e+57
          1899.36770	         8.16802e+57
          1900.17400	         6.89299e+57
          1900.98030	         6.11107e+57
          1901.78660	         7.89456e+57
          1902.59290	         7.93143e+57
          1903.39920	         8.40610e+57
          1904.20550	         8.95621e+57
          1905.01180	         9.04551e+57
          1905.81810	         9.72762e+57
          1906.62440	         1.15386e+58
          1907.43070	         1.48144e+58
          1908.23700	         1.52442e+58
          1909.04330	         1.38720e+58
          1909.84960	         1.17448e+58
          1910.65590	         9.87719e+57
          1911.46220	         9.49855e+57
          1912.26850	         7.33281e+57
          1913.07480	         5.87361e+57
          1913.88110	         5.16606e+57
          1914.68740	         5.36781e+57
          1915.49370	         5.49993e+57
          1916.30000	         5.83135e+57
          1917.10630	         5.79179e+57
          1917.91260	         6.17658e+57
          1918.71890	         7.03616e+57
          1919.52520	         6.92958e+57
          1920.33150	         7.25224e+57
          1921.13780	         7.97509e+57
          1921.94410	         7.73219e+57
          1922.75040	         6.65953e+57
          1923.55670	         7.57224e+57
          1924.36300	         7.02190e+57
          1925.16930	         5.98070e+57
          1925.97560	         4.89532e+57
          1926.78190	         4.55212e+57
          1927.58820	         5.77873e+57
          1928.39450	         5.30868e+57
          1929.20080	         4.45759e+57
          1930.00710	         6.09387e+57
          1930.81340	         8.06864e+57
          1931.61970	         6.75443e+57
          1932.42600	         6.66053e+57
          1933.23230	         7.01577e+57
          1934.03860	         6.94430e+57
          1934.84490	         5.51054e+57
          1935.65120	         8.07645e+57
          1936.45750	         9.13201e+57
          1937.26380	         6.66931e+57
          1938.07010	         6.92552e+57
          1938.87640	         7.52300e+57
          1939.68270	         7.34880e+57
          1940.48900	         7.87431e+57
          1941.29530	         1.00091e+58
          1942.10160	         8.74262e+57
          1942.90790	         6.94734e+57
          1943.71420	         6.21713e+57
          1944.52050	         5.93976e+57
          1945.32680	         5.86783e+57
          1946.13310	         7.03978e+57
          1946.93940	         7.23980e+57
          1947.74570	         6.86291e+57
          1948.55200	         6.86720e+57
          1949.35830	         7.12413e+57
          1950.16460	         6.36744e+57
          1950.97090	         6.78234e+57
          1951.77720	         8.34112e+57
          1952.58350	         8.23449e+57
          1953.38980	         6.16771e+57
          1954.19610	         4.64125e+57
          1955.00240	         5.05272e+57
          1955.80870	         6.15923e+57
          1956.61500	         5.54918e+57
          1957.42130	         5.61300e+57
          1958.22760	         6.85479e+57
          1959.03390	         7.62895e+57
          1959.84020	         7.68381e+57
          1960.64650	         6.97860e+57
          1961.45280	         6.18457e+57
          1962.25910	         5.72212e+57
          1963.06540	         5.54688e+57
          1963.87170	         5.45245e+57
          1964.67800	         7.13090e+57
          1965.48430	         7.99698e+57
          1966.29060	         7.36338e+57
          1967.09690	         7.99090e+57
          1967.90320	         6.80524e+57
          1968.70950	         6.46345e+57
          1969.51580	         6.41546e+57
          1970.32210	         6.72049e+57
          1971.12840	         6.85156e+57
          1971.93470	         4.86681e+57
          1972.74100	         4.94287e+57
          1973.54730	         6.73493e+57
          1974.35360	         7.39062e+57
          1975.15990	         8.85817e+57
          1975.96620	         7.26713e+57
          1976.77250	         7.56289e+57
          1977.57880	         7.93090e+57
          1978.38510	         6.36846e+57
          1979.19140	         7.02993e+57
          1979.99770	         8.21965e+57
          1980.80400	         8.68435e+57
          1981.61030	         7.17257e+57
          1982.41660	         6.02735e+57
          1983.22290	         6.82230e+57
          1984.02920	         6.60325e+57
          1984.83550	         5.70211e+57
          1985.64180	         6.09931e+57
          1986.44810	         7.15315e+57
          1987.25440	         5.42380e+57
          1988.06070	         5.83321e+57
          1988.86700	         5.85416e+57
          1989.67330	         6.63520e+57
          1990.47960	         6.04217e+57
          1991.28590	         4.97102e+57
          1992.09220	         5.45140e+57
          1992.89850	         4.85594e+57
          1993.70480	         4.55105e+57
          1994.51110	         4.27537e+57
          1995.31740	         4.12592e+57
          1996.12370	         4.80635e+57
          1996.93000	         6.48313e+57
          1997.73630	         7.16009e+57
          1998.54260	         5.76926e+57
          1999.34890	         6.34217e+57
          2000.15520	         6.63725e+57
          2000.96150	         6.58666e+57
          2001.76780	         5.42983e+57
          2002.57410	         4.31266e+57
          2003.38040	         4.70654e+57
          2004.18670	         4.77705e+57
          2004.99300	         4.72572e+57
          2005.79930	         7.61896e+57
          2006.60560	         7.22124e+57
          2007.41190	         6.80513e+57
          2008.21820	         6.92621e+57
          2009.02450	         7.51509e+57
          2009.83080	         7.64466e+57
          2010.63710	         7.47395e+57
          2011.44340	         7.59151e+57
          2012.24970	         6.54044e+57
          2013.05600	         6.13661e+57
          2013.86230	         6.01563e+57
          2014.66860	         5.49555e+57
          2015.47490	         7.11647e+57
          2016.28120	         6.18788e+57
          2017.08750	         5.03497e+57
          2017.89380	         5.30024e+57
          2018.70010	         5.06807e+57
          2019.50640	         4.75986e+57
          2020.31270	         6.93402e+57
          2021.11900	         8.04555e+57
          2021.92530	         6.64289e+57
          2022.73160	         6.41419e+57
          2023.53790	         6.54573e+57
          2024.34420	         5.57568e+57
          2025.15050	         5.14551e+57
          2025.95680	         5.71189e+57
          2026.76310	         7.54863e+57
          2027.56940	         7.03809e+57
          2028.37570	         6.40277e+57
          2029.18200	         6.12614e+57
          2029.98830	         5.42655e+57
          2030.79460	         5.76414e+57
          2031.60090	         6.23706e+57
          2032.40720	         4.73686e+57
          2033.21350	         4.49820e+57
          2034.01980	         4.94812e+57
          2034.82610	         3.93549e+57
          2035.63240	         4.72059e+57
          2036.43870	         5.31725e+57
          2037.24500	         6.00616e+57
          2038.05130	         5.94802e+57
          2038.85760	         5.88080e+57
          2039.66390	         5.73826e+57
          2040.47020	         5.28768e+57
          2041.27650	         5.67014e+57
          2042.08280	         4.57561e+57
          2042.88910	         4.76485e+57
          2043.69540	         5.91629e+57
          2044.50170	         5.50552e+57
          2045.30800	         5.48037e+57
          2046.11430	         4.45800e+57
          2046.92060	         4.20148e+57
          2047.72690	         6.97283e+57
          2048.53320	         6.19054e+57
          2049.33950	         3.51726e+57
          2050.14580	         6.23875e+57
          2050.95210	         7.49842e+57
          2051.75840	         8.20140e+57
          2052.56470	         6.49659e+57
          2053.37100	         5.17349e+57
          2054.17730	         4.21519e+57
          2054.98360	         2.66355e+57
          2055.78990	         2.85083e+57
          2056.59620	         3.44797e+57
          2057.40250	         4.22097e+57
          2058.20880	         4.92498e+57
          2059.01510	         5.61438e+57
          2059.82140	         6.33921e+57
          2060.62770	         1.04138e+58
          2061.43400	         1.43147e+58
          2062.24030	         9.78219e+57
          2063.04660	         4.04187e+57
          2063.85290	         2.28652e+57
          2064.65920	        -3.94577e+57
          2065.46550	        -8.76871e+57
          2066.27180	        -8.47527e+57
          2067.07810	         4.08611e+57
          2067.88440	         2.89391e+57
          2068.69070	         4.09601e+57
          2069.49700	         5.15262e+57
          2070.30330	         4.65387e+57
          2071.10960	         3.12578e+57
          2071.91590	         7.27802e+57
          2072.72220	         4.95350e+57
          2073.52850	         5.16312e+57
          2074.33480	         5.16771e+57
          2075.14110	         4.45984e+57
          2075.94740	         4.56453e+57
          2076.75370	         4.97703e+57
          2077.56000	         5.24619e+57
          2078.36630	         5.91178e+57
          2079.17260	         5.28443e+57
          2079.97890	         3.84620e+57
          2080.78520	         4.77842e+57
          2081.59150	         4.46295e+57
          2082.39780	         4.12831e+57
          2083.20410	         3.19944e+57
          2084.01040	         2.97247e+57
          2084.81670	         4.18446e+57
          2085.62300	         3.88157e+57
          2086.42930	         3.94390e+57
          2087.23560	         3.01381e+57
          2088.04190	         4.14942e+57
          2088.84820	         4.12953e+57
          2089.65450	         3.43093e+57
          2090.46080	         1.88725e+57
          2091.26710	         2.95290e+57
          2092.07340	         2.97594e+57
          2092.87970	         2.35043e+57
          2093.68600	        -1.71798e+57
          2094.49230	         1.48639e+57
          2095.29860	         5.23163e+57
          2096.10490	         4.31933e+57
          2096.91120	         2.86520e+57
          2097.71750	         3.34838e+57
          2098.52380	         6.41656e+56
          2099.33010	         5.15201e+56
          2100.13640	         8.84572e+56
          2100.94270	         9.69228e+56
          2101.74900	         3.44055e+57
          2102.55530	         2.87744e+57
          2103.36160	         5.26250e+56
          2104.16790	         2.88746e+57
          2104.97420	         2.26559e+57
          2105.78050	         1.11611e+57
          2106.58680	         1.55070e+57
          2107.39310	        -1.93257e+57
          2108.19940	         7.04027e+56
          2109.00570	        -1.02785e+57
          2109.81200	        -2.84296e+57
          2110.61830	         1.98113e+57
          2111.42460	         4.99407e+55
          2112.23090	         2.98650e+57
          2113.03720	        -9.47936e+56
          2113.84350	         1.58880e+57
          2114.64980	         1.46706e+57
          2115.45610	        -4.63686e+57
          2116.26240	        -3.39617e+57
          2117.06870	         8.30270e+56
          2117.87500	        -1.00770e+57
          2118.68130	         6.59820e+56
          2119.48760	         1.77270e+57
          2120.29390	        -2.58567e+57
          2121.10020	        -3.68878e+57
          2121.90650	        -1.93860e+57
          2122.71280	         2.62951e+57
          2123.51910	         6.50529e+57
          2124.32540	         2.93670e+57
          2125.13170	         9.06319e+56
          2125.93800	         7.02106e+56
          2126.74430	        -5.06184e+57
          2127.55060	        -7.28676e+57
          2128.35690	        -5.18653e+57
          2129.16320	        -4.01527e+57
          2129.96950	         2.40019e+57
          2130.77580	        -4.76402e+57
          2131.58210	         1.12294e+57
          2132.38840	         1.20153e+57
          2133.19470	        -3.43295e+57
          2134.00100	         3.25197e+57
          2134.80730	        -3.79642e+57
          2135.61360	         1.14881e+57
          2136.41990	         7.16236e+57
          2137.22620	         6.68575e+57
          2138.03250	        -4.77933e+57
          2138.83880	        -7.21959e+57
          2139.64510	        -6.87852e+56
          2140.45140	        -4.41490e+57
          2141.25770	        -1.18651e+58
          2142.06400	        -7.62372e+57
          2142.87030	         2.81661e+56
          2143.67660	         1.18891e+56
          2144.48290	         1.48985e+57
          2145.28920	         3.67823e+57
          2146.09550	        -6.86280e+57
          2146.90180	        -8.20731e+57
          2147.70810	        -4.58100e+57
          2148.51440	        -8.62027e+56
          2149.32070	        -8.03685e+57
          2150.12700	        -1.38659e+58
          2150.93330	        -4.95592e+57
          2151.73960	         7.08610e+56
          2152.54590	         1.90032e+56
          2153.35220	         2.73271e+55
          2154.15850	        -7.61811e+57
          2154.96480	         7.09285e+57
          2155.77110	         3.57795e+57
          2156.57740	         2.48592e+57
          2157.38370	         3.95913e+57
          2158.19000	         4.80103e+57
          2158.99630	        -5.03429e+57
          2159.80260	        -1.13028e+58
          2160.60890	        -9.37068e+57
          2161.41520	        -2.43657e+57
          2162.22150	        -8.22840e+57
          2163.02780	        -3.32586e+57
          2163.83410	        -1.31962e+57
          2164.64040	        -7.17686e+57
          2165.44670	        -1.20109e+58
          2166.25300	        -4.29564e+57
          2167.05930	        -2.11691e+57
          2167.86560	        -1.32383e+58
          2168.67190	        -2.15243e+58
          2169.47820	        -1.69107e+58
          2170.28450	        -7.31297e+57
          2171.09080	        -1.88841e+57
          2171.89710	         1.05666e+57
          2172.70340	        -9.19253e+57
          2173.50970	        -5.06016e+57
          2174.31600	        -5.38720e+57
          2175.12230	         7.99220e+56
          2175.92860	        -4.64994e+57
          2176.73490	        -1.05899e+58
          2177.54120	        -7.69908e+57
          2178.34750	        -5.60355e+56
          2179.15380	                 nan
          2179.96010	                 nan
          2180.76640	                 nan
          2181.57270	                 nan
          2182.37900	                 nan
          2183.18530	                 nan
          2183.99160	                 nan
          2184.79790	                 nan
          2185.60420	                 nan
          2186.41050	                 nan
          2187.21680	                 nan
          2188.02310	                 nan
          2188.82940	                 nan
          2189.63570	                 nan
          2190.44200	                 nan
          2191.24830	                 nan
          2192.05460	                 nan
          2192.86090	                 nan
          2193.66720	                 nan
          2194.47350	                 nan
          2195.27980	                 nan
          2196.08610	                 nan
          2196.89240	                 nan
          2197.69870	                 nan
          2198.50500	                 nan
          2199.31130	                 nan
          2200.11760	                 nan
          2200.92390	                 nan
          2201.73020	                 nan
          2202.53650	                 nan
          2203.34280	                 nan
          2204.14910	                 nan
          2204.95540	                 nan
          2205.76170	                 nan
          2206.56800	                 nan
          2207.37430	                 nan
          2208.18060	                 nan
          2208.98690	                 nan
          2209.79320	                 nan
          2210.59950	                 nan
          2211.40580	                 nan
          2212.21210	                 nan
          2213.01840	                 nan
          2213.82470	                 nan
          2214.63100	                 nan
          2215.43730	         0.00000e+00
