#sample_473_stacked_spectrum_rest_UV-bands_median_H-alpha_noDC.txt
#median Lum: 1.71646e+42
#Rest-frame wavelength (A) | Luminosity (erg/s/A)
#
          1110.00000	         0.00000e+00
          1110.80630	         1.23187e+59
          1111.61260	         9.92325e+58
          1112.41890	         1.46314e+59
          1113.22520	        -2.85918e+58
          1114.03150	        -1.86973e+59
          1114.83780	        -7.12062e+58
          1115.64410	        -4.90857e+58
          1116.45040	         1.12356e+59
          1117.25670	         9.31910e+58
          1118.06300	         1.91670e+59
          1118.86930	         1.00830e+58
          1119.67560	         9.01770e+58
          1120.48190	         4.40820e+58
          1121.28820	        -1.13806e+59
          1122.09450	        -5.98806e+58
          1122.90080	        -4.08833e+58
          1123.70710	         6.75506e+58
          1124.51340	         5.44569e+58
          1125.31970	        -1.02062e+58
          1126.12600	        -4.79268e+58
          1126.93230	        -4.39000e+58
          1127.73860	        -2.48553e+58
          1128.54490	         4.33616e+58
          1129.35120	         4.21096e+58
          1130.15750	        -1.43063e+57
          1130.96380	        -4.12612e+58
          1131.77010	         7.87576e+58
          1132.57640	         6.82610e+58
          1133.38270	         7.38531e+57
          1134.18900	         3.54799e+58
          1134.99530	         1.22273e+58
          1135.80160	         2.49402e+58
          1136.60790	         2.91297e+57
          1137.41420	         1.01802e+58
          1138.22050	         4.79455e+58
          1139.02680	         2.57756e+58
          1139.83310	         2.97810e+58
          1140.63940	         2.63626e+58
          1141.44570	         8.42123e+57
          1142.25200	        -8.55561e+57
          1143.05830	         1.35340e+58
          1143.86460	         1.98846e+58
          1144.67090	         1.74402e+58
          1145.47720	         8.60652e+57
          1146.28350	         1.95634e+58
          1147.08980	         2.14654e+58
          1147.89610	         1.09750e+58
          1148.70240	         2.12032e+58
          1149.50870	         2.96131e+58
          1150.31500	         1.56486e+58
          1151.12130	         1.23727e+58
          1151.92760	         1.56174e+57
          1152.73390	         1.14010e+58
          1153.54020	         1.79437e+58
          1154.34650	         2.19054e+58
          1155.15280	         1.74355e+58
          1155.95910	         1.69079e+58
          1156.76540	        -3.38890e+57
          1157.57170	        -1.20066e+58
          1158.37800	        -2.63669e+57
          1159.18430	        -2.48539e+57
          1159.99060	         8.97328e+57
          1160.79690	         9.31090e+57
          1161.60320	         1.16383e+58
          1162.40950	         1.09587e+58
          1163.21580	         1.73710e+58
          1164.02210	         1.66691e+58
          1164.82840	         8.67204e+57
          1165.63470	         2.33350e+58
          1166.44100	         3.36687e+58
          1167.24730	         2.07240e+58
          1168.05360	         3.10436e+57
          1168.85990	         3.56522e+57
          1169.66620	         1.32990e+57
          1170.47250	         8.84179e+57
          1171.27880	         1.88537e+58
          1172.08510	         1.69272e+58
          1172.89140	         7.02136e+57
          1173.69770	         1.39204e+58
          1174.50400	         1.39641e+58
          1175.31030	         1.69289e+58
          1176.11660	         1.77711e+58
          1176.92290	         1.68213e+58
          1177.72920	         1.35422e+58
          1178.53550	         1.00409e+58
          1179.34180	         9.96509e+57
          1180.14810	         8.89326e+57
          1180.95440	         8.27757e+57
          1181.76070	         4.20188e+57
          1182.56700	         1.16830e+58
          1183.37330	         9.28781e+57
          1184.17960	         1.15490e+58
          1184.98590	         9.59255e+57
          1185.79220	         5.21085e+57
          1186.59850	         1.18082e+58
          1187.40480	         1.21759e+58
          1188.21110	         1.11992e+58
          1189.01740	         1.08144e+58
          1189.82370	         1.20190e+58
          1190.63000	         1.32579e+58
          1191.43630	         1.74550e+58
          1192.24260	         1.03075e+58
          1193.04890	         1.33399e+58
          1193.85520	         1.22851e+58
          1194.66150	         9.31662e+57
          1195.46780	         1.41591e+58
          1196.27410	         1.62501e+58
          1197.08040	         1.12093e+58
          1197.88670	         1.42017e+58
          1198.69300	         1.57503e+58
          1199.49930	         1.90282e+58
          1200.30560	         1.41050e+58
          1201.11190	         1.23090e+58
          1201.91820	         1.08850e+58
          1202.72450	         6.84173e+57
          1203.53080	         1.25390e+58
          1204.33710	         7.49405e+57
          1205.14340	         5.00898e+57
          1205.94970	         4.88473e+57
          1206.75600	         5.83689e+57
          1207.56230	         4.73182e+57
          1208.36860	         6.71698e+57
          1209.17490	         2.87124e+57
          1209.98120	         4.76387e+57
          1210.78750	         6.21586e+57
          1211.59380	         9.88857e+57
          1212.40010	         1.82470e+58
          1213.20640	         1.93814e+58
          1214.01270	         2.25241e+58
          1214.81900	         2.60502e+58
          1215.62530	         4.20948e+58
          1216.43160	         8.65832e+58
          1217.23790	         1.48174e+59
          1218.04420	         1.20690e+59
          1218.85050	         9.59753e+58
          1219.65680	         6.42464e+58
          1220.46310	         3.67074e+58
          1221.26940	         2.24473e+58
          1222.07570	         1.10078e+58
          1222.88200	         1.13940e+58
          1223.68830	         1.05425e+58
          1224.49460	         7.84102e+57
          1225.30090	         8.68319e+57
          1226.10720	         7.15155e+57
          1226.91350	         6.92213e+57
          1227.71980	         8.94030e+57
          1228.52610	         1.10319e+58
          1229.33240	         8.48006e+57
          1230.13870	         1.22445e+58
          1230.94500	         1.10146e+58
          1231.75130	         5.29453e+57
          1232.55760	         8.33834e+57
          1233.36390	         7.43704e+57
          1234.17020	         8.11805e+57
          1234.97650	         1.00496e+58
          1235.78280	         1.06666e+58
          1236.58910	         1.05606e+58
          1237.39540	         1.12590e+58
          1238.20170	         9.66550e+57
          1239.00800	         1.03809e+58
          1239.81430	         1.48283e+58
          1240.62060	         9.99640e+57
          1241.42690	         7.59979e+57
          1242.23320	         1.01101e+58
          1243.03950	         9.84571e+57
          1243.84580	         1.14286e+58
          1244.65210	         1.35867e+58
          1245.45840	         1.07690e+58
          1246.26470	         8.63840e+57
          1247.07100	         1.02915e+58
          1247.87730	         6.35700e+57
          1248.68360	         5.13736e+57
          1249.48990	         1.09446e+58
          1250.29620	         9.90460e+57
          1251.10250	         7.69413e+57
          1251.90880	         7.91996e+57
          1252.71510	         5.73692e+57
          1253.52140	         6.62343e+57
          1254.32770	         9.87836e+57
          1255.13400	         1.29393e+58
          1255.94030	         1.09192e+58
          1256.74660	         1.08881e+58
          1257.55290	         1.28477e+58
          1258.35920	         9.59169e+57
          1259.16550	         4.53479e+57
          1259.97180	         5.70459e+57
          1260.77810	         8.55080e+57
          1261.58440	         8.21031e+57
          1262.39070	         6.03043e+57
          1263.19700	         6.04163e+57
          1264.00330	         8.59427e+57
          1264.80960	         1.02019e+58
          1265.61590	         1.23432e+58
          1266.42220	         1.23879e+58
          1267.22850	         1.12360e+58
          1268.03480	         1.33823e+58
          1268.84110	         1.41716e+58
          1269.64740	         1.24688e+58
          1270.45370	         1.19024e+58
          1271.26000	         1.27296e+58
          1272.06630	         1.05394e+58
          1272.87260	         1.27071e+58
          1273.67890	         1.28690e+58
          1274.48520	         1.31005e+58
          1275.29150	         1.47534e+58
          1276.09780	         1.38334e+58
          1276.90410	         1.45246e+58
          1277.71040	         1.25928e+58
          1278.51670	         1.15610e+58
          1279.32300	         1.26438e+58
          1280.12930	         1.08592e+58
          1280.93560	         9.90730e+57
          1281.74190	         1.11306e+58
          1282.54820	         1.19625e+58
          1283.35450	         1.06233e+58
          1284.16080	         1.24750e+58
          1284.96710	         1.32408e+58
          1285.77340	         9.02134e+57
          1286.57970	         8.60049e+57
          1287.38600	         1.32539e+58
          1288.19230	         1.76960e+58
          1288.99860	         1.47566e+58
          1289.80490	         1.07145e+58
          1290.61120	         1.36136e+58
          1291.41750	         1.32552e+58
          1292.22380	         1.01540e+58
          1293.03010	         1.09896e+58
          1293.83640	         1.26741e+58
          1294.64270	         1.18631e+58
          1295.44900	         7.35050e+57
          1296.25530	         6.36455e+57
          1297.06160	         9.21538e+57
          1297.86790	         9.80672e+57
          1298.67420	         8.91384e+57
          1299.48050	         1.03807e+58
          1300.28680	         9.53830e+57
          1301.09310	         6.59512e+57
          1301.89940	         4.89180e+57
          1302.70570	         7.04520e+57
          1303.51200	         9.41198e+57
          1304.31830	         1.02430e+58
          1305.12460	         1.10690e+58
          1305.93090	         1.15243e+58
          1306.73720	         1.34216e+58
          1307.54350	         1.50797e+58
          1308.34980	         1.41979e+58
          1309.15610	         1.33222e+58
          1309.96240	         1.31846e+58
          1310.76870	         1.24567e+58
          1311.57500	         9.66510e+57
          1312.38130	         9.89721e+57
          1313.18760	         1.34350e+58
          1313.99390	         1.23990e+58
          1314.80020	         1.59478e+58
          1315.60650	         1.57426e+58
          1316.41280	         1.16890e+58
          1317.21910	         1.05500e+58
          1318.02540	         1.20852e+58
          1318.83170	         1.27280e+58
          1319.63800	         1.18306e+58
          1320.44430	         1.11833e+58
          1321.25060	         1.21795e+58
          1322.05690	         1.27733e+58
          1322.86320	         1.25212e+58
          1323.66950	         1.04582e+58
          1324.47580	         9.85119e+57
          1325.28210	         1.06181e+58
          1326.08840	         1.18916e+58
          1326.89470	         1.29615e+58
          1327.70100	         9.72103e+57
          1328.50730	         8.27344e+57
          1329.31360	         9.51839e+57
          1330.11990	         9.96464e+57
          1330.92620	         9.91744e+57
          1331.73250	         1.13297e+58
          1332.53880	         1.11843e+58
          1333.34510	         9.14266e+57
          1334.15140	         8.50896e+57
          1334.95770	         8.08582e+57
          1335.76400	         1.00488e+58
          1336.57030	         1.09073e+58
          1337.37660	         9.20416e+57
          1338.18290	         9.00156e+57
          1338.98920	         1.11351e+58
          1339.79550	         1.16578e+58
          1340.60180	         1.16232e+58
          1341.40810	         1.27652e+58
          1342.21440	         1.07068e+58
          1343.02070	         1.19129e+58
          1343.82700	         1.32122e+58
          1344.63330	         1.26582e+58
          1345.43960	         1.38041e+58
          1346.24590	         1.21539e+58
          1347.05220	         1.18913e+58
          1347.85850	         1.07172e+58
          1348.66480	         1.17606e+58
          1349.47110	         1.24654e+58
          1350.27740	         1.14947e+58
          1351.08370	         1.24102e+58
          1351.89000	         1.17289e+58
          1352.69630	         1.08289e+58
          1353.50260	         1.10843e+58
          1354.30890	         1.15561e+58
          1355.11520	         1.22557e+58
          1355.92150	         1.20246e+58
          1356.72780	         1.15108e+58
          1357.53410	         1.08978e+58
          1358.34040	         1.09582e+58
          1359.14670	         1.07263e+58
          1359.95300	         1.16604e+58
          1360.75930	         1.13323e+58
          1361.56560	         1.03484e+58
          1362.37190	         1.11765e+58
          1363.17820	         1.03273e+58
          1363.98450	         1.25663e+58
          1364.79080	         1.39292e+58
          1365.59710	         1.28019e+58
          1366.40340	         1.13436e+58
          1367.20970	         1.09300e+58
          1368.01600	         9.91148e+57
          1368.82230	         9.99795e+57
          1369.62860	         1.09375e+58
          1370.43490	         8.60349e+57
          1371.24120	         9.35581e+57
          1372.04750	         8.86755e+57
          1372.85380	         1.19456e+58
          1373.66010	         1.19265e+58
          1374.46640	         1.03180e+58
          1375.27270	         9.88893e+57
          1376.07900	         8.86034e+57
          1376.88530	         8.83251e+57
          1377.69160	         9.09900e+57
          1378.49790	         7.19863e+57
          1379.30420	         7.15710e+57
          1380.11050	         9.52230e+57
          1380.91680	         8.90785e+57
          1381.72310	         7.50482e+57
          1382.52940	         6.59025e+57
          1383.33570	         8.07207e+57
          1384.14200	         1.09690e+58
          1384.94830	         1.11411e+58
          1385.75460	         9.68471e+57
          1386.56090	         1.07290e+58
          1387.36720	         1.03172e+58
          1388.17350	         1.23323e+58
          1388.97980	         1.18657e+58
          1389.78610	         9.48102e+57
          1390.59240	         8.07557e+57
          1391.39870	         7.12170e+57
          1392.20500	         8.41969e+57
          1393.01130	         8.05564e+57
          1393.81760	         8.63986e+57
          1394.62390	         9.40914e+57
          1395.43020	         7.84790e+57
          1396.23650	         6.68448e+57
          1397.04280	         7.81583e+57
          1397.84910	         9.14657e+57
          1398.65540	         9.41769e+57
          1399.46170	         9.81415e+57
          1400.26800	         9.32646e+57
          1401.07430	         7.08187e+57
          1401.88060	         8.69181e+57
          1402.68690	         1.03616e+58
          1403.49320	         1.01631e+58
          1404.29950	         9.85576e+57
          1405.10580	         1.07375e+58
          1405.91210	         1.13883e+58
          1406.71840	         1.05657e+58
          1407.52470	         9.78709e+57
          1408.33100	         9.40665e+57
          1409.13730	         1.11531e+58
          1409.94360	         1.13076e+58
          1410.74990	         1.11076e+58
          1411.55620	         1.08594e+58
          1412.36250	         9.72751e+57
          1413.16880	         8.85364e+57
          1413.97510	         7.63491e+57
          1414.78140	         8.74714e+57
          1415.58770	         1.04918e+58
          1416.39400	         1.00696e+58
          1417.20030	         1.07573e+58
          1418.00660	         1.08292e+58
          1418.81290	         9.85751e+57
          1419.61920	         9.71338e+57
          1420.42550	         1.15357e+58
          1421.23180	         1.41818e+58
          1422.03810	         1.22162e+58
          1422.84440	         9.50416e+57
          1423.65070	         1.21355e+58
          1424.45700	         1.16199e+58
          1425.26330	         8.67898e+57
          1426.06960	         8.03044e+57
          1426.87590	         1.02238e+58
          1427.68220	         1.09284e+58
          1428.48850	         1.13719e+58
          1429.29480	         1.06875e+58
          1430.10110	         1.06821e+58
          1430.90740	         8.70972e+57
          1431.71370	         8.53612e+57
          1432.52000	         9.17963e+57
          1433.32630	         7.40964e+57
          1434.13260	         7.97310e+57
          1434.93890	         9.69070e+57
          1435.74520	         9.85142e+57
          1436.55150	         9.17827e+57
          1437.35780	         9.38135e+57
          1438.16410	         9.66921e+57
          1438.97040	         9.31708e+57
          1439.77670	         8.86778e+57
          1440.58300	         9.44747e+57
          1441.38930	         9.89546e+57
          1442.19560	         1.03765e+58
          1443.00190	         9.63112e+57
          1443.80820	         9.57886e+57
          1444.61450	         9.75464e+57
          1445.42080	         8.39964e+57
          1446.22710	         9.51422e+57
          1447.03340	         1.00114e+58
          1447.83970	         1.13870e+58
          1448.64600	         1.24058e+58
          1449.45230	         1.08039e+58
          1450.25860	         1.06025e+58
          1451.06490	         9.75695e+57
          1451.87120	         8.06233e+57
          1452.67750	         7.94507e+57
          1453.48380	         8.97117e+57
          1454.29010	         8.01716e+57
          1455.09640	         8.29492e+57
          1455.90270	         1.02237e+58
          1456.70900	         9.72450e+57
          1457.51530	         9.23691e+57
          1458.32160	         1.16506e+58
          1459.12790	         1.14635e+58
          1459.93420	         1.05258e+58
          1460.74050	         7.79925e+57
          1461.54680	         7.87392e+57
          1462.35310	         8.56744e+57
          1463.15940	         9.03835e+57
          1463.96570	         1.10521e+58
          1464.77200	         1.14984e+58
          1465.57830	         1.09296e+58
          1466.38460	         1.00293e+58
          1467.19090	         9.28303e+57
          1467.99720	         9.35783e+57
          1468.80350	         9.12047e+57
          1469.60980	         1.11072e+58
          1470.41610	         1.11995e+58
          1471.22240	         9.20311e+57
          1472.02870	         9.80551e+57
          1472.83500	         1.07047e+58
          1473.64130	         1.03771e+58
          1474.44760	         9.95809e+57
          1475.25390	         9.09495e+57
          1476.06020	         9.21142e+57
          1476.86650	         8.42305e+57
          1477.67280	         8.22577e+57
          1478.47910	         8.73205e+57
          1479.28540	         7.68917e+57
          1480.09170	         7.68407e+57
          1480.89800	         8.57140e+57
          1481.70430	         8.28254e+57
          1482.51060	         7.25392e+57
          1483.31690	         6.88335e+57
          1484.12320	         7.37135e+57
          1484.92950	         6.88162e+57
          1485.73580	         8.74592e+57
          1486.54210	         9.56211e+57
          1487.34840	         9.15033e+57
          1488.15470	         8.08252e+57
          1488.96100	         8.80574e+57
          1489.76730	         9.00986e+57
          1490.57360	         8.29157e+57
          1491.37990	         7.81828e+57
          1492.18620	         8.12082e+57
          1492.99250	         8.92976e+57
          1493.79880	         8.98979e+57
          1494.60510	         8.14472e+57
          1495.41140	         6.81815e+57
          1496.21770	         8.15714e+57
          1497.02400	         1.06909e+58
          1497.83030	         9.57855e+57
          1498.63660	         7.37434e+57
          1499.44290	         6.83770e+57
          1500.24920	         8.23400e+57
          1501.05550	         8.88282e+57
          1501.86180	         8.27228e+57
          1502.66810	         8.78760e+57
          1503.47440	         8.51581e+57
          1504.28070	         9.00548e+57
          1505.08700	         9.43067e+57
          1505.89330	         9.26221e+57
          1506.69960	         8.14341e+57
          1507.50590	         8.43583e+57
          1508.31220	         8.16670e+57
          1509.11850	         8.24251e+57
          1509.92480	         8.50426e+57
          1510.73110	         8.64223e+57
          1511.53740	         7.58165e+57
          1512.34370	         7.84092e+57
          1513.15000	         9.22870e+57
          1513.95630	         9.37042e+57
          1514.76260	         8.87783e+57
          1515.56890	         8.83285e+57
          1516.37520	         9.17784e+57
          1517.18150	         8.29054e+57
          1517.98780	         8.51438e+57
          1518.79410	         7.99849e+57
          1519.60040	         7.81763e+57
          1520.40670	         9.80404e+57
          1521.21300	         1.01940e+58
          1522.01930	         8.91972e+57
          1522.82560	         9.65557e+57
          1523.63190	         1.06815e+58
          1524.43820	         9.78549e+57
          1525.24450	         6.25861e+57
          1526.05080	         4.52924e+57
          1526.85710	         5.58139e+57
          1527.66340	         6.85197e+57
          1528.46970	         7.66312e+57
          1529.27600	         8.04244e+57
          1530.08230	         7.32850e+57
          1530.88860	         8.53230e+57
          1531.69490	         9.62153e+57
          1532.50120	         9.44970e+57
          1533.30750	         1.04205e+58
          1534.11380	         1.00485e+58
          1534.92010	         8.96465e+57
          1535.72640	         9.55633e+57
          1536.53270	         9.46409e+57
          1537.33900	         8.49515e+57
          1538.14530	         8.63508e+57
          1538.95160	         9.93494e+57
          1539.75790	         9.43958e+57
          1540.56420	         8.67882e+57
          1541.37050	         9.00973e+57
          1542.17680	         7.98872e+57
          1542.98310	         7.32192e+57
          1543.78940	         8.70576e+57
          1544.59570	         8.51806e+57
          1545.40200	         8.11339e+57
          1546.20830	         8.44782e+57
          1547.01460	         1.06684e+58
          1547.82090	         1.12715e+58
          1548.62720	         1.22717e+58
          1549.43350	         1.20879e+58
          1550.23980	         1.14167e+58
          1551.04610	         1.19746e+58
          1551.85240	         1.21590e+58
          1552.65870	         1.21401e+58
          1553.46500	         1.01520e+58
          1554.27130	         9.40856e+57
          1555.07760	         1.04333e+58
          1555.88390	         8.91241e+57
          1556.69020	         8.06925e+57
          1557.49650	         9.00515e+57
          1558.30280	         8.49913e+57
          1559.10910	         8.77032e+57
          1559.91540	         9.22220e+57
          1560.72170	         9.18743e+57
          1561.52800	         8.90706e+57
          1562.33430	         9.29099e+57
          1563.14060	         9.02026e+57
          1563.94690	         8.32463e+57
          1564.75320	         7.70570e+57
          1565.55950	         7.00932e+57
          1566.36580	         7.60515e+57
          1567.17210	         9.02023e+57
          1567.97840	         9.26783e+57
          1568.78470	         8.85708e+57
          1569.59100	         9.46390e+57
          1570.39730	         8.63532e+57
          1571.20360	         7.03697e+57
          1572.00990	         6.81311e+57
          1572.81620	         7.94913e+57
          1573.62250	         9.98366e+57
          1574.42880	         8.81109e+57
          1575.23510	         7.65799e+57
          1576.04140	         8.78820e+57
          1576.84770	         9.43202e+57
          1577.65400	         9.41739e+57
          1578.46030	         1.00530e+58
          1579.26660	         1.06754e+58
          1580.07290	         1.06953e+58
          1580.87920	         9.15930e+57
          1581.68550	         8.83988e+57
          1582.49180	         7.88122e+57
          1583.29810	         7.54539e+57
          1584.10440	         8.83006e+57
          1584.91070	         8.62619e+57
          1585.71700	         7.22800e+57
          1586.52330	         8.15693e+57
          1587.32960	         8.62670e+57
          1588.13590	         8.59746e+57
          1588.94220	         8.98255e+57
          1589.74850	         9.82313e+57
          1590.55480	         9.84480e+57
          1591.36110	         8.62390e+57
          1592.16740	         8.34105e+57
          1592.97370	         8.01455e+57
          1593.78000	         9.08118e+57
          1594.58630	         1.03859e+58
          1595.39260	         9.33257e+57
          1596.19890	         9.21341e+57
          1597.00520	         9.48330e+57
          1597.81150	         8.57291e+57
          1598.61780	         7.74287e+57
          1599.42410	         7.35464e+57
          1600.23040	         7.66980e+57
          1601.03670	         8.30848e+57
          1601.84300	         8.22866e+57
          1602.64930	         7.17834e+57
          1603.45560	         8.42088e+57
          1604.26190	         9.29085e+57
          1605.06820	         8.04792e+57
          1605.87450	         7.07823e+57
          1606.68080	         6.55988e+57
          1607.48710	         6.20072e+57
          1608.29340	         6.18131e+57
          1609.09970	         7.72810e+57
          1609.90600	         8.48505e+57
          1610.71230	         7.13919e+57
          1611.51860	         7.54012e+57
          1612.32490	         7.10105e+57
          1613.13120	         7.97876e+57
          1613.93750	         8.91090e+57
          1614.74380	         8.88077e+57
          1615.55010	         9.28945e+57
          1616.35640	         9.61832e+57
          1617.16270	         9.28639e+57
          1617.96900	         9.64647e+57
          1618.77530	         8.28639e+57
          1619.58160	         7.84511e+57
          1620.38790	         9.30419e+57
          1621.19420	         9.39461e+57
          1622.00050	         9.15229e+57
          1622.80680	         9.62585e+57
          1623.61310	         8.81518e+57
          1624.41940	         8.38568e+57
          1625.22570	         1.00151e+58
          1626.03200	         9.16987e+57
          1626.83830	         8.48221e+57
          1627.64460	         8.66156e+57
          1628.45090	         7.70777e+57
          1629.25720	         9.40458e+57
          1630.06350	         1.04875e+58
          1630.86980	         7.94300e+57
          1631.67610	         7.64929e+57
          1632.48240	         8.33606e+57
          1633.28870	         7.87673e+57
          1634.09500	         9.04175e+57
          1634.90130	         1.10858e+58
          1635.70760	         8.75734e+57
          1636.51390	         7.12290e+57
          1637.32020	         7.17634e+57
          1638.12650	         7.25421e+57
          1638.93280	         8.69834e+57
          1639.73910	         1.02432e+58
          1640.54540	         1.05633e+58
          1641.35170	         9.53577e+57
          1642.15800	         9.11517e+57
          1642.96430	         9.01154e+57
          1643.77060	         8.16208e+57
          1644.57690	         8.04917e+57
          1645.38320	         8.85072e+57
          1646.18950	         7.65249e+57
          1646.99580	         8.56001e+57
          1647.80210	         7.93862e+57
          1648.60840	         7.08515e+57
          1649.41470	         8.19112e+57
          1650.22100	         7.63831e+57
          1651.02730	         6.82818e+57
          1651.83360	         7.33587e+57
          1652.63990	         7.93333e+57
          1653.44620	         8.20687e+57
          1654.25250	         7.75121e+57
          1655.05880	         7.49171e+57
          1655.86510	         8.09117e+57
          1656.67140	         7.47048e+57
          1657.47770	         7.84992e+57
          1658.28400	         8.25219e+57
          1659.09030	         8.77126e+57
          1659.89660	         9.13022e+57
          1660.70290	         1.03358e+58
          1661.50920	         9.93053e+57
          1662.31550	         8.13519e+57
          1663.12180	         8.32219e+57
          1663.92810	         9.43311e+57
          1664.73440	         1.09896e+58
          1665.54070	         1.23215e+58
          1666.34700	         1.23011e+58
          1667.15330	         1.09660e+58
          1667.95960	         8.81975e+57
          1668.76590	         7.52589e+57
          1669.57220	         7.38807e+57
          1670.37850	         8.14825e+57
          1671.18480	         8.50265e+57
          1671.99110	         8.32222e+57
          1672.79740	         7.03770e+57
          1673.60370	         6.55132e+57
          1674.41000	         7.65151e+57
          1675.21630	         8.23259e+57
          1676.02260	         7.66138e+57
          1676.82890	         5.86342e+57
          1677.63520	         6.45439e+57
          1678.44150	         7.59268e+57
          1679.24780	         8.85341e+57
          1680.05410	         7.59081e+57
          1680.86040	         5.32875e+57
          1681.66670	         6.15387e+57
          1682.47300	         7.99144e+57
          1683.27930	         7.99836e+57
          1684.08560	         8.12455e+57
          1684.89190	         7.80300e+57
          1685.69820	         6.20053e+57
          1686.50450	         5.21769e+57
          1687.31080	         6.56036e+57
          1688.11710	         8.47728e+57
          1688.92340	         7.62812e+57
          1689.72970	         7.10648e+57
          1690.53600	         7.15641e+57
          1691.34230	         7.64285e+57
          1692.14860	         8.55514e+57
          1692.95490	         8.56794e+57
          1693.76120	         7.66742e+57
          1694.56750	         6.82650e+57
          1695.37380	         8.52157e+57
          1696.18010	         1.00665e+58
          1696.98640	         9.24165e+57
          1697.79270	         8.46908e+57
          1698.59900	         8.02270e+57
          1699.40530	         7.61982e+57
          1700.21160	         8.40810e+57
          1701.01790	         8.88461e+57
          1701.82420	         7.92371e+57
          1702.63050	         8.74582e+57
          1703.43680	         9.14356e+57
          1704.24310	         8.11867e+57
          1705.04940	         8.03694e+57
          1705.85570	         8.03463e+57
          1706.66200	         8.65369e+57
          1707.46830	         8.74950e+57
          1708.27460	         7.97908e+57
          1709.08090	         7.44263e+57
          1709.88720	         6.24169e+57
          1710.69350	         6.46279e+57
          1711.49980	         7.23047e+57
          1712.30610	         7.39588e+57
          1713.11240	         8.84453e+57
          1713.91870	         8.15792e+57
          1714.72500	         8.63968e+57
          1715.53130	         9.20759e+57
          1716.33760	         7.96315e+57
          1717.14390	         6.74257e+57
          1717.95020	         7.18696e+57
          1718.75650	         8.16638e+57
          1719.56280	         8.51299e+57
          1720.36910	         8.12122e+57
          1721.17540	         7.07988e+57
          1721.98170	         5.71757e+57
          1722.78800	         4.99146e+57
          1723.59430	         5.86811e+57
          1724.40060	         8.08721e+57
          1725.20690	         8.08776e+57
          1726.01320	         7.80287e+57
          1726.81950	         8.18484e+57
          1727.62580	         7.46922e+57
          1728.43210	         7.24069e+57
          1729.23840	         7.94076e+57
          1730.04470	         8.20571e+57
          1730.85100	         8.93979e+57
          1731.65730	         8.11792e+57
          1732.46360	         6.83269e+57
          1733.26990	         7.08739e+57
          1734.07620	         7.81471e+57
          1734.88250	         7.90018e+57
          1735.68880	         7.66248e+57
          1736.49510	         8.27286e+57
          1737.30140	         8.79714e+57
          1738.10770	         7.67978e+57
          1738.91400	         7.60472e+57
          1739.72030	         7.78403e+57
          1740.52660	         6.38661e+57
          1741.33290	         6.68764e+57
          1742.13920	         7.09358e+57
          1742.94550	         7.79744e+57
          1743.75180	         8.76723e+57
          1744.55810	         8.11345e+57
          1745.36440	         6.97258e+57
          1746.17070	         5.63501e+57
          1746.97700	         5.27026e+57
          1747.78330	         6.82476e+57
          1748.58960	         7.83297e+57
          1749.39590	         7.76593e+57
          1750.20220	         6.99283e+57
          1751.00850	         6.10842e+57
          1751.81480	         5.84007e+57
          1752.62110	         6.91607e+57
          1753.42740	         7.94268e+57
          1754.23370	         7.08428e+57
          1755.04000	         6.62636e+57
          1755.84630	         7.17633e+57
          1756.65260	         8.75784e+57
          1757.45890	         8.48000e+57
          1758.26520	         6.37136e+57
          1759.07150	         8.60656e+57
          1759.87780	         8.91027e+57
          1760.68410	         8.29948e+57
          1761.49040	         8.39144e+57
          1762.29670	         6.54421e+57
          1763.10300	         7.84943e+57
          1763.90930	         7.80019e+57
          1764.71560	         7.54357e+57
          1765.52190	         8.04291e+57
          1766.32820	         8.24908e+57
          1767.13450	         7.86956e+57
          1767.94080	         7.01058e+57
          1768.74710	         6.61860e+57
          1769.55340	         7.34998e+57
          1770.35970	         7.52082e+57
          1771.16600	         8.24891e+57
          1771.97230	         8.34314e+57
          1772.77860	         9.42489e+57
          1773.58490	         8.24433e+57
          1774.39120	         7.41160e+57
          1775.19750	         7.52596e+57
          1776.00380	         6.80565e+57
          1776.81010	         6.76469e+57
          1777.61640	         6.44753e+57
          1778.42270	         6.56627e+57
          1779.22900	         6.60329e+57
          1780.03530	         6.62099e+57
          1780.84160	         7.91896e+57
          1781.64790	         8.88245e+57
          1782.45420	         7.45094e+57
          1783.26050	         5.97378e+57
          1784.06680	         6.86599e+57
          1784.87310	         6.95031e+57
          1785.67940	         7.06606e+57
          1786.48570	         7.81721e+57
          1787.29200	         6.61223e+57
          1788.09830	         5.02007e+57
          1788.90460	         5.10637e+57
          1789.71090	         5.92150e+57
          1790.51720	         5.02222e+57
          1791.32350	         7.10855e+57
          1792.12980	         8.54046e+57
          1792.93610	         7.66163e+57
          1793.74240	         7.62482e+57
          1794.54870	         7.67359e+57
          1795.35500	         7.89816e+57
          1796.16130	         8.18758e+57
          1796.96760	         6.40381e+57
          1797.77390	         7.09566e+57
          1798.58020	         7.79419e+57
          1799.38650	         6.53235e+57
          1800.19280	         6.66633e+57
          1800.99910	         7.76033e+57
          1801.80540	         7.48131e+57
          1802.61170	         8.36594e+57
          1803.41800	         7.87456e+57
          1804.22430	         7.81007e+57
          1805.03060	         7.29687e+57
          1805.83690	         7.57615e+57
          1806.64320	         7.92092e+57
          1807.44950	         7.96465e+57
          1808.25580	         7.06515e+57
          1809.06210	         6.77987e+57
          1809.86840	         7.25388e+57
          1810.67470	         6.92495e+57
          1811.48100	         7.39485e+57
          1812.28730	         8.11055e+57
          1813.09360	         7.19824e+57
          1813.89990	         7.63912e+57
          1814.70620	         7.39674e+57
          1815.51250	         8.12001e+57
          1816.31880	         7.97754e+57
          1817.12510	         8.22211e+57
          1817.93140	         7.28778e+57
          1818.73770	         7.35483e+57
          1819.54400	         8.41130e+57
          1820.35030	         8.58572e+57
          1821.15660	         7.70307e+57
          1821.96290	         7.58397e+57
          1822.76920	         7.47413e+57
          1823.57550	         8.18770e+57
          1824.38180	         8.73674e+57
          1825.18810	         8.76742e+57
          1825.99440	         8.45029e+57
          1826.80070	         6.95064e+57
          1827.60700	         6.12007e+57
          1828.41330	         6.12821e+57
          1829.21960	         6.45893e+57
          1830.02590	         6.89908e+57
          1830.83220	         7.51182e+57
          1831.63850	         7.15536e+57
          1832.44480	         7.36265e+57
          1833.25110	         8.55814e+57
          1834.05740	         8.76368e+57
          1834.86370	         7.26231e+57
          1835.67000	         6.09447e+57
          1836.47630	         7.56723e+57
          1837.28260	         8.59053e+57
          1838.08890	         7.58459e+57
          1838.89520	         7.09890e+57
          1839.70150	         7.54969e+57
          1840.50780	         8.34737e+57
          1841.31410	         6.18056e+57
          1842.12040	         5.62076e+57
          1842.92670	         7.52682e+57
          1843.73300	         7.36922e+57
          1844.53930	         7.09202e+57
          1845.34560	         7.09269e+57
          1846.15190	         8.04743e+57
          1846.95820	         8.28259e+57
          1847.76450	         6.91537e+57
          1848.57080	         6.00649e+57
          1849.37710	         6.05710e+57
          1850.18340	         7.32160e+57
          1850.98970	         7.74891e+57
          1851.79600	         8.05285e+57
          1852.60230	         7.21446e+57
          1853.40860	         7.00877e+57
          1854.21490	         6.59067e+57
          1855.02120	         5.98419e+57
          1855.82750	         4.94159e+57
          1856.63380	         6.02397e+57
          1857.44010	         7.81187e+57
          1858.24640	         6.73207e+57
          1859.05270	         7.51588e+57
          1859.85900	         6.07780e+57
          1860.66530	         6.12178e+57
          1861.47160	         7.50543e+57
          1862.27790	         8.39323e+57
          1863.08420	         8.26248e+57
          1863.89050	         8.50225e+57
          1864.69680	         6.95663e+57
          1865.50310	         6.29577e+57
          1866.30940	         6.60511e+57
          1867.11570	         7.10452e+57
          1867.92200	         7.03273e+57
          1868.72830	         7.11162e+57
          1869.53460	         7.46565e+57
          1870.34090	         7.65777e+57
          1871.14720	         7.75039e+57
          1871.95350	         7.76060e+57
          1872.75980	         7.94973e+57
          1873.56610	         7.95341e+57
          1874.37240	         6.54922e+57
          1875.17870	         5.73264e+57
          1875.98500	         7.06669e+57
          1876.79130	         7.77064e+57
          1877.59760	         7.29287e+57
          1878.40390	         5.78950e+57
          1879.21020	         5.88876e+57
          1880.01650	         6.99636e+57
          1880.82280	         8.45991e+57
          1881.62910	         8.38236e+57
          1882.43540	         9.13017e+57
          1883.24170	         8.51622e+57
          1884.04800	         6.80196e+57
          1884.85430	         7.25299e+57
          1885.66060	         8.37432e+57
          1886.46690	         8.73899e+57
          1887.27320	         7.68675e+57
          1888.07950	         6.00926e+57
          1888.88580	         6.92194e+57
          1889.69210	         9.03559e+57
          1890.49840	         9.05865e+57
          1891.30470	         8.64398e+57
          1892.11100	         9.13511e+57
          1892.91730	         8.92550e+57
          1893.72360	         7.03406e+57
          1894.52990	         7.26938e+57
          1895.33620	         7.20786e+57
          1896.14250	         6.94552e+57
          1896.94880	         6.60776e+57
          1897.75510	         5.43673e+57
          1898.56140	         7.01807e+57
          1899.36770	         8.64934e+57
          1900.17400	         6.42321e+57
          1900.98030	         6.36172e+57
          1901.78660	         7.73767e+57
          1902.59290	         7.60954e+57
          1903.39920	         8.56515e+57
          1904.20550	         8.93962e+57
          1905.01180	         8.63277e+57
          1905.81810	         9.98604e+57
          1906.62440	         1.20515e+58
          1907.43070	         1.53761e+58
          1908.23700	         1.54876e+58
          1909.04330	         1.36020e+58
          1909.84960	         1.19428e+58
          1910.65590	         1.04325e+58
          1911.46220	         9.26253e+57
          1912.26850	         7.87173e+57
          1913.07480	         6.06013e+57
          1913.88110	         4.99212e+57
          1914.68740	         5.62084e+57
          1915.49370	         6.63074e+57
          1916.30000	         7.89690e+57
          1917.10630	         7.89152e+57
          1917.91260	         6.88204e+57
          1918.71890	         6.21287e+57
          1919.52520	         5.77962e+57
          1920.33150	         6.83500e+57
          1921.13780	         8.02222e+57
          1921.94410	         8.67147e+57
          1922.75040	         8.44256e+57
          1923.55670	         7.31121e+57
          1924.36300	         7.49348e+57
          1925.16930	         6.66463e+57
          1925.97560	         6.27233e+57
          1926.78190	         5.62092e+57
          1927.58820	         6.11355e+57
          1928.39450	         5.73581e+57
          1929.20080	         4.64053e+57
          1930.00710	         5.47312e+57
          1930.81340	         7.28839e+57
          1931.61970	         7.78335e+57
          1932.42600	         6.63447e+57
          1933.23230	         6.76753e+57
          1934.03860	         5.26861e+57
          1934.84490	         5.00218e+57
          1935.65120	         6.79289e+57
          1936.45750	         8.17833e+57
          1937.26380	         6.75543e+57
          1938.07010	         6.71601e+57
          1938.87640	         6.20166e+57
          1939.68270	         6.99915e+57
          1940.48900	         7.65927e+57
          1941.29530	         8.76690e+57
          1942.10160	         8.35017e+57
          1942.90790	         6.71095e+57
          1943.71420	         6.56574e+57
          1944.52050	         7.16198e+57
          1945.32680	         6.05529e+57
          1946.13310	         7.48638e+57
          1946.93940	         8.17943e+57
          1947.74570	         7.43910e+57
          1948.55200	         6.18102e+57
          1949.35830	         5.12449e+57
          1950.16460	         5.15268e+57
          1950.97090	         6.38380e+57
          1951.77720	         7.98164e+57
          1952.58350	         8.05382e+57
          1953.38980	         5.57057e+57
          1954.19610	         5.12034e+57
          1955.00240	         5.10369e+57
          1955.80870	         6.24259e+57
          1956.61500	         6.35789e+57
          1957.42130	         6.13118e+57
          1958.22760	         7.00860e+57
          1959.03390	         7.19621e+57
          1959.84020	         7.39807e+57
          1960.64650	         7.86112e+57
          1961.45280	         6.82048e+57
          1962.25910	         6.44416e+57
          1963.06540	         7.16599e+57
          1963.87170	         7.32525e+57
          1964.67800	         8.11362e+57
          1965.48430	         7.24751e+57
          1966.29060	         7.03718e+57
          1967.09690	         7.93207e+57
          1967.90320	         6.81417e+57
          1968.70950	         7.22518e+57
          1969.51580	         5.98534e+57
          1970.32210	         6.73886e+57
          1971.12840	         6.63010e+57
          1971.93470	         3.78308e+57
          1972.74100	         4.68527e+57
          1973.54730	         8.17496e+57
          1974.35360	         7.33624e+57
          1975.15990	         6.95181e+57
          1975.96620	         8.15156e+57
          1976.77250	         8.01327e+57
          1977.57880	         7.67186e+57
          1978.38510	         6.82005e+57
          1979.19140	         6.91590e+57
          1979.99770	         7.75294e+57
          1980.80400	         7.74323e+57
          1981.61030	         6.62341e+57
          1982.41660	         5.27781e+57
          1983.22290	         5.50723e+57
          1984.02920	         4.59021e+57
          1984.83550	         5.82330e+57
          1985.64180	         7.50155e+57
          1986.44810	         7.11042e+57
          1987.25440	         5.95422e+57
          1988.06070	         5.62251e+57
          1988.86700	         6.37986e+57
          1989.67330	         6.70920e+57
          1990.47960	         6.53488e+57
          1991.28590	         5.96667e+57
          1992.09220	         5.50544e+57
          1992.89850	         5.43625e+57
          1993.70480	         5.30201e+57
          1994.51110	         5.28214e+57
          1995.31740	         5.46573e+57
          1996.12370	         5.70486e+57
          1996.93000	         6.37714e+57
          1997.73630	         8.07560e+57
          1998.54260	         8.44845e+57
          1999.34890	         7.17914e+57
          2000.15520	         6.59727e+57
          2000.96150	         6.42582e+57
          2001.76780	         6.79415e+57
          2002.57410	         4.75994e+57
          2003.38040	         5.74342e+57
          2004.18670	         6.65802e+57
          2004.99300	         6.77750e+57
          2005.79930	         6.67855e+57
          2006.60560	         6.32809e+57
          2007.41190	         6.24186e+57
          2008.21820	         6.40235e+57
          2009.02450	         6.89332e+57
          2009.83080	         6.53634e+57
          2010.63710	         6.00242e+57
          2011.44340	         5.65171e+57
          2012.24970	         6.75624e+57
          2013.05600	         6.66374e+57
          2013.86230	         6.00397e+57
          2014.66860	         4.80427e+57
          2015.47490	         6.07827e+57
          2016.28120	         5.80996e+57
          2017.08750	         5.28972e+57
          2017.89380	         6.18356e+57
          2018.70010	         6.21992e+57
          2019.50640	         5.80249e+57
          2020.31270	         6.47923e+57
          2021.11900	         7.77762e+57
          2021.92530	         7.30037e+57
          2022.73160	         7.85687e+57
          2023.53790	         7.57812e+57
          2024.34420	         6.46467e+57
          2025.15050	         6.09452e+57
          2025.95680	         5.82382e+57
          2026.76310	         7.09822e+57
          2027.56940	         7.22730e+57
          2028.37570	         5.40817e+57
          2029.18200	         6.23090e+57
          2029.98830	         6.21558e+57
          2030.79460	         6.25900e+57
          2031.60090	         7.10484e+57
          2032.40720	         6.35331e+57
          2033.21350	         6.35122e+57
          2034.01980	         5.88153e+57
          2034.82610	         4.40615e+57
          2035.63240	         4.80507e+57
          2036.43870	         5.38530e+57
          2037.24500	         6.42411e+57
          2038.05130	         5.74263e+57
          2038.85760	         5.67147e+57
          2039.66390	         6.91564e+57
          2040.47020	         5.86647e+57
          2041.27650	         5.43547e+57
          2042.08280	         5.62881e+57
          2042.88910	         6.33777e+57
          2043.69540	         6.72301e+57
          2044.50170	         5.76752e+57
          2045.30800	         6.04341e+57
          2046.11430	         5.92735e+57
          2046.92060	         6.78990e+57
          2047.72690	         6.83057e+57
          2048.53320	         6.48736e+57
          2049.33950	         3.87367e+57
          2050.14580	         6.10747e+57
          2050.95210	         6.56390e+57
          2051.75840	         6.97850e+57
          2052.56470	         6.98525e+57
          2053.37100	         5.04218e+57
          2054.17730	         5.35369e+57
          2054.98360	         5.11932e+57
          2055.78990	         2.72485e+57
          2056.59620	         2.58016e+57
          2057.40250	         5.35721e+57
          2058.20880	         7.08276e+57
          2059.01510	         5.00167e+57
          2059.82140	         4.44979e+57
          2060.62770	         9.55076e+57
          2061.43400	         1.47905e+58
          2062.24030	         1.08461e+58
          2063.04660	         5.94555e+57
          2063.85290	         2.43145e+57
          2064.65920	        -4.52469e+57
          2065.46550	        -8.52162e+57
          2066.27180	        -7.95017e+57
          2067.07810	         3.03154e+57
          2067.88440	         4.88151e+57
          2068.69070	         5.25507e+57
          2069.49700	         4.14455e+57
          2070.30330	         2.44115e+57
          2071.10960	         6.18042e+57
          2071.91590	         6.63830e+57
          2072.72220	         5.13005e+57
          2073.52850	         4.16353e+57
          2074.33480	         5.07950e+57
          2075.14110	         5.60673e+57
          2075.94740	         5.63043e+57
          2076.75370	         4.48741e+57
          2077.56000	         4.79024e+57
          2078.36630	         5.70363e+57
          2079.17260	         5.63821e+57
          2079.97890	         5.68386e+57
          2080.78520	         6.21463e+57
          2081.59150	         5.52899e+57
          2082.39780	         5.42445e+57
          2083.20410	         2.99824e+57
          2084.01040	         1.82164e+57
          2084.81670	         3.69793e+57
          2085.62300	         3.53542e+57
          2086.42930	         3.72895e+57
          2087.23560	         3.67640e+57
          2088.04190	         3.81845e+57
          2088.84820	         2.93822e+57
          2089.65450	         1.58033e+57
          2090.46080	         1.49225e+57
          2091.26710	         3.30705e+57
          2092.07340	         4.64773e+57
          2092.87970	         3.64895e+57
          2093.68600	         2.24045e+56
          2094.49230	         1.34652e+57
          2095.29860	         4.31388e+57
          2096.10490	         1.80099e+57
          2096.91120	         2.77698e+57
          2097.71750	         1.56901e+57
          2098.52380	         1.18486e+57
          2099.33010	         1.75361e+57
          2100.13640	         8.98053e+56
          2100.94270	         6.30946e+56
          2101.74900	         1.94358e+57
          2102.55530	         1.92954e+57
          2103.36160	         3.00555e+57
          2104.16790	         1.22452e+57
          2104.97420	         2.01990e+57
          2105.78050	         2.41088e+57
          2106.58680	         4.07113e+56
          2107.39310	        -3.49010e+57
          2108.19940	        -1.02040e+57
          2109.00570	         1.87815e+56
          2109.81200	        -7.46141e+56
          2110.61830	        -4.87352e+56
          2111.42460	         6.31923e+56
          2112.23090	         2.88934e+56
          2113.03720	         1.69188e+57
          2113.84350	        -7.27575e+56
          2114.64980	         3.92977e+57
          2115.45610	         8.51925e+56
          2116.26240	        -5.86215e+57
          2117.06870	        -1.08622e+57
          2117.87500	        -3.31151e+57
          2118.68130	         2.31757e+57
          2119.48760	         2.51266e+57
          2120.29390	         4.61337e+56
          2121.10020	        -4.80119e+56
          2121.90650	        -1.39536e+57
          2122.71280	         1.06643e+54
          2123.51910	         4.19505e+56
          2124.32540	         1.23494e+57
          2125.13170	        -7.92512e+54
          2125.93800	         1.31937e+57
          2126.74430	        -4.75277e+57
          2127.55060	        -5.60774e+57
          2128.35690	        -2.36033e+57
          2129.16320	        -5.30374e+57
          2129.96950	        -4.85920e+57
          2130.77580	        -9.30430e+56
          2131.58210	        -6.60288e+57
          2132.38840	        -3.99501e+57
          2133.19470	        -5.55303e+57
          2134.00100	         1.87395e+57
          2134.80730	        -6.32642e+57
          2135.61360	         7.28267e+57
          2136.41990	         7.68322e+57
          2137.22620	         8.31216e+56
          2138.03250	         7.00563e+56
          2138.83880	        -1.95828e+57
          2139.64510	        -9.78720e+56
          2140.45140	        -2.88117e+57
          2141.25770	        -3.35897e+57
          2142.06400	        -3.53779e+57
          2142.87030	        -1.47555e+57
          2143.67660	         4.11296e+57
          2144.48290	         7.32551e+57
          2145.28920	         9.26742e+57
          2146.09550	        -9.30261e+57
          2146.90180	        -1.11962e+58
          2147.70810	        -1.29360e+58
          2148.51440	        -9.83573e+57
          2149.32070	        -8.30705e+57
          2150.12700	        -9.61089e+57
          2150.93330	        -5.28228e+57
          2151.73960	        -1.70988e+57
          2152.54590	        -1.03198e+57
          2153.35220	         1.97563e+57
          2154.15850	        -3.02097e+57
          2154.96480	         5.18733e+57
          2155.77110	        -1.03186e+58
          2156.57740	        -5.08127e+57
          2157.38370	         4.01071e+57
          2158.19000	        -5.14104e+57
          2158.99630	        -2.00240e+57
          2159.80260	        -8.58337e+57
          2160.60890	        -6.39345e+57
          2161.41520	        -3.12073e+57
          2162.22150	        -2.62359e+57
          2163.02780	        -4.45409e+57
          2163.83410	        -5.32936e+57
          2164.64040	        -1.08728e+58
          2165.44670	        -1.60563e+58
          2166.25300	        -5.60873e+57
          2167.05930	        -5.21792e+57
          2167.86560	        -1.45787e+58
          2168.67190	        -6.48727e+57
          2169.47820	         9.14418e+56
          2170.28450	        -1.01854e+58
          2171.09080	        -4.49792e+53
          2171.89710	        -6.43895e+57
          2172.70340	         1.27389e+57
          2173.50970	        -5.87199e+57
          2174.31600	        -2.09009e+57
          2175.12230	        -5.73027e+57
          2175.92860	        -8.54456e+57
          2176.73490	        -9.87417e+57
          2177.54120	        -8.48291e+57
          2178.34750	        -5.93672e+57
          2179.15380	                 nan
          2179.96010	                 nan
          2180.76640	                 nan
          2181.57270	                 nan
          2182.37900	                 nan
          2183.18530	                 nan
          2183.99160	                 nan
          2184.79790	                 nan
          2185.60420	                 nan
          2186.41050	                 nan
          2187.21680	                 nan
          2188.02310	                 nan
          2188.82940	                 nan
          2189.63570	                 nan
          2190.44200	                 nan
          2191.24830	                 nan
          2192.05460	                 nan
          2192.86090	                 nan
          2193.66720	                 nan
          2194.47350	                 nan
          2195.27980	                 nan
          2196.08610	                 nan
          2196.89240	                 nan
          2197.69870	                 nan
          2198.50500	                 nan
          2199.31130	                 nan
          2200.11760	                 nan
          2200.92390	                 nan
          2201.73020	                 nan
          2202.53650	                 nan
          2203.34280	                 nan
          2204.14910	                 nan
          2204.95540	                 nan
          2205.76170	                 nan
          2206.56800	                 nan
          2207.37430	                 nan
          2208.18060	                 nan
          2208.98690	                 nan
          2209.79320	                 nan
          2210.59950	                 nan
          2211.40580	                 nan
          2212.21210	                 nan
          2213.01840	                 nan
          2213.82470	                 nan
          2214.63100	                 nan
          2215.43730	         0.00000e+00
