#sample_79_stacked_spectrum_rest_UV-bands_median_H-alpha_noDC.txt
#median Lum: 1.67298e+42
#Rest-frame wavelength (A) | Luminosity (erg/s/A)
#
          1110.00000	         0.00000e+00
          1110.80630	        -2.75415e+59
          1111.61260	         1.70987e+58
          1112.41890	         2.23624e+59
          1113.22520	        -2.01262e+58
          1114.03150	        -1.80216e+59
          1114.83780	        -5.80938e+58
          1115.64410	         9.31608e+58
          1116.45040	         6.59567e+58
          1117.25670	        -7.64449e+58
          1118.06300	         1.21687e+59
          1118.86930	        -9.30274e+56
          1119.67560	         6.35949e+58
          1120.48190	        -3.09882e+58
          1121.28820	        -1.46581e+59
          1122.09450	        -2.28422e+58
          1122.90080	        -9.78000e+57
          1123.70710	        -1.19468e+58
          1124.51340	         7.78275e+58
          1125.31970	         4.52071e+58
          1126.12600	        -5.18014e+57
          1126.93230	        -7.56189e+58
          1127.73860	        -5.04353e+58
          1128.54490	        -6.13072e+57
          1129.35120	         3.69612e+57
          1130.15750	        -1.31389e+58
          1130.96380	        -6.58816e+58
          1131.77010	         4.90579e+58
          1132.57640	         5.01570e+58
          1133.38270	         4.05729e+58
          1134.18900	         2.48885e+58
          1134.99530	         2.00890e+58
          1135.80160	         3.12579e+58
          1136.60790	         3.19554e+57
          1137.41420	        -6.11168e+57
          1138.22050	         4.28536e+58
          1139.02680	         4.40318e+58
          1139.83310	         2.62670e+58
          1140.63940	         3.22704e+58
          1141.44570	        -2.19811e+58
          1142.25200	        -2.56298e+57
          1143.05830	         1.72984e+58
          1143.86460	         4.06676e+58
          1144.67090	         3.48192e+58
          1145.47720	         7.60105e+57
          1146.28350	         1.89275e+58
          1147.08980	         1.50870e+58
          1147.89610	         8.14376e+57
          1148.70240	         1.67780e+58
          1149.50870	         2.32750e+58
          1150.31500	         7.56762e+57
          1151.12130	         1.58202e+56
          1151.92760	        -1.27108e+58
          1152.73390	         7.61961e+57
          1153.54020	         5.41166e+57
          1154.34650	         1.89970e+58
          1155.15280	         2.18229e+58
          1155.95910	         1.09084e+58
          1156.76540	         5.37903e+57
          1157.57170	         1.52643e+58
          1158.37800	         7.46164e+57
          1159.18430	         9.52077e+56
          1159.99060	         1.15680e+58
          1160.79690	         9.91419e+57
          1161.60320	         1.23718e+58
          1162.40950	         1.92844e+58
          1163.21580	         8.98617e+57
          1164.02210	         1.36833e+58
          1164.82840	         1.32531e+58
          1165.63470	         1.90497e+58
          1166.44100	         3.38512e+58
          1167.24730	         1.96616e+58
          1168.05360	         7.17903e+57
          1168.85990	         8.94221e+57
          1169.66620	         9.67020e+57
          1170.47250	         1.41579e+58
          1171.27880	         1.67927e+58
          1172.08510	         2.01000e+58
          1172.89140	         1.63533e+58
          1173.69770	         1.66916e+58
          1174.50400	         2.27917e+58
          1175.31030	         1.98826e+58
          1176.11660	         1.78897e+58
          1176.92290	         1.74560e+58
          1177.72920	         1.17386e+58
          1178.53550	         7.72804e+57
          1179.34180	         2.92674e+57
          1180.14810	         4.85330e+57
          1180.95440	         7.10341e+57
          1181.76070	         6.49848e+57
          1182.56700	         5.31894e+57
          1183.37330	         7.05427e+57
          1184.17960	         1.13105e+58
          1184.98590	         9.27089e+57
          1185.79220	         8.86649e+57
          1186.59850	         1.65544e+58
          1187.40480	         1.04170e+58
          1188.21110	         1.69590e+58
          1189.01740	         1.25658e+58
          1189.82370	         9.54893e+57
          1190.63000	         1.14054e+58
          1191.43630	         9.90354e+57
          1192.24260	         2.35193e+57
          1193.04890	         7.30212e+57
          1193.85520	         9.81432e+57
          1194.66150	         4.66433e+57
          1195.46780	         1.04004e+58
          1196.27410	         1.59717e+58
          1197.08040	         1.31653e+58
          1197.88670	         1.56935e+58
          1198.69300	         1.57261e+58
          1199.49930	         1.37951e+58
          1200.30560	         1.20290e+58
          1201.11190	         1.06194e+58
          1201.91820	         1.00053e+58
          1202.72450	         6.38036e+57
          1203.53080	         1.47395e+58
          1204.33710	         8.02508e+57
          1205.14340	         5.63786e+57
          1205.94970	         3.93338e+57
          1206.75600	         2.38945e+57
          1207.56230	         7.69995e+57
          1208.36860	         1.02451e+58
          1209.17490	         5.49231e+57
          1209.98120	         8.45252e+57
          1210.78750	         8.82637e+57
          1211.59380	         1.10731e+58
          1212.40010	         1.73879e+58
          1213.20640	         1.87588e+58
          1214.01270	         1.77617e+58
          1214.81900	         2.35135e+58
          1215.62530	         4.79379e+58
          1216.43160	         9.44400e+58
          1217.23790	         1.56786e+59
          1218.04420	         1.14224e+59
          1218.85050	         8.41504e+58
          1219.65680	         5.70095e+58
          1220.46310	         3.75893e+58
          1221.26940	         2.54751e+58
          1222.07570	         1.30407e+58
          1222.88200	         1.09019e+58
          1223.68830	         6.58649e+57
          1224.49460	         5.90046e+57
          1225.30090	         5.28361e+57
          1226.10720	         6.01993e+57
          1226.91350	         7.57807e+57
          1227.71980	         1.04798e+58
          1228.52610	         1.40343e+58
          1229.33240	         1.28952e+58
          1230.13870	         6.69828e+57
          1230.94500	         7.28520e+57
          1231.75130	         7.04021e+57
          1232.55760	         9.10646e+57
          1233.36390	         1.12180e+58
          1234.17020	         1.19522e+58
          1234.97650	         1.10332e+58
          1235.78280	         8.81025e+57
          1236.58910	         7.92984e+57
          1237.39540	         9.51723e+57
          1238.20170	         7.75793e+57
          1239.00800	         1.08902e+58
          1239.81430	         1.36361e+58
          1240.62060	         1.19077e+58
          1241.42690	         1.23555e+58
          1242.23320	         1.27184e+58
          1243.03950	         9.95615e+57
          1243.84580	         8.33005e+57
          1244.65210	         1.01278e+58
          1245.45840	         1.21653e+58
          1246.26470	         1.10195e+58
          1247.07100	         8.66141e+57
          1247.87730	         4.86839e+57
          1248.68360	         4.49585e+57
          1249.48990	         8.65534e+57
          1250.29620	         1.04108e+58
          1251.10250	         7.80109e+57
          1251.90880	         4.77635e+57
          1252.71510	         5.78375e+57
          1253.52140	         4.55756e+57
          1254.32770	         5.88211e+57
          1255.13400	         1.11057e+58
          1255.94030	         1.19622e+58
          1256.74660	         1.10161e+58
          1257.55290	         1.12811e+58
          1258.35920	         7.55108e+57
          1259.16550	         3.30905e+57
          1259.97180	         5.24567e+57
          1260.77810	         7.38816e+57
          1261.58440	         6.91880e+57
          1262.39070	         6.35019e+57
          1263.19700	         7.86647e+57
          1264.00330	         8.52439e+57
          1264.80960	         8.54899e+57
          1265.61590	         1.09835e+58
          1266.42220	         1.17349e+58
          1267.22850	         1.25948e+58
          1268.03480	         1.44242e+58
          1268.84110	         1.45259e+58
          1269.64740	         1.48976e+58
          1270.45370	         1.39141e+58
          1271.26000	         1.19263e+58
          1272.06630	         1.29938e+58
          1272.87260	         1.28653e+58
          1273.67890	         1.25333e+58
          1274.48520	         1.26192e+58
          1275.29150	         1.28092e+58
          1276.09780	         1.04933e+58
          1276.90410	         1.38457e+58
          1277.71040	         1.46161e+58
          1278.51670	         1.29340e+58
          1279.32300	         1.37968e+58
          1280.12930	         1.38353e+58
          1280.93560	         1.13946e+58
          1281.74190	         1.01519e+58
          1282.54820	         1.29808e+58
          1283.35450	         1.15758e+58
          1284.16080	         8.81927e+57
          1284.96710	         1.12284e+58
          1285.77340	         9.51771e+57
          1286.57970	         8.75257e+57
          1287.38600	         1.36551e+58
          1288.19230	         1.69742e+58
          1288.99860	         1.42002e+58
          1289.80490	         1.06800e+58
          1290.61120	         1.20761e+58
          1291.41750	         1.33063e+58
          1292.22380	         1.29359e+58
          1293.03010	         1.31525e+58
          1293.83640	         1.24971e+58
          1294.64270	         1.03592e+58
          1295.44900	         6.69368e+57
          1296.25530	         7.01806e+57
          1297.06160	         1.11201e+58
          1297.86790	         1.09212e+58
          1298.67420	         8.02932e+57
          1299.48050	         7.41390e+57
          1300.28680	         8.93835e+57
          1301.09310	         9.71047e+57
          1301.89940	         5.17683e+57
          1302.70570	         6.59141e+57
          1303.51200	         8.78309e+57
          1304.31830	         9.60170e+57
          1305.12460	         1.08339e+58
          1305.93090	         1.16540e+58
          1306.73720	         1.19843e+58
          1307.54350	         1.27869e+58
          1308.34980	         1.44314e+58
          1309.15610	         1.46148e+58
          1309.96240	         1.55351e+58
          1310.76870	         1.47663e+58
          1311.57500	         1.11260e+58
          1312.38130	         1.07466e+58
          1313.18760	         1.23569e+58
          1313.99390	         1.40829e+58
          1314.80020	         1.62362e+58
          1315.60650	         1.62855e+58
          1316.41280	         1.29663e+58
          1317.21910	         1.26066e+58
          1318.02540	         1.29972e+58
          1318.83170	         1.42622e+58
          1319.63800	         1.33341e+58
          1320.44430	         1.16248e+58
          1321.25060	         1.23616e+58
          1322.05690	         1.15794e+58
          1322.86320	         1.19380e+58
          1323.66950	         1.13679e+58
          1324.47580	         9.84055e+57
          1325.28210	         8.57394e+57
          1326.08840	         9.51647e+57
          1326.89470	         1.06241e+58
          1327.70100	         1.06518e+58
          1328.50730	         7.46145e+57
          1329.31360	         7.75247e+57
          1330.11990	         9.96733e+57
          1330.92620	         1.02276e+58
          1331.73250	         1.05253e+58
          1332.53880	         8.77160e+57
          1333.34510	         7.05480e+57
          1334.15140	         7.88801e+57
          1334.95770	         8.66547e+57
          1335.76400	         1.03087e+58
          1336.57030	         1.15304e+58
          1337.37660	         1.08298e+58
          1338.18290	         1.01799e+58
          1338.98920	         1.09487e+58
          1339.79550	         9.97794e+57
          1340.60180	         1.12536e+58
          1341.40810	         1.38040e+58
          1342.21440	         1.17503e+58
          1343.02070	         1.12963e+58
          1343.82700	         1.27650e+58
          1344.63330	         1.30287e+58
          1345.43960	         1.27021e+58
          1346.24590	         1.04447e+58
          1347.05220	         9.98949e+57
          1347.85850	         1.02607e+58
          1348.66480	         1.19477e+58
          1349.47110	         1.25824e+58
          1350.27740	         1.01947e+58
          1351.08370	         1.09526e+58
          1351.89000	         1.24763e+58
          1352.69630	         1.13535e+58
          1353.50260	         1.13390e+58
          1354.30890	         1.18629e+58
          1355.11520	         1.23346e+58
          1355.92150	         1.15525e+58
          1356.72780	         1.09403e+58
          1357.53410	         9.78983e+57
          1358.34040	         9.61094e+57
          1359.14670	         9.74075e+57
          1359.95300	         1.15760e+58
          1360.75930	         1.17450e+58
          1361.56560	         1.07009e+58
          1362.37190	         1.10631e+58
          1363.17820	         1.05752e+58
          1363.98450	         1.09624e+58
          1364.79080	         1.21815e+58
          1365.59710	         1.27148e+58
          1366.40340	         1.22153e+58
          1367.20970	         1.08171e+58
          1368.01600	         1.03261e+58
          1368.82230	         9.68644e+57
          1369.62860	         1.06142e+58
          1370.43490	         1.02403e+58
          1371.24120	         1.06627e+58
          1372.04750	         1.01546e+58
          1372.85380	         1.14650e+58
          1373.66010	         1.13590e+58
          1374.46640	         1.06299e+58
          1375.27270	         1.13885e+58
          1376.07900	         1.03931e+58
          1376.88530	         8.76157e+57
          1377.69160	         8.70412e+57
          1378.49790	         8.03669e+57
          1379.30420	         7.81132e+57
          1380.11050	         9.46724e+57
          1380.91680	         8.03025e+57
          1381.72310	         7.59504e+57
          1382.52940	         8.30626e+57
          1383.33570	         8.15307e+57
          1384.14200	         8.82635e+57
          1384.94830	         1.04287e+58
          1385.75460	         1.03716e+58
          1386.56090	         1.12558e+58
          1387.36720	         1.05405e+58
          1388.17350	         1.18304e+58
          1388.97980	         1.05311e+58
          1389.78610	         9.31995e+57
          1390.59240	         8.52602e+57
          1391.39870	         7.56804e+57
          1392.20500	         1.01466e+58
          1393.01130	         8.73340e+57
          1393.81760	         7.28528e+57
          1394.62390	         6.14660e+57
          1395.43020	         5.96041e+57
          1396.23650	         6.47716e+57
          1397.04280	         7.37435e+57
          1397.84910	         8.12597e+57
          1398.65540	         7.94479e+57
          1399.46170	         9.27798e+57
          1400.26800	         8.76567e+57
          1401.07430	         7.68467e+57
          1401.88060	         7.71350e+57
          1402.68690	         7.96798e+57
          1403.49320	         8.66777e+57
          1404.29950	         9.43847e+57
          1405.10580	         1.13894e+58
          1405.91210	         1.16241e+58
          1406.71840	         1.09942e+58
          1407.52470	         1.12075e+58
          1408.33100	         9.17716e+57
          1409.13730	         9.82788e+57
          1409.94360	         1.07929e+58
          1410.74990	         1.14898e+58
          1411.55620	         9.86203e+57
          1412.36250	         8.41850e+57
          1413.16880	         8.67281e+57
          1413.97510	         7.86129e+57
          1414.78140	         8.10850e+57
          1415.58770	         9.59263e+57
          1416.39400	         1.07196e+58
          1417.20030	         1.04297e+58
          1418.00660	         9.39572e+57
          1418.81290	         9.85232e+57
          1419.61920	         1.11628e+58
          1420.42550	         1.28476e+58
          1421.23180	         1.43125e+58
          1422.03810	         1.18472e+58
          1422.84440	         1.08729e+58
          1423.65070	         1.30590e+58
          1424.45700	         1.19553e+58
          1425.26330	         8.68312e+57
          1426.06960	         8.72117e+57
          1426.87590	         9.62318e+57
          1427.68220	         9.57531e+57
          1428.48850	         1.07734e+58
          1429.29480	         1.02550e+58
          1430.10110	         8.86439e+57
          1430.90740	         8.27557e+57
          1431.71370	         8.01884e+57
          1432.52000	         8.20610e+57
          1433.32630	         7.91838e+57
          1434.13260	         8.20302e+57
          1434.93890	         9.51827e+57
          1435.74520	         1.01352e+58
          1436.55150	         1.02078e+58
          1437.35780	         8.57113e+57
          1438.16410	         8.40653e+57
          1438.97040	         9.31378e+57
          1439.77670	         9.48060e+57
          1440.58300	         9.45572e+57
          1441.38930	         8.99664e+57
          1442.19560	         9.54710e+57
          1443.00190	         1.01355e+58
          1443.80820	         1.05774e+58
          1444.61450	         9.70768e+57
          1445.42080	         9.66964e+57
          1446.22710	         1.05740e+58
          1447.03340	         1.03820e+58
          1447.83970	         1.14992e+58
          1448.64600	         1.13277e+58
          1449.45230	         9.59411e+57
          1450.25860	         9.41678e+57
          1451.06490	         8.62230e+57
          1451.87120	         8.18251e+57
          1452.67750	         7.27853e+57
          1453.48380	         8.03804e+57
          1454.29010	         7.53582e+57
          1455.09640	         7.54596e+57
          1455.90270	         8.27500e+57
          1456.70900	         8.24905e+57
          1457.51530	         9.03786e+57
          1458.32160	         1.17105e+58
          1459.12790	         1.15532e+58
          1459.93420	         9.97666e+57
          1460.74050	         8.23598e+57
          1461.54680	         8.69251e+57
          1462.35310	         7.59941e+57
          1463.15940	         9.25878e+57
          1463.96570	         1.10756e+58
          1464.77200	         1.11910e+58
          1465.57830	         1.04758e+58
          1466.38460	         9.40903e+57
          1467.19090	         9.05787e+57
          1467.99720	         9.07876e+57
          1468.80350	         1.04170e+58
          1469.60980	         1.05660e+58
          1470.41610	         1.11823e+58
          1471.22240	         9.97299e+57
          1472.02870	         9.80429e+57
          1472.83500	         1.04024e+58
          1473.64130	         9.95729e+57
          1474.44760	         9.32822e+57
          1475.25390	         8.28586e+57
          1476.06020	         7.13757e+57
          1476.86650	         7.66117e+57
          1477.67280	         8.00686e+57
          1478.47910	         6.61273e+57
          1479.28540	         6.81265e+57
          1480.09170	         7.96211e+57
          1480.89800	         8.83775e+57
          1481.70430	         8.48865e+57
          1482.51060	         8.00491e+57
          1483.31690	         8.55007e+57
          1484.12320	         8.50873e+57
          1484.92950	         6.98802e+57
          1485.73580	         8.39681e+57
          1486.54210	         8.97711e+57
          1487.34840	         8.36345e+57
          1488.15470	         8.22760e+57
          1488.96100	         8.68219e+57
          1489.76730	         8.37216e+57
          1490.57360	         7.67715e+57
          1491.37990	         7.35687e+57
          1492.18620	         1.00156e+58
          1492.99250	         9.47040e+57
          1493.79880	         8.89723e+57
          1494.60510	         8.79297e+57
          1495.41140	         7.56802e+57
          1496.21770	         7.59020e+57
          1497.02400	         8.80063e+57
          1497.83030	         8.13415e+57
          1498.63660	         7.32408e+57
          1499.44290	         7.54579e+57
          1500.24920	         7.74123e+57
          1501.05550	         8.00546e+57
          1501.86180	         8.48641e+57
          1502.66810	         8.78195e+57
          1503.47440	         8.57227e+57
          1504.28070	         8.54458e+57
          1505.08700	         9.41211e+57
          1505.89330	         1.02012e+58
          1506.69960	         9.25792e+57
          1507.50590	         9.26342e+57
          1508.31220	         9.27223e+57
          1509.11850	         8.38098e+57
          1509.92480	         9.26938e+57
          1510.73110	         9.01583e+57
          1511.53740	         7.65064e+57
          1512.34370	         7.91435e+57
          1513.15000	         8.89855e+57
          1513.95630	         1.00772e+58
          1514.76260	         9.28557e+57
          1515.56890	         7.72556e+57
          1516.37520	         7.97102e+57
          1517.18150	         8.49621e+57
          1517.98780	         8.08649e+57
          1518.79410	         7.83709e+57
          1519.60040	         7.55757e+57
          1520.40670	         8.94621e+57
          1521.21300	         9.53410e+57
          1522.01930	         8.32988e+57
          1522.82560	         8.71803e+57
          1523.63190	         9.23874e+57
          1524.43820	         8.38642e+57
          1525.24450	         6.88010e+57
          1526.05080	         6.33491e+57
          1526.85710	         6.48591e+57
          1527.66340	         6.53655e+57
          1528.46970	         7.24922e+57
          1529.27600	         7.22414e+57
          1530.08230	         7.93209e+57
          1530.88860	         8.51468e+57
          1531.69490	         9.05462e+57
          1532.50120	         9.90295e+57
          1533.30750	         1.02847e+58
          1534.11380	         9.87157e+57
          1534.92010	         9.32285e+57
          1535.72640	         9.16271e+57
          1536.53270	         9.11792e+57
          1537.33900	         8.79505e+57
          1538.14530	         8.88470e+57
          1538.95160	         9.45194e+57
          1539.75790	         8.61899e+57
          1540.56420	         8.13482e+57
          1541.37050	         7.95728e+57
          1542.17680	         6.62109e+57
          1542.98310	         6.60817e+57
          1543.78940	         7.51927e+57
          1544.59570	         7.04305e+57
          1545.40200	         7.89957e+57
          1546.20830	         8.46232e+57
          1547.01460	         1.02192e+58
          1547.82090	         1.13816e+58
          1548.62720	         1.27194e+58
          1549.43350	         1.24965e+58
          1550.23980	         1.13238e+58
          1551.04610	         1.21485e+58
          1551.85240	         1.13625e+58
          1552.65870	         1.13725e+58
          1553.46500	         1.10300e+58
          1554.27130	         9.99453e+57
          1555.07760	         9.57489e+57
          1555.88390	         9.37036e+57
          1556.69020	         9.52717e+57
          1557.49650	         9.19377e+57
          1558.30280	         8.79082e+57
          1559.10910	         9.15618e+57
          1559.91540	         9.60831e+57
          1560.72170	         9.86078e+57
          1561.52800	         9.06094e+57
          1562.33430	         8.19368e+57
          1563.14060	         8.08177e+57
          1563.94690	         8.80739e+57
          1564.75320	         8.41906e+57
          1565.55950	         7.32061e+57
          1566.36580	         7.64880e+57
          1567.17210	         8.76056e+57
          1567.97840	         8.78047e+57
          1568.78470	         8.25155e+57
          1569.59100	         8.70305e+57
          1570.39730	         8.28315e+57
          1571.20360	         7.16551e+57
          1572.00990	         7.10795e+57
          1572.81620	         7.99845e+57
          1573.62250	         1.02596e+58
          1574.42880	         9.82601e+57
          1575.23510	         8.93364e+57
          1576.04140	         8.84904e+57
          1576.84770	         8.66248e+57
          1577.65400	         8.42443e+57
          1578.46030	         9.31719e+57
          1579.26660	         1.05814e+58
          1580.07290	         9.72509e+57
          1580.87920	         8.04247e+57
          1581.68550	         7.53238e+57
          1582.49180	         8.14916e+57
          1583.29810	         7.44373e+57
          1584.10440	         8.02211e+57
          1584.91070	         8.84446e+57
          1585.71700	         8.83101e+57
          1586.52330	         9.21714e+57
          1587.32960	         8.91271e+57
          1588.13590	         8.90623e+57
          1588.94220	         8.56206e+57
          1589.74850	         8.98495e+57
          1590.55480	         9.27451e+57
          1591.36110	         8.06462e+57
          1592.16740	         8.52849e+57
          1592.97370	         8.62656e+57
          1593.78000	         9.31053e+57
          1594.58630	         9.37132e+57
          1595.39260	         9.02240e+57
          1596.19890	         9.21809e+57
          1597.00520	         9.19036e+57
          1597.81150	         8.72804e+57
          1598.61780	         8.14116e+57
          1599.42410	         7.91556e+57
          1600.23040	         7.78064e+57
          1601.03670	         7.17680e+57
          1601.84300	         6.97605e+57
          1602.64930	         7.85368e+57
          1603.45560	         8.19278e+57
          1604.26190	         8.04202e+57
          1605.06820	         7.85456e+57
          1605.87450	         7.16366e+57
          1606.68080	         7.05620e+57
          1607.48710	         5.94574e+57
          1608.29340	         5.58382e+57
          1609.09970	         6.35399e+57
          1609.90600	         6.41734e+57
          1610.71230	         6.72491e+57
          1611.51860	         6.73886e+57
          1612.32490	         6.50946e+57
          1613.13120	         7.32857e+57
          1613.93750	         7.53193e+57
          1614.74380	         8.96130e+57
          1615.55010	         9.96953e+57
          1616.35640	         9.59160e+57
          1617.16270	         1.02377e+58
          1617.96900	         9.86431e+57
          1618.77530	         7.92381e+57
          1619.58160	         6.74039e+57
          1620.38790	         7.13113e+57
          1621.19420	         8.79432e+57
          1622.00050	         8.27724e+57
          1622.80680	         8.14119e+57
          1623.61310	         8.33509e+57
          1624.41940	         8.45140e+57
          1625.22570	         8.73063e+57
          1626.03200	         7.79978e+57
          1626.83830	         8.39376e+57
          1627.64460	         8.80969e+57
          1628.45090	         7.56243e+57
          1629.25720	         7.72071e+57
          1630.06350	         7.47783e+57
          1630.86980	         6.10795e+57
          1631.67610	         7.16781e+57
          1632.48240	         9.33134e+57
          1633.28870	         8.86404e+57
          1634.09500	         8.37749e+57
          1634.90130	         1.07590e+58
          1635.70760	         9.89187e+57
          1636.51390	         7.83907e+57
          1637.32020	         7.64549e+57
          1638.12650	         8.80112e+57
          1638.93280	         1.02634e+58
          1639.73910	         1.21141e+58
          1640.54540	         1.03625e+58
          1641.35170	         7.63290e+57
          1642.15800	         7.55248e+57
          1642.96430	         8.21648e+57
          1643.77060	         7.65772e+57
          1644.57690	         8.12745e+57
          1645.38320	         9.25192e+57
          1646.18950	         8.23466e+57
          1646.99580	         8.81134e+57
          1647.80210	         8.03942e+57
          1648.60840	         8.05888e+57
          1649.41470	         9.26590e+57
          1650.22100	         7.10700e+57
          1651.02730	         7.26764e+57
          1651.83360	         8.35515e+57
          1652.63990	         8.02968e+57
          1653.44620	         8.66200e+57
          1654.25250	         8.06601e+57
          1655.05880	         7.27594e+57
          1655.86510	         7.99401e+57
          1656.67140	         8.02138e+57
          1657.47770	         8.36044e+57
          1658.28400	         8.26229e+57
          1659.09030	         8.44645e+57
          1659.89660	         9.00460e+57
          1660.70290	         9.42759e+57
          1661.50920	         9.10433e+57
          1662.31550	         7.94026e+57
          1663.12180	         8.45551e+57
          1663.92810	         1.00170e+58
          1664.73440	         1.07325e+58
          1665.54070	         1.19254e+58
          1666.34700	         1.22683e+58
          1667.15330	         1.14960e+58
          1667.95960	         8.86822e+57
          1668.76590	         7.63593e+57
          1669.57220	         7.55839e+57
          1670.37850	         7.99914e+57
          1671.18480	         8.00830e+57
          1671.99110	         7.85963e+57
          1672.79740	         7.09964e+57
          1673.60370	         6.34886e+57
          1674.41000	         6.97926e+57
          1675.21630	         7.16036e+57
          1676.02260	         7.16862e+57
          1676.82890	         6.53329e+57
          1677.63520	         6.97733e+57
          1678.44150	         7.82926e+57
          1679.24780	         8.39512e+57
          1680.05410	         8.14231e+57
          1680.86040	         7.12482e+57
          1681.66670	         7.39100e+57
          1682.47300	         8.27339e+57
          1683.27930	         7.48625e+57
          1684.08560	         8.38958e+57
          1684.89190	         8.18580e+57
          1685.69820	         5.38319e+57
          1686.50450	         4.65336e+57
          1687.31080	         5.77307e+57
          1688.11710	         7.32010e+57
          1688.92340	         7.01964e+57
          1689.72970	         5.55124e+57
          1690.53600	         6.73960e+57
          1691.34230	         7.70429e+57
          1692.14860	         7.77068e+57
          1692.95490	         7.46289e+57
          1693.76120	         7.43069e+57
          1694.56750	         7.42347e+57
          1695.37380	         7.48228e+57
          1696.18010	         7.40109e+57
          1696.98640	         9.31071e+57
          1697.79270	         9.65551e+57
          1698.59900	         7.97929e+57
          1699.40530	         7.00825e+57
          1700.21160	         7.20719e+57
          1701.01790	         7.86689e+57
          1701.82420	         8.36749e+57
          1702.63050	         8.25987e+57
          1703.43680	         8.91948e+57
          1704.24310	         9.69715e+57
          1705.04940	         9.08147e+57
          1705.85570	         8.22568e+57
          1706.66200	         8.66707e+57
          1707.46830	         7.51661e+57
          1708.27460	         6.93890e+57
          1709.08090	         6.92134e+57
          1709.88720	         6.02107e+57
          1710.69350	         5.75641e+57
          1711.49980	         6.29011e+57
          1712.30610	         7.39086e+57
          1713.11240	         9.67210e+57
          1713.91870	         8.11667e+57
          1714.72500	         7.63791e+57
          1715.53130	         8.16673e+57
          1716.33760	         7.32644e+57
          1717.14390	         7.65287e+57
          1717.95020	         9.10713e+57
          1718.75650	         8.87429e+57
          1719.56280	         8.12891e+57
          1720.36910	         6.99675e+57
          1721.17540	         6.80719e+57
          1721.98170	         6.07388e+57
          1722.78800	         6.09315e+57
          1723.59430	         7.10242e+57
          1724.40060	         7.86677e+57
          1725.20690	         7.26544e+57
          1726.01320	         7.37857e+57
          1726.81950	         8.21604e+57
          1727.62580	         7.59946e+57
          1728.43210	         6.31381e+57
          1729.23840	         6.94079e+57
          1730.04470	         8.51492e+57
          1730.85100	         8.24308e+57
          1731.65730	         7.99981e+57
          1732.46360	         8.11818e+57
          1733.26990	         7.63052e+57
          1734.07620	         7.66895e+57
          1734.88250	         7.76916e+57
          1735.68880	         8.04023e+57
          1736.49510	         8.69751e+57
          1737.30140	         8.07816e+57
          1738.10770	         6.92220e+57
          1738.91400	         7.50075e+57
          1739.72030	         7.71168e+57
          1740.52660	         6.14948e+57
          1741.33290	         5.87263e+57
          1742.13920	         5.95338e+57
          1742.94550	         6.72105e+57
          1743.75180	         7.37623e+57
          1744.55810	         7.72088e+57
          1745.36440	         7.15391e+57
          1746.17070	         5.23217e+57
          1746.97700	         5.34614e+57
          1747.78330	         6.57363e+57
          1748.58960	         7.07646e+57
          1749.39590	         7.50538e+57
          1750.20220	         7.26025e+57
          1751.00850	         6.36239e+57
          1751.81480	         6.88302e+57
          1752.62110	         7.33210e+57
          1753.42740	         8.09713e+57
          1754.23370	         8.21677e+57
          1755.04000	         7.36676e+57
          1755.84630	         7.77583e+57
          1756.65260	         8.66577e+57
          1757.45890	         7.92840e+57
          1758.26520	         5.80858e+57
          1759.07150	         8.19953e+57
          1759.87780	         8.28830e+57
          1760.68410	         7.46547e+57
          1761.49040	         8.89389e+57
          1762.29670	         7.17983e+57
          1763.10300	         7.47840e+57
          1763.90930	         7.66879e+57
          1764.71560	         7.53751e+57
          1765.52190	         6.83323e+57
          1766.32820	         7.56967e+57
          1767.13450	         7.87926e+57
          1767.94080	         7.16578e+57
          1768.74710	         6.99308e+57
          1769.55340	         7.43216e+57
          1770.35970	         6.49699e+57
          1771.16600	         7.08239e+57
          1771.97230	         9.02271e+57
          1772.77860	         9.09966e+57
          1773.58490	         7.60497e+57
          1774.39120	         6.47952e+57
          1775.19750	         5.11527e+57
          1776.00380	         5.48296e+57
          1776.81010	         6.53877e+57
          1777.61640	         6.67318e+57
          1778.42270	         7.62366e+57
          1779.22900	         7.60317e+57
          1780.03530	         5.59715e+57
          1780.84160	         6.30152e+57
          1781.64790	         7.88529e+57
          1782.45420	         7.06683e+57
          1783.26050	         7.54112e+57
          1784.06680	         7.78605e+57
          1784.87310	         6.84277e+57
          1785.67940	         7.06084e+57
          1786.48570	         6.98770e+57
          1787.29200	         6.18428e+57
          1788.09830	         6.44186e+57
          1788.90460	         6.76303e+57
          1789.71090	         6.62387e+57
          1790.51720	         5.50603e+57
          1791.32350	         6.49348e+57
          1792.12980	         8.97792e+57
          1792.93610	         8.86362e+57
          1793.74240	         8.02729e+57
          1794.54870	         7.09382e+57
          1795.35500	         7.26619e+57
          1796.16130	         8.00067e+57
          1796.96760	         6.64826e+57
          1797.77390	         6.95280e+57
          1798.58020	         7.44474e+57
          1799.38650	         7.03883e+57
          1800.19280	         7.68480e+57
          1800.99910	         8.76269e+57
          1801.80540	         8.09918e+57
          1802.61170	         8.74214e+57
          1803.41800	         8.00310e+57
          1804.22430	         6.96726e+57
          1805.03060	         7.77347e+57
          1805.83690	         6.97021e+57
          1806.64320	         7.47464e+57
          1807.44950	         7.00307e+57
          1808.25580	         6.50815e+57
          1809.06210	         7.76031e+57
          1809.86840	         7.07578e+57
          1810.67470	         6.54978e+57
          1811.48100	         8.71473e+57
          1812.28730	         8.41068e+57
          1813.09360	         6.42801e+57
          1813.89990	         7.19750e+57
          1814.70620	         6.62975e+57
          1815.51250	         6.91977e+57
          1816.31880	         7.92891e+57
          1817.12510	         8.62995e+57
          1817.93140	         7.06683e+57
          1818.73770	         6.76380e+57
          1819.54400	         8.21443e+57
          1820.35030	         8.68640e+57
          1821.15660	         7.94910e+57
          1821.96290	         7.39768e+57
          1822.76920	         7.32783e+57
          1823.57550	         8.23388e+57
          1824.38180	         7.99999e+57
          1825.18810	         8.35054e+57
          1825.99440	         8.21099e+57
          1826.80070	         7.22989e+57
          1827.60700	         6.64307e+57
          1828.41330	         6.34079e+57
          1829.21960	         6.56239e+57
          1830.02590	         6.81220e+57
          1830.83220	         7.35304e+57
          1831.63850	         7.29382e+57
          1832.44480	         7.47293e+57
          1833.25110	         8.99791e+57
          1834.05740	         8.59743e+57
          1834.86370	         6.91061e+57
          1835.67000	         6.17853e+57
          1836.47630	         7.28082e+57
          1837.28260	         8.27213e+57
          1838.08890	         8.81563e+57
          1838.89520	         8.69325e+57
          1839.70150	         7.68255e+57
          1840.50780	         7.57144e+57
          1841.31410	         6.25107e+57
          1842.12040	         6.53416e+57
          1842.92670	         6.79604e+57
          1843.73300	         6.44012e+57
          1844.53930	         7.24073e+57
          1845.34560	         8.49118e+57
          1846.15190	         7.99801e+57
          1846.95820	         7.33381e+57
          1847.76450	         6.54113e+57
          1848.57080	         5.70166e+57
          1849.37710	         6.36043e+57
          1850.18340	         7.52987e+57
          1850.98970	         7.98921e+57
          1851.79600	         7.21427e+57
          1852.60230	         5.91496e+57
          1853.40860	         6.43831e+57
          1854.21490	         6.41272e+57
          1855.02120	         5.15050e+57
          1855.82750	         4.43855e+57
          1856.63380	         6.11046e+57
          1857.44010	         7.32184e+57
          1858.24640	         7.09147e+57
          1859.05270	         6.15112e+57
          1859.85900	         4.95294e+57
          1860.66530	         6.62573e+57
          1861.47160	         8.42479e+57
          1862.27790	         7.29930e+57
          1863.08420	         7.14143e+57
          1863.89050	         7.43391e+57
          1864.69680	         7.37433e+57
          1865.50310	         7.24704e+57
          1866.30940	         6.43883e+57
          1867.11570	         6.34050e+57
          1867.92200	         7.15071e+57
          1868.72830	         8.09243e+57
          1869.53460	         6.77159e+57
          1870.34090	         6.21001e+57
          1871.14720	         7.34971e+57
          1871.95350	         7.11107e+57
          1872.75980	         7.45084e+57
          1873.56610	         6.80133e+57
          1874.37240	         5.66469e+57
          1875.17870	         5.57391e+57
          1875.98500	         6.99806e+57
          1876.79130	         7.59225e+57
          1877.59760	         7.08712e+57
          1878.40390	         6.55240e+57
          1879.21020	         6.14150e+57
          1880.01650	         7.35723e+57
          1880.82280	         8.77269e+57
          1881.62910	         9.41126e+57
          1882.43540	         9.73535e+57
          1883.24170	         8.52281e+57
          1884.04800	         5.90096e+57
          1884.85430	         7.09690e+57
          1885.66060	         7.70136e+57
          1886.46690	         7.56282e+57
          1887.27320	         7.33931e+57
          1888.07950	         6.49107e+57
          1888.88580	         7.02567e+57
          1889.69210	         8.76233e+57
          1890.49840	         8.40037e+57
          1891.30470	         6.92785e+57
          1892.11100	         7.91837e+57
          1892.91730	         7.91244e+57
          1893.72360	         7.26771e+57
          1894.52990	         5.75646e+57
          1895.33620	         6.43161e+57
          1896.14250	         6.57846e+57
          1896.94880	         5.24789e+57
          1897.75510	         3.35005e+57
          1898.56140	         5.94706e+57
          1899.36770	         8.75196e+57
          1900.17400	         7.82190e+57
          1900.98030	         7.50704e+57
          1901.78660	         6.97895e+57
          1902.59290	         6.94016e+57
          1903.39920	         7.50397e+57
          1904.20550	         9.06782e+57
          1905.01180	         8.65930e+57
          1905.81810	         9.87278e+57
          1906.62440	         1.28495e+58
          1907.43070	         1.48407e+58
          1908.23700	         1.54376e+58
          1909.04330	         1.32209e+58
          1909.84960	         1.11633e+58
          1910.65590	         1.00577e+58
          1911.46220	         9.29156e+57
          1912.26850	         7.00174e+57
          1913.07480	         5.82317e+57
          1913.88110	         5.79721e+57
          1914.68740	         6.15690e+57
          1915.49370	         5.52994e+57
          1916.30000	         6.47773e+57
          1917.10630	         7.93641e+57
          1917.91260	         7.82675e+57
          1918.71890	         6.54352e+57
          1919.52520	         5.45502e+57
          1920.33150	         5.55069e+57
          1921.13780	         6.94452e+57
          1921.94410	         8.32705e+57
          1922.75040	         7.13907e+57
          1923.55670	         6.41738e+57
          1924.36300	         7.06939e+57
          1925.16930	         7.05198e+57
          1925.97560	         6.18458e+57
          1926.78190	         5.60806e+57
          1927.58820	         6.56483e+57
          1928.39450	         5.40206e+57
          1929.20080	         4.24051e+57
          1930.00710	         6.52979e+57
          1930.81340	         8.60983e+57
          1931.61970	         7.44009e+57
          1932.42600	         7.28642e+57
          1933.23230	         9.19649e+57
          1934.03860	         7.80885e+57
          1934.84490	         6.42285e+57
          1935.65120	         8.32574e+57
          1936.45750	         8.63955e+57
          1937.26380	         7.14759e+57
          1938.07010	         6.92842e+57
          1938.87640	         7.08950e+57
          1939.68270	         7.59864e+57
          1940.48900	         8.40293e+57
          1941.29530	         7.62738e+57
          1942.10160	         7.22094e+57
          1942.90790	         6.47334e+57
          1943.71420	         5.90225e+57
          1944.52050	         5.51245e+57
          1945.32680	         5.25358e+57
          1946.13310	         6.64782e+57
          1946.93940	         7.89926e+57
          1947.74570	         6.58494e+57
          1948.55200	         6.23013e+57
          1949.35830	         6.68964e+57
          1950.16460	         5.13416e+57
          1950.97090	         6.51683e+57
          1951.77720	         7.63441e+57
          1952.58350	         7.10282e+57
          1953.38980	         6.52893e+57
          1954.19610	         5.06152e+57
          1955.00240	         4.98476e+57
          1955.80870	         6.90013e+57
          1956.61500	         6.09989e+57
          1957.42130	         6.43435e+57
          1958.22760	         6.70626e+57
          1959.03390	         6.70279e+57
          1959.84020	         7.32306e+57
          1960.64650	         7.22028e+57
          1961.45280	         6.54386e+57
          1962.25910	         6.21775e+57
          1963.06540	         6.90514e+57
          1963.87170	         6.77910e+57
          1964.67800	         5.91462e+57
          1965.48430	         6.65866e+57
          1966.29060	         6.54316e+57
          1967.09690	         8.02252e+57
          1967.90320	         7.61280e+57
          1968.70950	         7.79704e+57
          1969.51580	         7.36347e+57
          1970.32210	         7.25142e+57
          1971.12840	         6.42169e+57
          1971.93470	         5.38233e+57
          1972.74100	         4.83038e+57
          1973.54730	         6.12048e+57
          1974.35360	         6.68852e+57
          1975.15990	         8.23429e+57
          1975.96620	         7.30678e+57
          1976.77250	         7.69962e+57
          1977.57880	         7.00176e+57
          1978.38510	         5.87768e+57
          1979.19140	         7.27167e+57
          1979.99770	         7.75783e+57
          1980.80400	         7.50797e+57
          1981.61030	         7.53191e+57
          1982.41660	         4.87022e+57
          1983.22290	         5.43877e+57
          1984.02920	         6.38237e+57
          1984.83550	         6.51458e+57
          1985.64180	         6.18168e+57
          1986.44810	         6.44013e+57
          1987.25440	         5.32064e+57
          1988.06070	         5.55300e+57
          1988.86700	         6.88996e+57
          1989.67330	         7.05227e+57
          1990.47960	         6.53830e+57
          1991.28590	         5.13047e+57
          1992.09220	         5.45563e+57
          1992.89850	         6.29016e+57
          1993.70480	         5.54983e+57
          1994.51110	         4.57834e+57
          1995.31740	         4.87328e+57
          1996.12370	         4.16467e+57
          1996.93000	         4.95509e+57
          1997.73630	         7.53786e+57
          1998.54260	         7.03180e+57
          1999.34890	         7.06598e+57
          2000.15520	         6.87214e+57
          2000.96150	         6.70635e+57
          2001.76780	         5.54408e+57
          2002.57410	         4.73625e+57
          2003.38040	         4.93097e+57
          2004.18670	         5.33914e+57
          2004.99300	         4.80520e+57
          2005.79930	         7.26051e+57
          2006.60560	         6.68828e+57
          2007.41190	         6.74631e+57
          2008.21820	         7.06464e+57
          2009.02450	         6.61344e+57
          2009.83080	         5.67285e+57
          2010.63710	         6.53508e+57
          2011.44340	         7.33198e+57
          2012.24970	         6.96246e+57
          2013.05600	         6.64826e+57
          2013.86230	         5.92577e+57
          2014.66860	         5.13736e+57
          2015.47490	         6.30228e+57
          2016.28120	         5.27758e+57
          2017.08750	         5.63170e+57
          2017.89380	         7.19495e+57
          2018.70010	         7.14110e+57
          2019.50640	         6.18511e+57
          2020.31270	         5.96839e+57
          2021.11900	         7.64520e+57
          2021.92530	         7.04641e+57
          2022.73160	         7.26927e+57
          2023.53790	         7.59259e+57
          2024.34420	         7.00973e+57
          2025.15050	         6.26294e+57
          2025.95680	         6.40370e+57
          2026.76310	         6.04549e+57
          2027.56940	         6.88243e+57
          2028.37570	         6.62594e+57
          2029.18200	         6.10248e+57
          2029.98830	         5.54232e+57
          2030.79460	         6.17366e+57
          2031.60090	         5.05957e+57
          2032.40720	         4.46564e+57
          2033.21350	         5.90321e+57
          2034.01980	         4.60756e+57
          2034.82610	         3.73171e+57
          2035.63240	         5.38702e+57
          2036.43870	         4.41197e+57
          2037.24500	         4.92568e+57
          2038.05130	         6.38585e+57
          2038.85760	         6.84084e+57
          2039.66390	         6.60481e+57
          2040.47020	         6.21855e+57
          2041.27650	         6.30236e+57
          2042.08280	         5.69408e+57
          2042.88910	         5.32915e+57
          2043.69540	         6.12270e+57
          2044.50170	         7.01572e+57
          2045.30800	         6.34987e+57
          2046.11430	         5.29294e+57
          2046.92060	         6.27745e+57
          2047.72690	         5.61643e+57
          2048.53320	         5.53993e+57
          2049.33950	         5.89820e+57
          2050.14580	         6.50443e+57
          2050.95210	         5.95451e+57
          2051.75840	         7.33636e+57
          2052.56470	         6.64298e+57
          2053.37100	         4.05907e+57
          2054.17730	         6.27042e+57
          2054.98360	         4.85781e+57
          2055.78990	         3.48570e+57
          2056.59620	         3.24453e+57
          2057.40250	         4.80825e+57
          2058.20880	         6.72212e+57
          2059.01510	         6.65991e+57
          2059.82140	         6.99989e+57
          2060.62770	         1.01605e+58
          2061.43400	         1.49010e+58
          2062.24030	         1.35895e+58
          2063.04660	         3.46322e+57
          2063.85290	         2.37580e+57
          2064.65920	        -5.67643e+57
          2065.46550	        -1.01366e+58
          2066.27180	        -7.79156e+57
          2067.07810	         2.09142e+57
          2067.88440	         3.91225e+57
          2068.69070	         5.28726e+57
          2069.49700	         5.92845e+57
          2070.30330	         4.28278e+57
          2071.10960	         6.43103e+57
          2071.91590	         6.80966e+57
          2072.72220	         4.08211e+57
          2073.52850	         5.83488e+57
          2074.33480	         5.75534e+57
          2075.14110	         5.48897e+57
          2075.94740	         5.08899e+57
          2076.75370	         4.95406e+57
          2077.56000	         3.75328e+57
          2078.36630	         4.63147e+57
          2079.17260	         5.10641e+57
          2079.97890	         6.53582e+57
          2080.78520	         6.82222e+57
          2081.59150	         5.08650e+57
          2082.39780	         5.45837e+57
          2083.20410	         3.55635e+57
          2084.01040	         1.16216e+57
          2084.81670	         3.02450e+57
          2085.62300	         1.54687e+57
          2086.42930	         3.43263e+57
          2087.23560	         3.58381e+57
          2088.04190	         3.94496e+57
          2088.84820	         3.64739e+57
          2089.65450	         2.85005e+57
          2090.46080	         2.97974e+57
          2091.26710	         4.41517e+57
          2092.07340	         2.75027e+57
          2092.87970	         1.65504e+57
          2093.68600	        -2.52435e+56
          2094.49230	        -1.37789e+57
          2095.29860	         4.21876e+57
          2096.10490	         3.02038e+57
          2096.91120	         2.68114e+57
          2097.71750	         2.50648e+57
          2098.52380	         1.76565e+57
          2099.33010	         1.94318e+57
          2100.13640	         2.32915e+57
          2100.94270	         2.63803e+57
          2101.74900	         2.55567e+57
          2102.55530	         6.20504e+56
          2103.36160	         1.11102e+57
          2104.16790	         5.20039e+57
          2104.97420	         2.55548e+57
          2105.78050	        -6.14791e+56
          2106.58680	         5.07102e+56
          2107.39310	        -1.76592e+57
          2108.19940	        -8.35849e+56
          2109.00570	        -4.03006e+56
          2109.81200	         5.04372e+56
          2110.61830	         1.51210e+57
          2111.42460	        -2.84007e+56
          2112.23090	        -1.89307e+57
          2113.03720	         1.53063e+57
          2113.84350	         6.12064e+56
          2114.64980	         5.08701e+57
          2115.45610	         2.68595e+56
          2116.26240	        -5.22941e+57
          2117.06870	        -1.09048e+57
          2117.87500	        -5.28029e+56
          2118.68130	        -7.64729e+56
          2119.48760	         9.08867e+56
          2120.29390	        -1.07812e+57
          2121.10020	        -4.65284e+57
          2121.90650	        -5.73318e+57
          2122.71280	        -1.87083e+57
          2123.51910	         3.62123e+57
          2124.32540	         3.13754e+57
          2125.13170	        -3.71628e+56
          2125.93800	         3.47422e+56
          2126.74430	         1.44968e+57
          2127.55060	        -3.81201e+57
          2128.35690	        -5.98674e+57
          2129.16320	        -3.24770e+57
          2129.96950	        -4.64734e+57
          2130.77580	        -1.24691e+56
          2131.58210	         2.31369e+57
          2132.38840	         2.55031e+57
          2133.19470	        -3.27457e+57
          2134.00100	         7.62412e+56
          2134.80730	        -6.15227e+57
          2135.61360	         2.38608e+57
          2136.41990	         5.27766e+57
          2137.22620	         9.37815e+57
          2138.03250	         1.35977e+57
          2138.83880	        -6.00693e+57
          2139.64510	         4.01930e+57
          2140.45140	        -4.66701e+57
          2141.25770	        -2.68190e+57
          2142.06400	        -8.01116e+57
          2142.87030	        -2.60086e+57
          2143.67660	        -3.73352e+57
          2144.48290	         4.22592e+57
          2145.28920	         1.19056e+58
          2146.09550	        -3.93537e+57
          2146.90180	        -1.13827e+58
          2147.70810	        -6.06092e+57
          2148.51440	        -7.97230e+57
          2149.32070	        -1.33613e+58
          2150.12700	        -1.00980e+58
          2150.93330	        -3.51978e+56
          2151.73960	         4.94212e+57
          2152.54590	         8.58631e+57
          2153.35220	        -1.89467e+57
          2154.15850	        -5.23464e+57
          2154.96480	        -1.65158e+57
          2155.77110	         2.31652e+57
          2156.57740	        -1.22021e+58
          2157.38370	        -9.96763e+56
          2158.19000	        -1.02999e+58
          2158.99630	        -1.24928e+58
          2159.80260	        -1.18343e+58
          2160.60890	        -1.58124e+58
          2161.41520	        -1.72824e+57
          2162.22150	         1.97507e+57
          2163.02780	        -6.34910e+57
          2163.83410	        -8.92208e+57
          2164.64040	        -7.14793e+57
          2165.44670	        -1.26345e+58
          2166.25300	        -8.05781e+56
          2167.05930	         8.93571e+57
          2167.86560	        -4.01562e+57
          2168.67190	        -4.88721e+57
          2169.47820	        -7.40095e+57
          2170.28450	        -2.30694e+57
          2171.09080	        -2.78979e+57
          2171.89710	         5.74300e+57
          2172.70340	         5.00980e+57
          2173.50970	        -9.79017e+57
          2174.31600	        -5.29198e+57
          2175.12230	         1.58750e+57
          2175.92860	        -2.84146e+57
          2176.73490	        -3.07694e+57
          2177.54120	        -7.75803e+57
          2178.34750	        -5.11231e+57
          2179.15380	                 nan
          2179.96010	                 nan
          2180.76640	                 nan
          2181.57270	                 nan
          2182.37900	                 nan
          2183.18530	                 nan
          2183.99160	                 nan
          2184.79790	                 nan
          2185.60420	                 nan
          2186.41050	                 nan
          2187.21680	                 nan
          2188.02310	                 nan
          2188.82940	                 nan
          2189.63570	                 nan
          2190.44200	                 nan
          2191.24830	                 nan
          2192.05460	                 nan
          2192.86090	                 nan
          2193.66720	                 nan
          2194.47350	                 nan
          2195.27980	                 nan
          2196.08610	                 nan
          2196.89240	                 nan
          2197.69870	                 nan
          2198.50500	                 nan
          2199.31130	                 nan
          2200.11760	                 nan
          2200.92390	                 nan
          2201.73020	                 nan
          2202.53650	                 nan
          2203.34280	                 nan
          2204.14910	                 nan
          2204.95540	                 nan
          2205.76170	                 nan
          2206.56800	                 nan
          2207.37430	                 nan
          2208.18060	                 nan
          2208.98690	                 nan
          2209.79320	                 nan
          2210.59950	                 nan
          2211.40580	                 nan
          2212.21210	                 nan
          2213.01840	                 nan
          2213.82470	                 nan
          2214.63100	                 nan
          2215.43730	         0.00000e+00
