#sample_126_stacked_spectrum_rest_UV-bands_median_H-alpha_noDC.txt
#median Lum: 1.69661e+42
#Rest-frame wavelength (A) | Luminosity (erg/s/A)
#
          1110.00000	         0.00000e+00
          1110.80630	         2.82127e+59
          1111.61260	         1.64223e+59
          1112.41890	         3.51950e+58
          1113.22520	         8.57999e+58
          1114.03150	        -3.26653e+59
          1114.83780	         1.79239e+59
          1115.64410	         1.80291e+59
          1116.45040	         1.89389e+59
          1117.25670	        -7.03378e+58
          1118.06300	         1.14430e+59
          1118.86930	        -5.88011e+58
          1119.67560	         2.90648e+58
          1120.48190	         3.28934e+57
          1121.28820	        -6.22995e+58
          1122.09450	         5.44279e+58
          1122.90080	         6.98991e+57
          1123.70710	         4.70793e+58
          1124.51340	         6.40667e+58
          1125.31970	         9.92930e+57
          1126.12600	        -5.21647e+57
          1126.93230	        -7.66279e+57
          1127.73860	        -1.39012e+58
          1128.54490	        -1.93962e+58
          1129.35120	        -2.89591e+57
          1130.15750	        -4.00583e+58
          1130.96380	        -5.26904e+58
          1131.77010	         2.12530e+58
          1132.57640	         3.54253e+58
          1133.38270	         3.70068e+58
          1134.18900	         1.86630e+58
          1134.99530	         4.13233e+58
          1135.80160	         5.13298e+58
          1136.60790	         1.77794e+58
          1137.41420	        -1.05355e+57
          1138.22050	         3.96725e+58
          1139.02680	         3.60961e+58
          1139.83310	         4.34644e+57
          1140.63940	         3.30299e+58
          1141.44570	         1.36034e+58
          1142.25200	         1.47545e+58
          1143.05830	         9.12902e+57
          1143.86460	         2.00216e+58
          1144.67090	         2.12557e+58
          1145.47720	         3.15511e+58
          1146.28350	         8.59676e+57
          1147.08980	        -1.02250e+57
          1147.89610	         1.14158e+58
          1148.70240	         2.89692e+58
          1149.50870	         2.35649e+58
          1150.31500	         1.14173e+58
          1151.12130	         1.78240e+58
          1151.92760	         1.61551e+58
          1152.73390	         7.24963e+57
          1153.54020	         5.22109e+57
          1154.34650	         2.87265e+58
          1155.15280	         1.85505e+58
          1155.95910	         2.19738e+57
          1156.76540	         3.87827e+57
          1157.57170	         8.38078e+56
          1158.37800	         1.05765e+58
          1159.18430	         4.30631e+57
          1159.99060	         1.63128e+57
          1160.79690	         4.21295e+57
          1161.60320	         1.04640e+58
          1162.40950	         1.97419e+58
          1163.21580	         1.50036e+58
          1164.02210	         1.75158e+58
          1164.82840	         1.37581e+58
          1165.63470	         1.93087e+58
          1166.44100	         3.16339e+58
          1167.24730	         1.53078e+58
          1168.05360	         7.39015e+57
          1168.85990	         1.16369e+58
          1169.66620	         7.68951e+57
          1170.47250	         6.77806e+57
          1171.27880	         5.83886e+57
          1172.08510	         1.57670e+58
          1172.89140	         9.73169e+57
          1173.69770	         6.85406e+57
          1174.50400	         8.74479e+57
          1175.31030	         8.83382e+57
          1176.11660	         1.00461e+58
          1176.92290	         1.40697e+58
          1177.72920	         1.20009e+58
          1178.53550	         1.05497e+58
          1179.34180	         4.02267e+57
          1180.14810	         5.14098e+57
          1180.95440	         1.43210e+58
          1181.76070	         9.44729e+57
          1182.56700	         6.07133e+57
          1183.37330	         9.19081e+57
          1184.17960	         1.36648e+58
          1184.98590	         9.34609e+57
          1185.79220	         4.80695e+57
          1186.59850	         8.44023e+57
          1187.40480	         7.32344e+57
          1188.21110	         1.57407e+58
          1189.01740	         1.10536e+58
          1189.82370	         1.37186e+58
          1190.63000	         1.22628e+58
          1191.43630	         1.50273e+58
          1192.24260	         9.35258e+57
          1193.04890	         1.14815e+58
          1193.85520	         1.48784e+58
          1194.66150	         7.39557e+57
          1195.46780	         1.15889e+58
          1196.27410	         1.49542e+58
          1197.08040	         7.08006e+57
          1197.88670	         1.08574e+58
          1198.69300	         1.53893e+58
          1199.49930	         1.89244e+58
          1200.30560	         1.16372e+58
          1201.11190	         9.82156e+57
          1201.91820	         1.61894e+58
          1202.72450	         8.21290e+57
          1203.53080	         1.33868e+58
          1204.33710	         9.85124e+57
          1205.14340	         1.19253e+58
          1205.94970	         1.05367e+58
          1206.75600	         8.57870e+57
          1207.56230	         9.32933e+57
          1208.36860	         1.09871e+58
          1209.17490	         2.81874e+57
          1209.98120	         4.70912e+57
          1210.78750	         7.26504e+57
          1211.59380	         8.27722e+57
          1212.40010	         1.98310e+58
          1213.20640	         2.03813e+58
          1214.01270	         1.76402e+58
          1214.81900	         2.42998e+58
          1215.62530	         4.71991e+58
          1216.43160	         9.22559e+58
          1217.23790	         1.51122e+59
          1218.04420	         1.19081e+59
          1218.85050	         8.92330e+58
          1219.65680	         5.73684e+58
          1220.46310	         2.97384e+58
          1221.26940	         2.05904e+58
          1222.07570	         1.23461e+58
          1222.88200	         9.67109e+57
          1223.68830	         1.13213e+58
          1224.49460	         7.44349e+57
          1225.30090	         5.80422e+57
          1226.10720	         4.39450e+57
          1226.91350	         7.79075e+57
          1227.71980	         1.19262e+58
          1228.52610	         9.36250e+57
          1229.33240	         6.34797e+57
          1230.13870	         7.99198e+57
          1230.94500	         7.52738e+57
          1231.75130	         7.20697e+57
          1232.55760	         1.09276e+58
          1233.36390	         9.44914e+57
          1234.17020	         9.20199e+57
          1234.97650	         7.86118e+57
          1235.78280	         4.76034e+57
          1236.58910	         7.13624e+57
          1237.39540	         1.01677e+58
          1238.20170	         1.21293e+58
          1239.00800	         1.43876e+58
          1239.81430	         1.56525e+58
          1240.62060	         1.20628e+58
          1241.42690	         8.97514e+57
          1242.23320	         1.18364e+58
          1243.03950	         9.44418e+57
          1243.84580	         8.46186e+57
          1244.65210	         1.14797e+58
          1245.45840	         1.14835e+58
          1246.26470	         7.65349e+57
          1247.07100	         9.24835e+57
          1247.87730	         9.23705e+57
          1248.68360	         6.08607e+57
          1249.48990	         8.79700e+57
          1250.29620	         1.01170e+58
          1251.10250	         7.65441e+57
          1251.90880	         5.09992e+57
          1252.71510	         5.75984e+57
          1253.52140	         6.17713e+57
          1254.32770	         9.71785e+57
          1255.13400	         1.32497e+58
          1255.94030	         1.05893e+58
          1256.74660	         9.24292e+57
          1257.55290	         1.16985e+58
          1258.35920	         9.25135e+57
          1259.16550	         5.20260e+57
          1259.97180	         5.71933e+57
          1260.77810	         9.28952e+57
          1261.58440	         1.32131e+58
          1262.39070	         1.07036e+58
          1263.19700	         1.01533e+58
          1264.00330	         1.08613e+58
          1264.80960	         1.07840e+58
          1265.61590	         1.23932e+58
          1266.42220	         9.69963e+57
          1267.22850	         9.48081e+57
          1268.03480	         1.35217e+58
          1268.84110	         1.31489e+58
          1269.64740	         1.15806e+58
          1270.45370	         1.21350e+58
          1271.26000	         1.06395e+58
          1272.06630	         1.25913e+58
          1272.87260	         1.39100e+58
          1273.67890	         1.21873e+58
          1274.48520	         1.43048e+58
          1275.29150	         1.52988e+58
          1276.09780	         1.32335e+58
          1276.90410	         1.35446e+58
          1277.71040	         1.23745e+58
          1278.51670	         1.34810e+58
          1279.32300	         1.61710e+58
          1280.12930	         1.45148e+58
          1280.93560	         1.24841e+58
          1281.74190	         1.31377e+58
          1282.54820	         1.33013e+58
          1283.35450	         1.16403e+58
          1284.16080	         1.24853e+58
          1284.96710	         1.53962e+58
          1285.77340	         1.35849e+58
          1286.57970	         1.22570e+58
          1287.38600	         1.53870e+58
          1288.19230	         1.52429e+58
          1288.99860	         1.22046e+58
          1289.80490	         1.09377e+58
          1290.61120	         1.23291e+58
          1291.41750	         1.38893e+58
          1292.22380	         1.31113e+58
          1293.03010	         1.16388e+58
          1293.83640	         1.03641e+58
          1294.64270	         9.50271e+57
          1295.44900	         7.53432e+57
          1296.25530	         7.76942e+57
          1297.06160	         9.98310e+57
          1297.86790	         1.03517e+58
          1298.67420	         7.95838e+57
          1299.48050	         1.02911e+58
          1300.28680	         1.31136e+58
          1301.09310	         8.67311e+57
          1301.89940	         3.25823e+57
          1302.70570	         6.77500e+57
          1303.51200	         9.93804e+57
          1304.31830	         1.16161e+58
          1305.12460	         1.10373e+58
          1305.93090	         1.06474e+58
          1306.73720	         1.15360e+58
          1307.54350	         1.32938e+58
          1308.34980	         1.42865e+58
          1309.15610	         1.51831e+58
          1309.96240	         1.44159e+58
          1310.76870	         1.06501e+58
          1311.57500	         1.15523e+58
          1312.38130	         1.32488e+58
          1313.18760	         1.45784e+58
          1313.99390	         1.65729e+58
          1314.80020	         1.59226e+58
          1315.60650	         1.47027e+58
          1316.41280	         1.46675e+58
          1317.21910	         1.39908e+58
          1318.02540	         1.33993e+58
          1318.83170	         1.16710e+58
          1319.63800	         1.04007e+58
          1320.44430	         1.18812e+58
          1321.25060	         1.20132e+58
          1322.05690	         1.23471e+58
          1322.86320	         1.27741e+58
          1323.66950	         1.13822e+58
          1324.47580	         7.85521e+57
          1325.28210	         7.71244e+57
          1326.08840	         1.07281e+58
          1326.89470	         1.17035e+58
          1327.70100	         1.01933e+58
          1328.50730	         9.17188e+57
          1329.31360	         1.15670e+58
          1330.11990	         9.05313e+57
          1330.92620	         7.62754e+57
          1331.73250	         1.11741e+58
          1332.53880	         1.19197e+58
          1333.34510	         9.16201e+57
          1334.15140	         8.77338e+57
          1334.95770	         9.49355e+57
          1335.76400	         1.12648e+58
          1336.57030	         1.13118e+58
          1337.37660	         1.06554e+58
          1338.18290	         1.20870e+58
          1338.98920	         1.19523e+58
          1339.79550	         1.13078e+58
          1340.60180	         1.22777e+58
          1341.40810	         1.35800e+58
          1342.21440	         1.18271e+58
          1343.02070	         1.27175e+58
          1343.82700	         1.51777e+58
          1344.63330	         1.32757e+58
          1345.43960	         1.19976e+58
          1346.24590	         1.17406e+58
          1347.05220	         1.28021e+58
          1347.85850	         9.57183e+57
          1348.66480	         1.00108e+58
          1349.47110	         1.18014e+58
          1350.27740	         1.35018e+58
          1351.08370	         1.35219e+58
          1351.89000	         1.13497e+58
          1352.69630	         1.11447e+58
          1353.50260	         1.18439e+58
          1354.30890	         1.20028e+58
          1355.11520	         1.18866e+58
          1355.92150	         1.15914e+58
          1356.72780	         1.13154e+58
          1357.53410	         1.07881e+58
          1358.34040	         1.17174e+58
          1359.14670	         1.21177e+58
          1359.95300	         1.16296e+58
          1360.75930	         1.15586e+58
          1361.56560	         1.16428e+58
          1362.37190	         1.10083e+58
          1363.17820	         1.05548e+58
          1363.98450	         1.07740e+58
          1364.79080	         1.26800e+58
          1365.59710	         1.47300e+58
          1366.40340	         1.20084e+58
          1367.20970	         8.66476e+57
          1368.01600	         1.08537e+58
          1368.82230	         1.01433e+58
          1369.62860	         7.55233e+57
          1370.43490	         8.53538e+57
          1371.24120	         1.08316e+58
          1372.04750	         9.76747e+57
          1372.85380	         1.02222e+58
          1373.66010	         1.06526e+58
          1374.46640	         1.07103e+58
          1375.27270	         1.05905e+58
          1376.07900	         9.33146e+57
          1376.88530	         8.54789e+57
          1377.69160	         8.75578e+57
          1378.49790	         7.98115e+57
          1379.30420	         7.33297e+57
          1380.11050	         7.98644e+57
          1380.91680	         8.41651e+57
          1381.72310	         7.67095e+57
          1382.52940	         7.64035e+57
          1383.33570	         9.21397e+57
          1384.14200	         1.03963e+58
          1384.94830	         1.12422e+58
          1385.75460	         9.36500e+57
          1386.56090	         1.03165e+58
          1387.36720	         1.19541e+58
          1388.17350	         1.35939e+58
          1388.97980	         1.24489e+58
          1389.78610	         9.62777e+57
          1390.59240	         7.75612e+57
          1391.39870	         7.60162e+57
          1392.20500	         8.48906e+57
          1393.01130	         7.38205e+57
          1393.81760	         7.55576e+57
          1394.62390	         8.25804e+57
          1395.43020	         6.97466e+57
          1396.23650	         7.18933e+57
          1397.04280	         8.05021e+57
          1397.84910	         8.85448e+57
          1398.65540	         8.73502e+57
          1399.46170	         1.09874e+58
          1400.26800	         9.76559e+57
          1401.07430	         8.25960e+57
          1401.88060	         8.42175e+57
          1402.68690	         1.04744e+58
          1403.49320	         9.70068e+57
          1404.29950	         8.31039e+57
          1405.10580	         1.12022e+58
          1405.91210	         1.11502e+58
          1406.71840	         1.06428e+58
          1407.52470	         1.06218e+58
          1408.33100	         9.27863e+57
          1409.13730	         1.09650e+58
          1409.94360	         1.17690e+58
          1410.74990	         1.13231e+58
          1411.55620	         1.02709e+58
          1412.36250	         8.92932e+57
          1413.16880	         8.91232e+57
          1413.97510	         8.99721e+57
          1414.78140	         9.95105e+57
          1415.58770	         1.05463e+58
          1416.39400	         1.11086e+58
          1417.20030	         1.04657e+58
          1418.00660	         1.05271e+58
          1418.81290	         1.16459e+58
          1419.61920	         1.07269e+58
          1420.42550	         1.05748e+58
          1421.23180	         1.16474e+58
          1422.03810	         1.16959e+58
          1422.84440	         1.21174e+58
          1423.65070	         1.27735e+58
          1424.45700	         1.24935e+58
          1425.26330	         9.33937e+57
          1426.06960	         8.75597e+57
          1426.87590	         1.00951e+58
          1427.68220	         9.86005e+57
          1428.48850	         1.09362e+58
          1429.29480	         1.10035e+58
          1430.10110	         9.30510e+57
          1430.90740	         7.90587e+57
          1431.71370	         9.39144e+57
          1432.52000	         9.53763e+57
          1433.32630	         8.19194e+57
          1434.13260	         8.58807e+57
          1434.93890	         8.01871e+57
          1435.74520	         8.32851e+57
          1436.55150	         9.62517e+57
          1437.35780	         8.69718e+57
          1438.16410	         8.72539e+57
          1438.97040	         9.23989e+57
          1439.77670	         8.87197e+57
          1440.58300	         9.04471e+57
          1441.38930	         9.29904e+57
          1442.19560	         9.86964e+57
          1443.00190	         9.77991e+57
          1443.80820	         1.08254e+58
          1444.61450	         1.10049e+58
          1445.42080	         1.04071e+58
          1446.22710	         1.09748e+58
          1447.03340	         1.09011e+58
          1447.83970	         1.08251e+58
          1448.64600	         1.06363e+58
          1449.45230	         1.14788e+58
          1450.25860	         1.11610e+58
          1451.06490	         1.00492e+58
          1451.87120	         7.62280e+57
          1452.67750	         7.43560e+57
          1453.48380	         9.60448e+57
          1454.29010	         8.17851e+57
          1455.09640	         8.21015e+57
          1455.90270	         9.32261e+57
          1456.70900	         8.86092e+57
          1457.51530	         1.00496e+58
          1458.32160	         1.25802e+58
          1459.12790	         1.24337e+58
          1459.93420	         9.24023e+57
          1460.74050	         7.70533e+57
          1461.54680	         8.48746e+57
          1462.35310	         8.12079e+57
          1463.15940	         8.91648e+57
          1463.96570	         1.13861e+58
          1464.77200	         1.21016e+58
          1465.57830	         1.04483e+58
          1466.38460	         9.42159e+57
          1467.19090	         8.98726e+57
          1467.99720	         8.90093e+57
          1468.80350	         9.67176e+57
          1469.60980	         1.05227e+58
          1470.41610	         1.05174e+58
          1471.22240	         9.99926e+57
          1472.02870	         1.04262e+58
          1472.83500	         1.08944e+58
          1473.64130	         9.03763e+57
          1474.44760	         8.18373e+57
          1475.25390	         8.35566e+57
          1476.06020	         8.72567e+57
          1476.86650	         8.74287e+57
          1477.67280	         8.31639e+57
          1478.47910	         7.95208e+57
          1479.28540	         7.50049e+57
          1480.09170	         8.80747e+57
          1480.89800	         9.00323e+57
          1481.70430	         8.60258e+57
          1482.51060	         8.84896e+57
          1483.31690	         8.48321e+57
          1484.12320	         8.17992e+57
          1484.92950	         8.11253e+57
          1485.73580	         8.17393e+57
          1486.54210	         7.78643e+57
          1487.34840	         8.63496e+57
          1488.15470	         8.65848e+57
          1488.96100	         7.85202e+57
          1489.76730	         9.16172e+57
          1490.57360	         8.93499e+57
          1491.37990	         7.74739e+57
          1492.18620	         8.33382e+57
          1492.99250	         8.53035e+57
          1493.79880	         9.06618e+57
          1494.60510	         9.16273e+57
          1495.41140	         7.98366e+57
          1496.21770	         8.97480e+57
          1497.02400	         1.07513e+58
          1497.83030	         9.14562e+57
          1498.63660	         7.55754e+57
          1499.44290	         6.94545e+57
          1500.24920	         7.61207e+57
          1501.05550	         8.41802e+57
          1501.86180	         7.96917e+57
          1502.66810	         7.83848e+57
          1503.47440	         8.58885e+57
          1504.28070	         8.10550e+57
          1505.08700	         8.58308e+57
          1505.89330	         8.94735e+57
          1506.69960	         9.89837e+57
          1507.50590	         8.29887e+57
          1508.31220	         8.31977e+57
          1509.11850	         9.01597e+57
          1509.92480	         8.89112e+57
          1510.73110	         8.25484e+57
          1511.53740	         7.57728e+57
          1512.34370	         8.02388e+57
          1513.15000	         9.79178e+57
          1513.95630	         1.06390e+58
          1514.76260	         1.04273e+58
          1515.56890	         1.01334e+58
          1516.37520	         8.83954e+57
          1517.18150	         9.18261e+57
          1517.98780	         8.22209e+57
          1518.79410	         7.85520e+57
          1519.60040	         8.60918e+57
          1520.40670	         9.90031e+57
          1521.21300	         1.07657e+58
          1522.01930	         9.39626e+57
          1522.82560	         8.60018e+57
          1523.63190	         9.98976e+57
          1524.43820	         9.42087e+57
          1525.24450	         7.52254e+57
          1526.05080	         6.28904e+57
          1526.85710	         6.35625e+57
          1527.66340	         7.08172e+57
          1528.46970	         8.51356e+57
          1529.27600	         8.37379e+57
          1530.08230	         7.82188e+57
          1530.88860	         8.40631e+57
          1531.69490	         8.87015e+57
          1532.50120	         8.71555e+57
          1533.30750	         9.45123e+57
          1534.11380	         1.04748e+58
          1534.92010	         1.00601e+58
          1535.72640	         9.90613e+57
          1536.53270	         8.94153e+57
          1537.33900	         8.33796e+57
          1538.14530	         8.87286e+57
          1538.95160	         8.45451e+57
          1539.75790	         9.04332e+57
          1540.56420	         1.02186e+58
          1541.37050	         8.80252e+57
          1542.17680	         7.90472e+57
          1542.98310	         8.17909e+57
          1543.78940	         7.68075e+57
          1544.59570	         7.29117e+57
          1545.40200	         8.44489e+57
          1546.20830	         9.64736e+57
          1547.01460	         1.03568e+58
          1547.82090	         1.10286e+58
          1548.62720	         1.24243e+58
          1549.43350	         1.20707e+58
          1550.23980	         1.04257e+58
          1551.04610	         1.27432e+58
          1551.85240	         1.29779e+58
          1552.65870	         1.31361e+58
          1553.46500	         1.15419e+58
          1554.27130	         1.06604e+58
          1555.07760	         1.00027e+58
          1555.88390	         8.90516e+57
          1556.69020	         8.89250e+57
          1557.49650	         9.38110e+57
          1558.30280	         9.07288e+57
          1559.10910	         8.31394e+57
          1559.91540	         8.37046e+57
          1560.72170	         8.87395e+57
          1561.52800	         7.95522e+57
          1562.33430	         8.11749e+57
          1563.14060	         8.68622e+57
          1563.94690	         8.39322e+57
          1564.75320	         8.05402e+57
          1565.55950	         6.59742e+57
          1566.36580	         6.77779e+57
          1567.17210	         8.39606e+57
          1567.97840	         9.31918e+57
          1568.78470	         8.03544e+57
          1569.59100	         9.03581e+57
          1570.39730	         8.86175e+57
          1571.20360	         7.57374e+57
          1572.00990	         8.07199e+57
          1572.81620	         8.84346e+57
          1573.62250	         1.02332e+58
          1574.42880	         9.64468e+57
          1575.23510	         7.68159e+57
          1576.04140	         8.19742e+57
          1576.84770	         8.97274e+57
          1577.65400	         8.51211e+57
          1578.46030	         9.45171e+57
          1579.26660	         1.08958e+58
          1580.07290	         1.05975e+58
          1580.87920	         8.76899e+57
          1581.68550	         7.92229e+57
          1582.49180	         8.54003e+57
          1583.29810	         7.42308e+57
          1584.10440	         7.97969e+57
          1584.91070	         8.23485e+57
          1585.71700	         8.32684e+57
          1586.52330	         8.58044e+57
          1587.32960	         7.59298e+57
          1588.13590	         8.24971e+57
          1588.94220	         8.36100e+57
          1589.74850	         9.69877e+57
          1590.55480	         1.02039e+58
          1591.36110	         8.67012e+57
          1592.16740	         8.22373e+57
          1592.97370	         8.73120e+57
          1593.78000	         9.95507e+57
          1594.58630	         1.02080e+58
          1595.39260	         8.90274e+57
          1596.19890	         8.74450e+57
          1597.00520	         9.85886e+57
          1597.81150	         9.23127e+57
          1598.61780	         8.17613e+57
          1599.42410	         8.00926e+57
          1600.23040	         7.35722e+57
          1601.03670	         7.43072e+57
          1601.84300	         7.30269e+57
          1602.64930	         8.47131e+57
          1603.45560	         8.55558e+57
          1604.26190	         8.73245e+57
          1605.06820	         8.47666e+57
          1605.87450	         8.01981e+57
          1606.68080	         7.86215e+57
          1607.48710	         6.83471e+57
          1608.29340	         6.06999e+57
          1609.09970	         6.41849e+57
          1609.90600	         7.30676e+57
          1610.71230	         6.39425e+57
          1611.51860	         7.20294e+57
          1612.32490	         7.34135e+57
          1613.13120	         7.36403e+57
          1613.93750	         6.89584e+57
          1614.74380	         8.14785e+57
          1615.55010	         9.33456e+57
          1616.35640	         9.95158e+57
          1617.16270	         1.03458e+58
          1617.96900	         9.93285e+57
          1618.77530	         8.79388e+57
          1619.58160	         9.29785e+57
          1620.38790	         8.69189e+57
          1621.19420	         8.40314e+57
          1622.00050	         8.62008e+57
          1622.80680	         9.13629e+57
          1623.61310	         9.73329e+57
          1624.41940	         9.21653e+57
          1625.22570	         8.66857e+57
          1626.03200	         9.40241e+57
          1626.83830	         8.75829e+57
          1627.64460	         7.60739e+57
          1628.45090	         5.22238e+57
          1629.25720	         7.94245e+57
          1630.06350	         1.02956e+58
          1630.86980	         5.88941e+57
          1631.67610	         6.16139e+57
          1632.48240	         8.40017e+57
          1633.28870	         8.48033e+57
          1634.09500	         9.11765e+57
          1634.90130	         1.13711e+58
          1635.70760	         9.87027e+57
          1636.51390	         8.66336e+57
          1637.32020	         8.36035e+57
          1638.12650	         8.83166e+57
          1638.93280	         9.16437e+57
          1639.73910	         1.01230e+58
          1640.54540	         9.63079e+57
          1641.35170	         8.20012e+57
          1642.15800	         8.89039e+57
          1642.96430	         9.21328e+57
          1643.77060	         8.87279e+57
          1644.57690	         8.20363e+57
          1645.38320	         8.32798e+57
          1646.18950	         7.02370e+57
          1646.99580	         8.45766e+57
          1647.80210	         8.82922e+57
          1648.60840	         8.03407e+57
          1649.41470	         8.34828e+57
          1650.22100	         7.20883e+57
          1651.02730	         7.03486e+57
          1651.83360	         7.33129e+57
          1652.63990	         8.25745e+57
          1653.44620	         9.12661e+57
          1654.25250	         8.51692e+57
          1655.05880	         7.28896e+57
          1655.86510	         8.21629e+57
          1656.67140	         8.38128e+57
          1657.47770	         7.70221e+57
          1658.28400	         8.40822e+57
          1659.09030	         9.89886e+57
          1659.89660	         9.98340e+57
          1660.70290	         1.01412e+58
          1661.50920	         1.00773e+58
          1662.31550	         9.01763e+57
          1663.12180	         8.58765e+57
          1663.92810	         9.85319e+57
          1664.73440	         1.19062e+58
          1665.54070	         1.26283e+58
          1666.34700	         1.26724e+58
          1667.15330	         1.18833e+58
          1667.95960	         9.24528e+57
          1668.76590	         7.92142e+57
          1669.57220	         7.05536e+57
          1670.37850	         7.47432e+57
          1671.18480	         7.74335e+57
          1671.99110	         7.16387e+57
          1672.79740	         7.03613e+57
          1673.60370	         6.91079e+57
          1674.41000	         6.83185e+57
          1675.21630	         7.43519e+57
          1676.02260	         6.63739e+57
          1676.82890	         6.77641e+57
          1677.63520	         7.27925e+57
          1678.44150	         7.07113e+57
          1679.24780	         8.05261e+57
          1680.05410	         7.87753e+57
          1680.86040	         6.94969e+57
          1681.66670	         7.88037e+57
          1682.47300	         8.81550e+57
          1683.27930	         8.09977e+57
          1684.08560	         7.91953e+57
          1684.89190	         8.04990e+57
          1685.69820	         5.97498e+57
          1686.50450	         5.45992e+57
          1687.31080	         6.64757e+57
          1688.11710	         8.04287e+57
          1688.92340	         7.68353e+57
          1689.72970	         6.64283e+57
          1690.53600	         6.94347e+57
          1691.34230	         6.77420e+57
          1692.14860	         7.35523e+57
          1692.95490	         7.91283e+57
          1693.76120	         7.29100e+57
          1694.56750	         8.06052e+57
          1695.37380	         8.93131e+57
          1696.18010	         8.01105e+57
          1696.98640	         7.80516e+57
          1697.79270	         8.57378e+57
          1698.59900	         9.56983e+57
          1699.40530	         7.89185e+57
          1700.21160	         8.11641e+57
          1701.01790	         8.33299e+57
          1701.82420	         7.09278e+57
          1702.63050	         6.89871e+57
          1703.43680	         7.75016e+57
          1704.24310	         8.16881e+57
          1705.04940	         7.19737e+57
          1705.85570	         7.47508e+57
          1706.66200	         9.30229e+57
          1707.46830	         8.98827e+57
          1708.27460	         8.05696e+57
          1709.08090	         7.70331e+57
          1709.88720	         7.21652e+57
          1710.69350	         7.33078e+57
          1711.49980	         7.17794e+57
          1712.30610	         7.35459e+57
          1713.11240	         8.38530e+57
          1713.91870	         7.30326e+57
          1714.72500	         7.63328e+57
          1715.53130	         9.02221e+57
          1716.33760	         7.79791e+57
          1717.14390	         7.39167e+57
          1717.95020	         8.19870e+57
          1718.75650	         8.58437e+57
          1719.56280	         8.67154e+57
          1720.36910	         7.01883e+57
          1721.17540	         7.63916e+57
          1721.98170	         6.98948e+57
          1722.78800	         6.16210e+57
          1723.59430	         7.56870e+57
          1724.40060	         8.74701e+57
          1725.20690	         8.56687e+57
          1726.01320	         7.79806e+57
          1726.81950	         7.26905e+57
          1727.62580	         6.94294e+57
          1728.43210	         7.36677e+57
          1729.23840	         8.11302e+57
          1730.04470	         8.67837e+57
          1730.85100	         8.82409e+57
          1731.65730	         8.72110e+57
          1732.46360	         8.14839e+57
          1733.26990	         7.48601e+57
          1734.07620	         7.24591e+57
          1734.88250	         7.22195e+57
          1735.68880	         8.25607e+57
          1736.49510	         8.76720e+57
          1737.30140	         8.11962e+57
          1738.10770	         7.58132e+57
          1738.91400	         7.48140e+57
          1739.72030	         7.14033e+57
          1740.52660	         7.42122e+57
          1741.33290	         6.81910e+57
          1742.13920	         6.10387e+57
          1742.94550	         7.86980e+57
          1743.75180	         8.18029e+57
          1744.55810	         7.65395e+57
          1745.36440	         6.62166e+57
          1746.17070	         5.39886e+57
          1746.97700	         6.08400e+57
          1747.78330	         7.62302e+57
          1748.58960	         8.01188e+57
          1749.39590	         7.19100e+57
          1750.20220	         6.25801e+57
          1751.00850	         6.35409e+57
          1751.81480	         6.12592e+57
          1752.62110	         7.00975e+57
          1753.42740	         7.57847e+57
          1754.23370	         7.10430e+57
          1755.04000	         8.14884e+57
          1755.84630	         8.02627e+57
          1756.65260	         8.86643e+57
          1757.45890	         9.57375e+57
          1758.26520	         8.01595e+57
          1759.07150	         9.60034e+57
          1759.87780	         9.15591e+57
          1760.68410	         7.14637e+57
          1761.49040	         8.00699e+57
          1762.29670	         7.32452e+57
          1763.10300	         8.10711e+57
          1763.90930	         8.18341e+57
          1764.71560	         8.23045e+57
          1765.52190	         8.36366e+57
          1766.32820	         8.99945e+57
          1767.13450	         9.13487e+57
          1767.94080	         7.59086e+57
          1768.74710	         7.18451e+57
          1769.55340	         7.37348e+57
          1770.35970	         6.66156e+57
          1771.16600	         7.49993e+57
          1771.97230	         8.34904e+57
          1772.77860	         8.29940e+57
          1773.58490	         7.81665e+57
          1774.39120	         6.76472e+57
          1775.19750	         6.34952e+57
          1776.00380	         6.41167e+57
          1776.81010	         6.66626e+57
          1777.61640	         5.89411e+57
          1778.42270	         6.48058e+57
          1779.22900	         7.62400e+57
          1780.03530	         6.33076e+57
          1780.84160	         6.09249e+57
          1781.64790	         8.63440e+57
          1782.45420	         7.97285e+57
          1783.26050	         6.65919e+57
          1784.06680	         7.35779e+57
          1784.87310	         7.52945e+57
          1785.67940	         7.69588e+57
          1786.48570	         7.57266e+57
          1787.29200	         7.11762e+57
          1788.09830	         7.12674e+57
          1788.90460	         6.56757e+57
          1789.71090	         6.40309e+57
          1790.51720	         5.84520e+57
          1791.32350	         7.00600e+57
          1792.12980	         8.53183e+57
          1792.93610	         7.28707e+57
          1793.74240	         7.35479e+57
          1794.54870	         8.90598e+57
          1795.35500	         7.96049e+57
          1796.16130	         7.84043e+57
          1796.96760	         7.42999e+57
          1797.77390	         7.34818e+57
          1798.58020	         8.57874e+57
          1799.38650	         7.79502e+57
          1800.19280	         7.20223e+57
          1800.99910	         7.87962e+57
          1801.80540	         8.01072e+57
          1802.61170	         9.05938e+57
          1803.41800	         9.29466e+57
          1804.22430	         7.57465e+57
          1805.03060	         7.46374e+57
          1805.83690	         7.92521e+57
          1806.64320	         7.40876e+57
          1807.44950	         6.91881e+57
          1808.25580	         7.46035e+57
          1809.06210	         8.71505e+57
          1809.86840	         7.49179e+57
          1810.67470	         6.35889e+57
          1811.48100	         7.79962e+57
          1812.28730	         9.07396e+57
          1813.09360	         8.24723e+57
          1813.89990	         8.24808e+57
          1814.70620	         8.44303e+57
          1815.51250	         8.48730e+57
          1816.31880	         7.94618e+57
          1817.12510	         7.21408e+57
          1817.93140	         6.25457e+57
          1818.73770	         6.83827e+57
          1819.54400	         8.65570e+57
          1820.35030	         8.81819e+57
          1821.15660	         6.93923e+57
          1821.96290	         5.79542e+57
          1822.76920	         6.56529e+57
          1823.57550	         7.12377e+57
          1824.38180	         7.56579e+57
          1825.18810	         7.47849e+57
          1825.99440	         8.50703e+57
          1826.80070	         8.87647e+57
          1827.60700	         7.00161e+57
          1828.41330	         6.39496e+57
          1829.21960	         6.95560e+57
          1830.02590	         6.73376e+57
          1830.83220	         7.15768e+57
          1831.63850	         7.14491e+57
          1832.44480	         6.88137e+57
          1833.25110	         7.69266e+57
          1834.05740	         8.92683e+57
          1834.86370	         7.89907e+57
          1835.67000	         6.21219e+57
          1836.47630	         6.67676e+57
          1837.28260	         8.03005e+57
          1838.08890	         8.65279e+57
          1838.89520	         9.09424e+57
          1839.70150	         7.92354e+57
          1840.50780	         7.76980e+57
          1841.31410	         7.07409e+57
          1842.12040	         6.92548e+57
          1842.92670	         7.12143e+57
          1843.73300	         7.62335e+57
          1844.53930	         7.51910e+57
          1845.34560	         7.54845e+57
          1846.15190	         6.79571e+57
          1846.95820	         7.69753e+57
          1847.76450	         7.93523e+57
          1848.57080	         5.82255e+57
          1849.37710	         6.82464e+57
          1850.18340	         8.02056e+57
          1850.98970	         8.78253e+57
          1851.79600	         8.92819e+57
          1852.60230	         7.23479e+57
          1853.40860	         6.32790e+57
          1854.21490	         6.25069e+57
          1855.02120	         6.94288e+57
          1855.82750	         5.52602e+57
          1856.63380	         5.85142e+57
          1857.44010	         6.61619e+57
          1858.24640	         7.80851e+57
          1859.05270	         6.70403e+57
          1859.85900	         5.56649e+57
          1860.66530	         5.78871e+57
          1861.47160	         7.51887e+57
          1862.27790	         8.14773e+57
          1863.08420	         7.50696e+57
          1863.89050	         7.24555e+57
          1864.69680	         6.89346e+57
          1865.50310	         6.88709e+57
          1866.30940	         6.47874e+57
          1867.11570	         6.42476e+57
          1867.92200	         7.50329e+57
          1868.72830	         7.98001e+57
          1869.53460	         7.60259e+57
          1870.34090	         7.88644e+57
          1871.14720	         7.38061e+57
          1871.95350	         7.15285e+57
          1872.75980	         7.16076e+57
          1873.56610	         7.24785e+57
          1874.37240	         7.29992e+57
          1875.17870	         6.79048e+57
          1875.98500	         7.34117e+57
          1876.79130	         7.75916e+57
          1877.59760	         7.74528e+57
          1878.40390	         6.43460e+57
          1879.21020	         6.18342e+57
          1880.01650	         7.44359e+57
          1880.82280	         8.71577e+57
          1881.62910	         9.42489e+57
          1882.43540	         1.01270e+58
          1883.24170	         9.13105e+57
          1884.04800	         7.32667e+57
          1884.85430	         7.98549e+57
          1885.66060	         9.05044e+57
          1886.46690	         8.62435e+57
          1887.27320	         7.32177e+57
          1888.07950	         6.19367e+57
          1888.88580	         6.97381e+57
          1889.69210	         8.74839e+57
          1890.49840	         8.26407e+57
          1891.30470	         8.36908e+57
          1892.11100	         8.63848e+57
          1892.91730	         8.68044e+57
          1893.72360	         7.43679e+57
          1894.52990	         7.66708e+57
          1895.33620	         8.08463e+57
          1896.14250	         7.21411e+57
          1896.94880	         7.09561e+57
          1897.75510	         4.93605e+57
          1898.56140	         5.19909e+57
          1899.36770	         8.05365e+57
          1900.17400	         6.68436e+57
          1900.98030	         7.67170e+57
          1901.78660	         8.16505e+57
          1902.59290	         7.25259e+57
          1903.39920	         8.41607e+57
          1904.20550	         9.31188e+57
          1905.01180	         9.55805e+57
          1905.81810	         1.02286e+58
          1906.62440	         1.24498e+58
          1907.43070	         1.52386e+58
          1908.23700	         1.61473e+58
          1909.04330	         1.41029e+58
          1909.84960	         1.16754e+58
          1910.65590	         9.72546e+57
          1911.46220	         9.14994e+57
          1912.26850	         7.71313e+57
          1913.07480	         6.08426e+57
          1913.88110	         5.15321e+57
          1914.68740	         5.59372e+57
          1915.49370	         5.66511e+57
          1916.30000	         6.18404e+57
          1917.10630	         7.36334e+57
          1917.91260	         6.61566e+57
          1918.71890	         5.67816e+57
          1919.52520	         5.53579e+57
          1920.33150	         5.93078e+57
          1921.13780	         6.46264e+57
          1921.94410	         8.14172e+57
          1922.75040	         6.66741e+57
          1923.55670	         7.68296e+57
          1924.36300	         8.53902e+57
          1925.16930	         6.62428e+57
          1925.97560	         5.26059e+57
          1926.78190	         5.48459e+57
          1927.58820	         5.39949e+57
          1928.39450	         4.81799e+57
          1929.20080	         4.95048e+57
          1930.00710	         6.83156e+57
          1930.81340	         8.27335e+57
          1931.61970	         6.79258e+57
          1932.42600	         7.48171e+57
          1933.23230	         7.27461e+57
          1934.03860	         6.62650e+57
          1934.84490	         5.65366e+57
          1935.65120	         8.49613e+57
          1936.45750	         9.02023e+57
          1937.26380	         5.92434e+57
          1938.07010	         6.73039e+57
          1938.87640	         8.62100e+57
          1939.68270	         8.49491e+57
          1940.48900	         7.63506e+57
          1941.29530	         7.80003e+57
          1942.10160	         8.14054e+57
          1942.90790	         6.97469e+57
          1943.71420	         6.48593e+57
          1944.52050	         7.14360e+57
          1945.32680	         6.05451e+57
          1946.13310	         6.92822e+57
          1946.93940	         9.09543e+57
          1947.74570	         6.54095e+57
          1948.55200	         5.98548e+57
          1949.35830	         7.41122e+57
          1950.16460	         5.35967e+57
          1950.97090	         5.65975e+57
          1951.77720	         7.51330e+57
          1952.58350	         7.78371e+57
          1953.38980	         6.98157e+57
          1954.19610	         5.57674e+57
          1955.00240	         5.33174e+57
          1955.80870	         4.98904e+57
          1956.61500	         6.06433e+57
          1957.42130	         6.35746e+57
          1958.22760	         7.64698e+57
          1959.03390	         7.10696e+57
          1959.84020	         6.27555e+57
          1960.64650	         7.21960e+57
          1961.45280	         7.75030e+57
          1962.25910	         6.97826e+57
          1963.06540	         6.57776e+57
          1963.87170	         6.74148e+57
          1964.67800	         7.25490e+57
          1965.48430	         6.47373e+57
          1966.29060	         6.48545e+57
          1967.09690	         7.99524e+57
          1967.90320	         6.95578e+57
          1968.70950	         4.95622e+57
          1969.51580	         5.54964e+57
          1970.32210	         7.42646e+57
          1971.12840	         6.36945e+57
          1971.93470	         3.79620e+57
          1972.74100	         4.62931e+57
          1973.54730	         7.80485e+57
          1974.35360	         7.99926e+57
          1975.15990	         8.21104e+57
          1975.96620	         6.65141e+57
          1976.77250	         7.65400e+57
          1977.57880	         8.32066e+57
          1978.38510	         6.47486e+57
          1979.19140	         7.02819e+57
          1979.99770	         7.49530e+57
          1980.80400	         6.61065e+57
          1981.61030	         6.98548e+57
          1982.41660	         6.16969e+57
          1983.22290	         6.35758e+57
          1984.02920	         5.24632e+57
          1984.83550	         5.98213e+57
          1985.64180	         6.85154e+57
          1986.44810	         6.06638e+57
          1987.25440	         5.49422e+57
          1988.06070	         5.58418e+57
          1988.86700	         5.22817e+57
          1989.67330	         6.43706e+57
          1990.47960	         6.41597e+57
          1991.28590	         6.62822e+57
          1992.09220	         6.72540e+57
          1992.89850	         6.35537e+57
          1993.70480	         6.27978e+57
          1994.51110	         5.45479e+57
          1995.31740	         4.58973e+57
          1996.12370	         4.11044e+57
          1996.93000	         5.24453e+57
          1997.73630	         7.02631e+57
          1998.54260	         6.41742e+57
          1999.34890	         7.39910e+57
          2000.15520	         6.31623e+57
          2000.96150	         6.54674e+57
          2001.76780	         4.98497e+57
          2002.57410	         4.30381e+57
          2003.38040	         6.87715e+57
          2004.18670	         7.54464e+57
          2004.99300	         7.05100e+57
          2005.79930	         7.60598e+57
          2006.60560	         7.35975e+57
          2007.41190	         7.78082e+57
          2008.21820	         7.35151e+57
          2009.02450	         7.32472e+57
          2009.83080	         7.08859e+57
          2010.63710	         5.59431e+57
          2011.44340	         6.56545e+57
          2012.24970	         7.16803e+57
          2013.05600	         6.49016e+57
          2013.86230	         5.66463e+57
          2014.66860	         5.37924e+57
          2015.47490	         6.19668e+57
          2016.28120	         5.48492e+57
          2017.08750	         5.21183e+57
          2017.89380	         5.64153e+57
          2018.70010	         5.80725e+57
          2019.50640	         6.02510e+57
          2020.31270	         7.41480e+57
          2021.11900	         7.47419e+57
          2021.92530	         7.29573e+57
          2022.73160	         7.21492e+57
          2023.53790	         7.93714e+57
          2024.34420	         7.45228e+57
          2025.15050	         6.47120e+57
          2025.95680	         5.27195e+57
          2026.76310	         6.80466e+57
          2027.56940	         7.25657e+57
          2028.37570	         6.24411e+57
          2029.18200	         6.21112e+57
          2029.98830	         6.81059e+57
          2030.79460	         6.93139e+57
          2031.60090	         6.65204e+57
          2032.40720	         5.55138e+57
          2033.21350	         4.85897e+57
          2034.01980	         4.97011e+57
          2034.82610	         5.12153e+57
          2035.63240	         4.72661e+57
          2036.43870	         5.36542e+57
          2037.24500	         6.44282e+57
          2038.05130	         7.59488e+57
          2038.85760	         6.30049e+57
          2039.66390	         5.84754e+57
          2040.47020	         5.21240e+57
          2041.27650	         6.52025e+57
          2042.08280	         5.85420e+57
          2042.88910	         5.50475e+57
          2043.69540	         5.00237e+57
          2044.50170	         5.19110e+57
          2045.30800	         5.31317e+57
          2046.11430	         4.88945e+57
          2046.92060	         4.85941e+57
          2047.72690	         6.52830e+57
          2048.53320	         6.57986e+57
          2049.33950	         5.10824e+57
          2050.14580	         5.77823e+57
          2050.95210	         6.43533e+57
          2051.75840	         7.77620e+57
          2052.56470	         6.42341e+57
          2053.37100	         4.51738e+57
          2054.17730	         5.28105e+57
          2054.98360	         5.88379e+57
          2055.78990	         3.03704e+57
          2056.59620	         3.50490e+57
          2057.40250	         5.56489e+57
          2058.20880	         6.07109e+57
          2059.01510	         6.89508e+57
          2059.82140	         6.65625e+57
          2060.62770	         1.09028e+58
          2061.43400	         1.54388e+58
          2062.24030	         1.29149e+58
          2063.04660	         6.06783e+57
          2063.85290	         1.55178e+57
          2064.65920	        -2.46316e+57
          2065.46550	        -8.68796e+57
          2066.27180	        -7.38517e+57
          2067.07810	         6.76206e+57
          2067.88440	         6.14135e+57
          2068.69070	         5.31142e+57
          2069.49700	         5.55943e+57
          2070.30330	         5.14187e+57
          2071.10960	         5.26899e+57
          2071.91590	         7.40871e+57
          2072.72220	         5.02003e+57
          2073.52850	         4.92933e+57
          2074.33480	         4.81851e+57
          2075.14110	         4.76009e+57
          2075.94740	         4.77093e+57
          2076.75370	         4.76933e+57
          2077.56000	         5.39431e+57
          2078.36630	         5.21325e+57
          2079.17260	         4.82459e+57
          2079.97890	         4.94349e+57
          2080.78520	         4.36507e+57
          2081.59150	         4.90232e+57
          2082.39780	         4.08655e+57
          2083.20410	         2.31932e+57
          2084.01040	         2.13390e+57
          2084.81670	         3.74404e+57
          2085.62300	         3.26133e+57
          2086.42930	         4.76373e+57
          2087.23560	         4.19747e+57
          2088.04190	         3.88082e+57
          2088.84820	         1.82023e+57
          2089.65450	         1.38726e+57
          2090.46080	         6.36831e+56
          2091.26710	         1.35248e+57
          2092.07340	         2.07485e+57
          2092.87970	         9.32095e+56
          2093.68600	        -6.76057e+56
          2094.49230	         5.34194e+55
          2095.29860	         4.60804e+57
          2096.10490	         2.05640e+57
          2096.91120	         6.58530e+56
          2097.71750	         4.55567e+56
          2098.52380	        -7.25473e+56
          2099.33010	         1.61255e+57
          2100.13640	         1.52760e+57
          2100.94270	         1.76160e+57
          2101.74900	         4.42459e+57
          2102.55530	         3.91410e+57
          2103.36160	         2.74808e+57
          2104.16790	         3.08293e+57
          2104.97420	         1.88538e+57
          2105.78050	         2.02806e+57
          2106.58680	         3.65243e+57
          2107.39310	        -1.06949e+57
          2108.19940	        -3.53819e+56
          2109.00570	        -2.71753e+56
          2109.81200	         1.53947e+57
          2110.61830	         4.56648e+57
          2111.42460	         2.71864e+57
          2112.23090	         2.40908e+57
          2113.03720	        -2.13345e+56
          2113.84350	        -3.46591e+56
          2114.64980	         4.75617e+56
          2115.45610	        -5.29677e+56
          2116.26240	        -2.17184e+57
          2117.06870	        -1.42367e+57
          2117.87500	        -5.42830e+57
          2118.68130	        -1.01134e+56
          2119.48760	         2.80960e+57
          2120.29390	         9.94445e+56
          2121.10020	        -2.16606e+57
          2121.90650	        -3.43613e+57
          2122.71280	        -2.54880e+56
          2123.51910	        -2.72749e+57
          2124.32540	        -1.51979e+57
          2125.13170	         1.33340e+56
          2125.93800	         4.86515e+57
          2126.74430	        -8.33843e+56
          2127.55060	        -4.90697e+57
          2128.35690	         1.22811e+57
          2129.16320	        -1.47812e+57
          2129.96950	        -5.09598e+57
          2130.77580	        -9.09592e+56
          2131.58210	        -1.01337e+57
          2132.38840	         2.29736e+57
          2133.19470	        -3.65155e+57
          2134.00100	        -8.32206e+56
          2134.80730	        -6.84667e+57
          2135.61360	        -2.18560e+56
          2136.41990	         1.71885e+57
          2137.22620	         8.10710e+57
          2138.03250	         2.90006e+57
          2138.83880	         6.83756e+56
          2139.64510	         2.66754e+57
          2140.45140	        -6.53135e+57
          2141.25770	        -1.95779e+58
          2142.06400	        -7.80499e+57
          2142.87030	         1.98864e+57
          2143.67660	        -2.57014e+57
          2144.48290	         2.90500e+57
          2145.28920	         1.44188e+58
          2146.09550	        -8.49877e+56
          2146.90180	        -3.66630e+57
          2147.70810	        -2.30460e+57
          2148.51440	        -1.64585e+57
          2149.32070	        -4.37005e+57
          2150.12700	        -1.17578e+58
          2150.93330	        -5.59993e+57
          2151.73960	        -6.93545e+57
          2152.54590	        -2.16324e+57
          2153.35220	        -1.39464e+57
          2154.15850	        -6.51152e+57
          2154.96480	         2.48913e+57
          2155.77110	        -1.25066e+56
          2156.57740	        -2.23791e+57
          2157.38370	         2.05711e+56
          2158.19000	         6.10810e+57
          2158.99630	        -3.58548e+57
          2159.80260	        -5.33187e+57
          2160.60890	        -8.60863e+57
          2161.41520	         3.87269e+57
          2162.22150	         3.48801e+57
          2163.02780	         3.81570e+57
          2163.83410	        -5.93192e+57
          2164.64040	        -6.74638e+57
          2165.44670	        -3.71389e+57
          2166.25300	         2.11900e+56
          2167.05930	         1.06721e+57
          2167.86560	         2.68093e+56
          2168.67190	        -6.60383e+57
          2169.47820	        -6.98656e+57
          2170.28450	        -2.70371e+57
          2171.09080	        -9.15635e+56
          2171.89710	        -2.70114e+57
          2172.70340	         1.98454e+56
          2173.50970	        -4.79824e+57
          2174.31600	        -4.47254e+57
          2175.12230	        -1.64877e+57
          2175.92860	        -3.34022e+57
          2176.73490	        -2.40557e+57
          2177.54120	        -2.65084e+57
          2178.34750	        -4.79331e+56
          2179.15380	                 nan
          2179.96010	                 nan
          2180.76640	                 nan
          2181.57270	                 nan
          2182.37900	                 nan
          2183.18530	                 nan
          2183.99160	                 nan
          2184.79790	                 nan
          2185.60420	                 nan
          2186.41050	                 nan
          2187.21680	                 nan
          2188.02310	                 nan
          2188.82940	                 nan
          2189.63570	                 nan
          2190.44200	                 nan
          2191.24830	                 nan
          2192.05460	                 nan
          2192.86090	                 nan
          2193.66720	                 nan
          2194.47350	                 nan
          2195.27980	                 nan
          2196.08610	                 nan
          2196.89240	                 nan
          2197.69870	                 nan
          2198.50500	                 nan
          2199.31130	                 nan
          2200.11760	                 nan
          2200.92390	                 nan
          2201.73020	                 nan
          2202.53650	                 nan
          2203.34280	                 nan
          2204.14910	                 nan
          2204.95540	                 nan
          2205.76170	                 nan
          2206.56800	                 nan
          2207.37430	                 nan
          2208.18060	                 nan
          2208.98690	                 nan
          2209.79320	                 nan
          2210.59950	                 nan
          2211.40580	                 nan
          2212.21210	                 nan
          2213.01840	                 nan
          2213.82470	                 nan
          2214.63100	                 nan
          2215.43730	         0.00000e+00
