#sample_452_stacked_spectrum_rest_UV-bands_median_H-alpha_noDC.txt
#median Lum: 1.69665e+42
#Rest-frame wavelength (A) | Luminosity (erg/s/A)
#
          1110.00000	         0.00000e+00
          1110.80630	         5.88898e+59
          1111.61260	         5.36622e+59
          1112.41890	        -2.59418e+58
          1113.22520	         8.27489e+58
          1114.03150	        -2.09766e+59
          1114.83780	         2.68628e+58
          1115.64410	         1.12920e+59
          1116.45040	         1.10400e+58
          1117.25670	         1.76199e+59
          1118.06300	         1.06729e+58
          1118.86930	        -5.13509e+58
          1119.67560	         5.49943e+58
          1120.48190	        -3.84280e+58
          1121.28820	        -1.18919e+59
          1122.09450	        -3.56452e+58
          1122.90080	        -1.11898e+58
          1123.70710	         2.66773e+58
          1124.51340	         1.22207e+59
          1125.31970	         5.75077e+58
          1126.12600	         1.62782e+58
          1126.93230	        -3.91463e+58
          1127.73860	        -2.83518e+58
          1128.54490	        -1.58825e+58
          1129.35120	         2.06210e+58
          1130.15750	         1.21716e+57
          1130.96380	        -8.99886e+57
          1131.77010	         3.60051e+58
          1132.57640	         6.29752e+58
          1133.38270	         2.79206e+58
          1134.18900	         1.69827e+57
          1134.99530	         4.92565e+57
          1135.80160	        -7.02775e+57
          1136.60790	         2.08118e+58
          1137.41420	         3.96324e+58
          1138.22050	         2.95353e+58
          1139.02680	         4.62698e+58
          1139.83310	         1.99045e+58
          1140.63940	         2.79967e+58
          1141.44570	         5.83476e+57
          1142.25200	         7.88263e+57
          1143.05830	         2.71216e+58
          1143.86460	         3.67319e+58
          1144.67090	         2.08961e+58
          1145.47720	         7.30129e+57
          1146.28350	         1.24437e+58
          1147.08980	         1.90728e+58
          1147.89610	         1.97664e+58
          1148.70240	         1.38332e+58
          1149.50870	         1.90992e+58
          1150.31500	         1.66474e+57
          1151.12130	         4.45700e+57
          1151.92760	         1.09395e+58
          1152.73390	         3.93124e+57
          1153.54020	        -3.57547e+57
          1154.34650	         2.81821e+58
          1155.15280	         2.19257e+58
          1155.95910	         1.09121e+58
          1156.76540	         1.77448e+57
          1157.57170	        -5.53540e+56
          1158.37800	        -6.85995e+56
          1159.18430	         8.68345e+56
          1159.99060	         8.44953e+57
          1160.79690	         8.21702e+56
          1161.60320	         5.63186e+57
          1162.40950	         1.29663e+58
          1163.21580	         2.13270e+58
          1164.02210	         1.86134e+58
          1164.82840	         1.25091e+58
          1165.63470	         2.33435e+58
          1166.44100	         2.94228e+58
          1167.24730	         1.71590e+58
          1168.05360	         7.21924e+57
          1168.85990	         6.12833e+57
          1169.66620	         4.24686e+57
          1170.47250	         1.03839e+58
          1171.27880	         1.88971e+58
          1172.08510	         2.50686e+58
          1172.89140	         1.71963e+58
          1173.69770	         6.90560e+57
          1174.50400	         1.16664e+58
          1175.31030	         1.59545e+58
          1176.11660	         1.76675e+58
          1176.92290	         1.40266e+58
          1177.72920	         1.35579e+58
          1178.53550	         4.70765e+57
          1179.34180	        -1.32544e+57
          1180.14810	        -1.19034e+55
          1180.95440	         1.22583e+58
          1181.76070	         9.48057e+57
          1182.56700	         7.74430e+57
          1183.37330	         7.41143e+57
          1184.17960	         9.17446e+57
          1184.98590	         8.93382e+57
          1185.79220	         9.47933e+57
          1186.59850	         1.29490e+58
          1187.40480	         9.45838e+57
          1188.21110	         1.51120e+58
          1189.01740	         8.88658e+57
          1189.82370	         1.38882e+58
          1190.63000	         1.37940e+58
          1191.43630	         1.26168e+58
          1192.24260	         9.72634e+57
          1193.04890	         9.35563e+57
          1193.85520	         1.26245e+58
          1194.66150	         3.41793e+57
          1195.46780	         1.15816e+58
          1196.27410	         1.51966e+58
          1197.08040	         7.86969e+57
          1197.88670	         8.71452e+57
          1198.69300	         1.72370e+58
          1199.49930	         1.89148e+58
          1200.30560	         1.13401e+58
          1201.11190	         8.50761e+57
          1201.91820	         8.96931e+57
          1202.72450	         1.25316e+58
          1203.53080	         1.44282e+58
          1204.33710	         8.63821e+57
          1205.14340	         8.12966e+57
          1205.94970	         6.92487e+57
          1206.75600	         5.65221e+57
          1207.56230	         6.32630e+57
          1208.36860	         8.00399e+57
          1209.17490	         4.62547e+57
          1209.98120	         6.56445e+57
          1210.78750	         8.44221e+57
          1211.59380	         8.72945e+57
          1212.40010	         1.82843e+58
          1213.20640	         1.89064e+58
          1214.01270	         1.88908e+58
          1214.81900	         2.60014e+58
          1215.62530	         4.65258e+58
          1216.43160	         9.18722e+58
          1217.23790	         1.55207e+59
          1218.04420	         1.18291e+59
          1218.85050	         9.17203e+58
          1219.65680	         5.98741e+58
          1220.46310	         3.64922e+58
          1221.26940	         2.48658e+58
          1222.07570	         1.41209e+58
          1222.88200	         7.65582e+57
          1223.68830	         7.64705e+57
          1224.49460	         5.00239e+57
          1225.30090	         3.69963e+57
          1226.10720	         4.74719e+57
          1226.91350	         6.45177e+57
          1227.71980	         8.47833e+57
          1228.52610	         1.09884e+58
          1229.33240	         8.61530e+57
          1230.13870	         8.49178e+57
          1230.94500	         8.89145e+57
          1231.75130	         8.89416e+57
          1232.55760	         1.04988e+58
          1233.36390	         9.11851e+57
          1234.17020	         1.12182e+58
          1234.97650	         7.78919e+57
          1235.78280	         6.91278e+57
          1236.58910	         6.63735e+57
          1237.39540	         8.57700e+57
          1238.20170	         1.01706e+58
          1239.00800	         1.38401e+58
          1239.81430	         1.44481e+58
          1240.62060	         9.48978e+57
          1241.42690	         1.20947e+58
          1242.23320	         1.55496e+58
          1243.03950	         9.00933e+57
          1243.84580	         7.89646e+57
          1244.65210	         1.25454e+58
          1245.45840	         1.19990e+58
          1246.26470	         8.83310e+57
          1247.07100	         6.41258e+57
          1247.87730	         4.90780e+57
          1248.68360	         4.21162e+57
          1249.48990	         5.26632e+57
          1250.29620	         9.01672e+57
          1251.10250	         7.38050e+57
          1251.90880	         4.09844e+57
          1252.71510	         5.31498e+57
          1253.52140	         6.76177e+57
          1254.32770	         1.24053e+58
          1255.13400	         1.70250e+58
          1255.94030	         1.39914e+58
          1256.74660	         1.13846e+58
          1257.55290	         1.16164e+58
          1258.35920	         8.27454e+57
          1259.16550	         4.97465e+57
          1259.97180	         3.35652e+57
          1260.77810	         8.05264e+57
          1261.58440	         1.10166e+58
          1262.39070	         5.59803e+57
          1263.19700	         6.18943e+57
          1264.00330	         8.51953e+57
          1264.80960	         8.21048e+57
          1265.61590	         9.39032e+57
          1266.42220	         1.20382e+58
          1267.22850	         1.23048e+58
          1268.03480	         1.50927e+58
          1268.84110	         1.48962e+58
          1269.64740	         1.30877e+58
          1270.45370	         1.09312e+58
          1271.26000	         1.03771e+58
          1272.06630	         1.23816e+58
          1272.87260	         1.46505e+58
          1273.67890	         1.42487e+58
          1274.48520	         1.22508e+58
          1275.29150	         1.40791e+58
          1276.09780	         1.40329e+58
          1276.90410	         1.32787e+58
          1277.71040	         1.30436e+58
          1278.51670	         1.16383e+58
          1279.32300	         1.25812e+58
          1280.12930	         1.24393e+58
          1280.93560	         1.25007e+58
          1281.74190	         1.07587e+58
          1282.54820	         1.09876e+58
          1283.35450	         1.21499e+58
          1284.16080	         1.35057e+58
          1284.96710	         1.53566e+58
          1285.77340	         1.19482e+58
          1286.57970	         1.20701e+58
          1287.38600	         1.54085e+58
          1288.19230	         1.44805e+58
          1288.99860	         1.37256e+58
          1289.80490	         1.20075e+58
          1290.61120	         1.27763e+58
          1291.41750	         1.35828e+58
          1292.22380	         1.15213e+58
          1293.03010	         9.56223e+57
          1293.83640	         1.16683e+58
          1294.64270	         9.50093e+57
          1295.44900	         6.49269e+57
          1296.25530	         6.31107e+57
          1297.06160	         8.40217e+57
          1297.86790	         9.44543e+57
          1298.67420	         8.33843e+57
          1299.48050	         9.98007e+57
          1300.28680	         1.20694e+58
          1301.09310	         8.85967e+57
          1301.89940	         5.89963e+57
          1302.70570	         6.70162e+57
          1303.51200	         7.10092e+57
          1304.31830	         1.06640e+58
          1305.12460	         1.20616e+58
          1305.93090	         1.10735e+58
          1306.73720	         1.27894e+58
          1307.54350	         1.40913e+58
          1308.34980	         1.43985e+58
          1309.15610	         1.69924e+58
          1309.96240	         1.75783e+58
          1310.76870	         1.44803e+58
          1311.57500	         1.08723e+58
          1312.38130	         7.46044e+57
          1313.18760	         1.27197e+58
          1313.99390	         1.77696e+58
          1314.80020	         1.69525e+58
          1315.60650	         1.42738e+58
          1316.41280	         1.19116e+58
          1317.21910	         1.18649e+58
          1318.02540	         1.32455e+58
          1318.83170	         1.38557e+58
          1319.63800	         1.22566e+58
          1320.44430	         1.29041e+58
          1321.25060	         1.27455e+58
          1322.05690	         1.26159e+58
          1322.86320	         1.09663e+58
          1323.66950	         1.08135e+58
          1324.47580	         8.97145e+57
          1325.28210	         8.72067e+57
          1326.08840	         1.17516e+58
          1326.89470	         1.36313e+58
          1327.70100	         1.08913e+58
          1328.50730	         8.93689e+57
          1329.31360	         1.02903e+58
          1330.11990	         8.45629e+57
          1330.92620	         8.50360e+57
          1331.73250	         1.04762e+58
          1332.53880	         9.89285e+57
          1333.34510	         8.58101e+57
          1334.15140	         8.79082e+57
          1334.95770	         9.78245e+57
          1335.76400	         1.01345e+58
          1336.57030	         1.16596e+58
          1337.37660	         1.10370e+58
          1338.18290	         9.43368e+57
          1338.98920	         1.15276e+58
          1339.79550	         1.19611e+58
          1340.60180	         1.16616e+58
          1341.40810	         1.29462e+58
          1342.21440	         1.08389e+58
          1343.02070	         1.18585e+58
          1343.82700	         1.28226e+58
          1344.63330	         1.22694e+58
          1345.43960	         1.14929e+58
          1346.24590	         1.04407e+58
          1347.05220	         1.22538e+58
          1347.85850	         1.06039e+58
          1348.66480	         1.24527e+58
          1349.47110	         1.43334e+58
          1350.27740	         1.28521e+58
          1351.08370	         1.32838e+58
          1351.89000	         1.26796e+58
          1352.69630	         1.12951e+58
          1353.50260	         1.21536e+58
          1354.30890	         1.23925e+58
          1355.11520	         1.25506e+58
          1355.92150	         1.06009e+58
          1356.72780	         1.03924e+58
          1357.53410	         1.07528e+58
          1358.34040	         1.06191e+58
          1359.14670	         1.14917e+58
          1359.95300	         1.12716e+58
          1360.75930	         1.04917e+58
          1361.56560	         1.11288e+58
          1362.37190	         1.08166e+58
          1363.17820	         1.02483e+58
          1363.98450	         1.07151e+58
          1364.79080	         1.25458e+58
          1365.59710	         1.35773e+58
          1366.40340	         1.24499e+58
          1367.20970	         9.96912e+57
          1368.01600	         8.17617e+57
          1368.82230	         8.96722e+57
          1369.62860	         1.09005e+58
          1370.43490	         9.03690e+57
          1371.24120	         8.51214e+57
          1372.04750	         9.21418e+57
          1372.85380	         1.23797e+58
          1373.66010	         1.21116e+58
          1374.46640	         1.08901e+58
          1375.27270	         9.99228e+57
          1376.07900	         9.00573e+57
          1376.88530	         8.05043e+57
          1377.69160	         7.10785e+57
          1378.49790	         6.66818e+57
          1379.30420	         8.02527e+57
          1380.11050	         9.47071e+57
          1380.91680	         8.46225e+57
          1381.72310	         8.11910e+57
          1382.52940	         8.30387e+57
          1383.33570	         7.26083e+57
          1384.14200	         1.04151e+58
          1384.94830	         1.22350e+58
          1385.75460	         1.10929e+58
          1386.56090	         1.21130e+58
          1387.36720	         1.07784e+58
          1388.17350	         1.13478e+58
          1388.97980	         1.03296e+58
          1389.78610	         8.71066e+57
          1390.59240	         9.55614e+57
          1391.39870	         8.88634e+57
          1392.20500	         8.12829e+57
          1393.01130	         8.06624e+57
          1393.81760	         7.90888e+57
          1394.62390	         6.89041e+57
          1395.43020	         6.49322e+57
          1396.23650	         5.63280e+57
          1397.04280	         7.02739e+57
          1397.84910	         9.76618e+57
          1398.65540	         9.63639e+57
          1399.46170	         9.21257e+57
          1400.26800	         9.22641e+57
          1401.07430	         8.11256e+57
          1401.88060	         7.29891e+57
          1402.68690	         8.36198e+57
          1403.49320	         8.73883e+57
          1404.29950	         8.05052e+57
          1405.10580	         1.02798e+58
          1405.91210	         1.16143e+58
          1406.71840	         1.21472e+58
          1407.52470	         1.07239e+58
          1408.33100	         9.51901e+57
          1409.13730	         1.13046e+58
          1409.94360	         1.02550e+58
          1410.74990	         1.04287e+58
          1411.55620	         1.00879e+58
          1412.36250	         8.55635e+57
          1413.16880	         9.00895e+57
          1413.97510	         8.31375e+57
          1414.78140	         8.87049e+57
          1415.58770	         1.13443e+58
          1416.39400	         1.11744e+58
          1417.20030	         1.18846e+58
          1418.00660	         1.08892e+58
          1418.81290	         1.08837e+58
          1419.61920	         1.03962e+58
          1420.42550	         1.20334e+58
          1421.23180	         1.34946e+58
          1422.03810	         1.29488e+58
          1422.84440	         1.25757e+58
          1423.65070	         1.40077e+58
          1424.45700	         1.14951e+58
          1425.26330	         8.65189e+57
          1426.06960	         9.57670e+57
          1426.87590	         1.06163e+58
          1427.68220	         1.01359e+58
          1428.48850	         1.12471e+58
          1429.29480	         1.09720e+58
          1430.10110	         9.54039e+57
          1430.90740	         8.36696e+57
          1431.71370	         8.81970e+57
          1432.52000	         9.17018e+57
          1433.32630	         8.73611e+57
          1434.13260	         8.07616e+57
          1434.93890	         8.72940e+57
          1435.74520	         8.92473e+57
          1436.55150	         8.94140e+57
          1437.35780	         9.06451e+57
          1438.16410	         9.07105e+57
          1438.97040	         8.47311e+57
          1439.77670	         7.94551e+57
          1440.58300	         8.63348e+57
          1441.38930	         1.00694e+58
          1442.19560	         9.70787e+57
          1443.00190	         9.35952e+57
          1443.80820	         1.02455e+58
          1444.61450	         9.40054e+57
          1445.42080	         9.58387e+57
          1446.22710	         1.06961e+58
          1447.03340	         1.06234e+58
          1447.83970	         1.02899e+58
          1448.64600	         9.93383e+57
          1449.45230	         9.93070e+57
          1450.25860	         9.31232e+57
          1451.06490	         8.50555e+57
          1451.87120	         7.49713e+57
          1452.67750	         6.84848e+57
          1453.48380	         7.95191e+57
          1454.29010	         7.35702e+57
          1455.09640	         7.81518e+57
          1455.90270	         8.95125e+57
          1456.70900	         9.13448e+57
          1457.51530	         9.14355e+57
          1458.32160	         1.09746e+58
          1459.12790	         1.14644e+58
          1459.93420	         1.00289e+58
          1460.74050	         8.93058e+57
          1461.54680	         7.74792e+57
          1462.35310	         7.20095e+57
          1463.15940	         9.87011e+57
          1463.96570	         1.13585e+58
          1464.77200	         1.22156e+58
          1465.57830	         1.22737e+58
          1466.38460	         1.01970e+58
          1467.19090	         8.97247e+57
          1467.99720	         8.15406e+57
          1468.80350	         8.93287e+57
          1469.60980	         9.34658e+57
          1470.41610	         9.31884e+57
          1471.22240	         8.77281e+57
          1472.02870	         1.01892e+58
          1472.83500	         9.91023e+57
          1473.64130	         8.99458e+57
          1474.44760	         9.84123e+57
          1475.25390	         9.47976e+57
          1476.06020	         8.75452e+57
          1476.86650	         7.68263e+57
          1477.67280	         7.68146e+57
          1478.47910	         7.95159e+57
          1479.28540	         7.65677e+57
          1480.09170	         7.76960e+57
          1480.89800	         8.71471e+57
          1481.70430	         8.40384e+57
          1482.51060	         8.46206e+57
          1483.31690	         8.82435e+57
          1484.12320	         9.58038e+57
          1484.92950	         8.74503e+57
          1485.73580	         8.40548e+57
          1486.54210	         8.72172e+57
          1487.34840	         8.96916e+57
          1488.15470	         9.14601e+57
          1488.96100	         8.36479e+57
          1489.76730	         8.70702e+57
          1490.57360	         7.49340e+57
          1491.37990	         6.48959e+57
          1492.18620	         8.28691e+57
          1492.99250	         8.01815e+57
          1493.79880	         7.70256e+57
          1494.60510	         8.54404e+57
          1495.41140	         7.26350e+57
          1496.21770	         7.86350e+57
          1497.02400	         1.01577e+58
          1497.83030	         8.84373e+57
          1498.63660	         6.52264e+57
          1499.44290	         5.73910e+57
          1500.24920	         6.35830e+57
          1501.05550	         7.57924e+57
          1501.86180	         7.48053e+57
          1502.66810	         7.98603e+57
          1503.47440	         8.81853e+57
          1504.28070	         8.95650e+57
          1505.08700	         9.16678e+57
          1505.89330	         9.21316e+57
          1506.69960	         8.15218e+57
          1507.50590	         7.37097e+57
          1508.31220	         8.53701e+57
          1509.11850	         8.12000e+57
          1509.92480	         8.53140e+57
          1510.73110	         9.03486e+57
          1511.53740	         8.08861e+57
          1512.34370	         7.83530e+57
          1513.15000	         8.97009e+57
          1513.95630	         9.82401e+57
          1514.76260	         8.91863e+57
          1515.56890	         8.25735e+57
          1516.37520	         9.04205e+57
          1517.18150	         8.21386e+57
          1517.98780	         7.58454e+57
          1518.79410	         6.97471e+57
          1519.60040	         8.52978e+57
          1520.40670	         1.03103e+58
          1521.21300	         9.73301e+57
          1522.01930	         8.59901e+57
          1522.82560	         8.16085e+57
          1523.63190	         9.24357e+57
          1524.43820	         8.31000e+57
          1525.24450	         5.67479e+57
          1526.05080	         6.27885e+57
          1526.85710	         6.23691e+57
          1527.66340	         6.05875e+57
          1528.46970	         7.82518e+57
          1529.27600	         7.92031e+57
          1530.08230	         7.45959e+57
          1530.88860	         8.26896e+57
          1531.69490	         9.35471e+57
          1532.50120	         9.29540e+57
          1533.30750	         9.63000e+57
          1534.11380	         9.61647e+57
          1534.92010	         9.78911e+57
          1535.72640	         9.72866e+57
          1536.53270	         9.43560e+57
          1537.33900	         8.99297e+57
          1538.14530	         9.02050e+57
          1538.95160	         8.17398e+57
          1539.75790	         8.45795e+57
          1540.56420	         1.00815e+58
          1541.37050	         9.30163e+57
          1542.17680	         7.80341e+57
          1542.98310	         6.95821e+57
          1543.78940	         7.37657e+57
          1544.59570	         7.52471e+57
          1545.40200	         7.63316e+57
          1546.20830	         8.98045e+57
          1547.01460	         1.06241e+58
          1547.82090	         1.18453e+58
          1548.62720	         1.30255e+58
          1549.43350	         1.21048e+58
          1550.23980	         1.09018e+58
          1551.04610	         1.24313e+58
          1551.85240	         1.18699e+58
          1552.65870	         1.10615e+58
          1553.46500	         1.02346e+58
          1554.27130	         1.04895e+58
          1555.07760	         1.06273e+58
          1555.88390	         8.88274e+57
          1556.69020	         7.85090e+57
          1557.49650	         8.26337e+57
          1558.30280	         8.16550e+57
          1559.10910	         8.26449e+57
          1559.91540	         8.85327e+57
          1560.72170	         8.46848e+57
          1561.52800	         8.01601e+57
          1562.33430	         8.34954e+57
          1563.14060	         8.09781e+57
          1563.94690	         7.94621e+57
          1564.75320	         8.01027e+57
          1565.55950	         6.73519e+57
          1566.36580	         6.56894e+57
          1567.17210	         8.50378e+57
          1567.97840	         9.04023e+57
          1568.78470	         8.24708e+57
          1569.59100	         8.65298e+57
          1570.39730	         8.52310e+57
          1571.20360	         7.91487e+57
          1572.00990	         8.15943e+57
          1572.81620	         8.80663e+57
          1573.62250	         9.77550e+57
          1574.42880	         9.36722e+57
          1575.23510	         8.13038e+57
          1576.04140	         9.12050e+57
          1576.84770	         9.71367e+57
          1577.65400	         9.33012e+57
          1578.46030	         1.00736e+58
          1579.26660	         1.08599e+58
          1580.07290	         9.64172e+57
          1580.87920	         7.43481e+57
          1581.68550	         8.10669e+57
          1582.49180	         8.43480e+57
          1583.29810	         7.49769e+57
          1584.10440	         7.85953e+57
          1584.91070	         8.32689e+57
          1585.71700	         8.99471e+57
          1586.52330	         9.88174e+57
          1587.32960	         8.74007e+57
          1588.13590	         8.37150e+57
          1588.94220	         9.01438e+57
          1589.74850	         8.94731e+57
          1590.55480	         8.98188e+57
          1591.36110	         8.00704e+57
          1592.16740	         8.30143e+57
          1592.97370	         8.87026e+57
          1593.78000	         9.41406e+57
          1594.58630	         1.00803e+58
          1595.39260	         7.97658e+57
          1596.19890	         8.35719e+57
          1597.00520	         9.96115e+57
          1597.81150	         8.92716e+57
          1598.61780	         7.30824e+57
          1599.42410	         6.99378e+57
          1600.23040	         6.39870e+57
          1601.03670	         6.83382e+57
          1601.84300	         7.67568e+57
          1602.64930	         8.30679e+57
          1603.45560	         8.41559e+57
          1604.26190	         7.26870e+57
          1605.06820	         8.03195e+57
          1605.87450	         8.29556e+57
          1606.68080	         7.23383e+57
          1607.48710	         5.03476e+57
          1608.29340	         4.97917e+57
          1609.09970	         6.66768e+57
          1609.90600	         8.16196e+57
          1610.71230	         7.34013e+57
          1611.51860	         6.10885e+57
          1612.32490	         6.64779e+57
          1613.13120	         9.11995e+57
          1613.93750	         8.92043e+57
          1614.74380	         8.08071e+57
          1615.55010	         8.11339e+57
          1616.35640	         9.18577e+57
          1617.16270	         9.90843e+57
          1617.96900	         9.48596e+57
          1618.77530	         8.67534e+57
          1619.58160	         8.67585e+57
          1620.38790	         9.81185e+57
          1621.19420	         9.39365e+57
          1622.00050	         6.99320e+57
          1622.80680	         8.71363e+57
          1623.61310	         8.26235e+57
          1624.41940	         8.42690e+57
          1625.22570	         1.00806e+58
          1626.03200	         9.38520e+57
          1626.83830	         8.88876e+57
          1627.64460	         7.34342e+57
          1628.45090	         7.86154e+57
          1629.25720	         8.91145e+57
          1630.06350	         8.61870e+57
          1630.86980	         5.42775e+57
          1631.67610	         7.17088e+57
          1632.48240	         8.31005e+57
          1633.28870	         8.10371e+57
          1634.09500	         9.40243e+57
          1634.90130	         1.06175e+58
          1635.70760	         9.17713e+57
          1636.51390	         8.47527e+57
          1637.32020	         8.08288e+57
          1638.12650	         8.53313e+57
          1638.93280	         9.89198e+57
          1639.73910	         1.10994e+58
          1640.54540	         1.09957e+58
          1641.35170	         8.14270e+57
          1642.15800	         9.55044e+57
          1642.96430	         9.70418e+57
          1643.77060	         8.53016e+57
          1644.57690	         8.03562e+57
          1645.38320	         7.50565e+57
          1646.18950	         6.45260e+57
          1646.99580	         7.77611e+57
          1647.80210	         7.92856e+57
          1648.60840	         7.06533e+57
          1649.41470	         7.45187e+57
          1650.22100	         7.77190e+57
          1651.02730	         7.76347e+57
          1651.83360	         7.58997e+57
          1652.63990	         8.27361e+57
          1653.44620	         9.68443e+57
          1654.25250	         8.85416e+57
          1655.05880	         7.81205e+57
          1655.86510	         7.87337e+57
          1656.67140	         8.27225e+57
          1657.47770	         8.76798e+57
          1658.28400	         8.69523e+57
          1659.09030	         9.34502e+57
          1659.89660	         9.99356e+57
          1660.70290	         9.35928e+57
          1661.50920	         9.76499e+57
          1662.31550	         9.00283e+57
          1663.12180	         8.66685e+57
          1663.92810	         1.02559e+58
          1664.73440	         1.11985e+58
          1665.54070	         1.19992e+58
          1666.34700	         1.28119e+58
          1667.15330	         1.18209e+58
          1667.95960	         9.08590e+57
          1668.76590	         7.77475e+57
          1669.57220	         6.99415e+57
          1670.37850	         7.71948e+57
          1671.18480	         8.08583e+57
          1671.99110	         6.98114e+57
          1672.79740	         6.65175e+57
          1673.60370	         7.01792e+57
          1674.41000	         6.62825e+57
          1675.21630	         6.95901e+57
          1676.02260	         6.99897e+57
          1676.82890	         6.12616e+57
          1677.63520	         5.78781e+57
          1678.44150	         7.02603e+57
          1679.24780	         8.98020e+57
          1680.05410	         7.60785e+57
          1680.86040	         5.25951e+57
          1681.66670	         7.18693e+57
          1682.47300	         8.52568e+57
          1683.27930	         9.16984e+57
          1684.08560	         9.34595e+57
          1684.89190	         8.46812e+57
          1685.69820	         5.29339e+57
          1686.50450	         5.34929e+57
          1687.31080	         7.06281e+57
          1688.11710	         7.22270e+57
          1688.92340	         6.35048e+57
          1689.72970	         6.89393e+57
          1690.53600	         6.88637e+57
          1691.34230	         6.64219e+57
          1692.14860	         7.17803e+57
          1692.95490	         8.35660e+57
          1693.76120	         8.41943e+57
          1694.56750	         8.29168e+57
          1695.37380	         8.78173e+57
          1696.18010	         9.05723e+57
          1696.98640	         8.93515e+57
          1697.79270	         7.07525e+57
          1698.59900	         7.96689e+57
          1699.40530	         7.17272e+57
          1700.21160	         7.47178e+57
          1701.01790	         8.36199e+57
          1701.82420	         7.11615e+57
          1702.63050	         8.21971e+57
          1703.43680	         8.75870e+57
          1704.24310	         8.37459e+57
          1705.04940	         8.23313e+57
          1705.85570	         8.24912e+57
          1706.66200	         8.25269e+57
          1707.46830	         8.70466e+57
          1708.27460	         7.19353e+57
          1709.08090	         5.55957e+57
          1709.88720	         6.03092e+57
          1710.69350	         6.62563e+57
          1711.49980	         7.16765e+57
          1712.30610	         7.51319e+57
          1713.11240	         9.41663e+57
          1713.91870	         8.99561e+57
          1714.72500	         8.26194e+57
          1715.53130	         8.81412e+57
          1716.33760	         8.62477e+57
          1717.14390	         6.56186e+57
          1717.95020	         8.22898e+57
          1718.75650	         9.35665e+57
          1719.56280	         8.57122e+57
          1720.36910	         7.30207e+57
          1721.17540	         7.12129e+57
          1721.98170	         7.24422e+57
          1722.78800	         6.98680e+57
          1723.59430	         7.10128e+57
          1724.40060	         8.02041e+57
          1725.20690	         8.47973e+57
          1726.01320	         8.24909e+57
          1726.81950	         7.25583e+57
          1727.62580	         6.97826e+57
          1728.43210	         7.48004e+57
          1729.23840	         8.30170e+57
          1730.04470	         8.55135e+57
          1730.85100	         8.47328e+57
          1731.65730	         7.76467e+57
          1732.46360	         7.31051e+57
          1733.26990	         7.12576e+57
          1734.07620	         6.97566e+57
          1734.88250	         7.40228e+57
          1735.68880	         7.49809e+57
          1736.49510	         7.64766e+57
          1737.30140	         7.37582e+57
          1738.10770	         6.73573e+57
          1738.91400	         6.90430e+57
          1739.72030	         7.50671e+57
          1740.52660	         6.97716e+57
          1741.33290	         6.86960e+57
          1742.13920	         6.23234e+57
          1742.94550	         6.58873e+57
          1743.75180	         7.72218e+57
          1744.55810	         7.47069e+57
          1745.36440	         6.80806e+57
          1746.17070	         5.38739e+57
          1746.97700	         5.13985e+57
          1747.78330	         6.13840e+57
          1748.58960	         6.21593e+57
          1749.39590	         6.89713e+57
          1750.20220	         6.54179e+57
          1751.00850	         6.35721e+57
          1751.81480	         6.36504e+57
          1752.62110	         6.68201e+57
          1753.42740	         8.25769e+57
          1754.23370	         7.71858e+57
          1755.04000	         7.33227e+57
          1755.84630	         7.08853e+57
          1756.65260	         7.15596e+57
          1757.45890	         7.80065e+57
          1758.26520	         7.46291e+57
          1759.07150	         8.60966e+57
          1759.87780	         8.71584e+57
          1760.68410	         8.27193e+57
          1761.49040	         7.66198e+57
          1762.29670	         6.82489e+57
          1763.10300	         7.36787e+57
          1763.90930	         7.78161e+57
          1764.71560	         8.43325e+57
          1765.52190	         7.76070e+57
          1766.32820	         8.26845e+57
          1767.13450	         8.40169e+57
          1767.94080	         7.01647e+57
          1768.74710	         6.93178e+57
          1769.55340	         7.01407e+57
          1770.35970	         7.46853e+57
          1771.16600	         7.96149e+57
          1771.97230	         7.71333e+57
          1772.77860	         8.75711e+57
          1773.58490	         8.34784e+57
          1774.39120	         6.78265e+57
          1775.19750	         5.92319e+57
          1776.00380	         6.98664e+57
          1776.81010	         6.67845e+57
          1777.61640	         6.12110e+57
          1778.42270	         6.78600e+57
          1779.22900	         7.79423e+57
          1780.03530	         6.80141e+57
          1780.84160	         7.04163e+57
          1781.64790	         8.73359e+57
          1782.45420	         7.84215e+57
          1783.26050	         7.17546e+57
          1784.06680	         6.55869e+57
          1784.87310	         6.59059e+57
          1785.67940	         7.07134e+57
          1786.48570	         6.90676e+57
          1787.29200	         6.48609e+57
          1788.09830	         7.00376e+57
          1788.90460	         6.38892e+57
          1789.71090	         5.42881e+57
          1790.51720	         5.19415e+57
          1791.32350	         7.65872e+57
          1792.12980	         9.79072e+57
          1792.93610	         8.32446e+57
          1793.74240	         8.00079e+57
          1794.54870	         8.53479e+57
          1795.35500	         8.59806e+57
          1796.16130	         7.29324e+57
          1796.96760	         6.83456e+57
          1797.77390	         7.18915e+57
          1798.58020	         7.12427e+57
          1799.38650	         6.82220e+57
          1800.19280	         6.60968e+57
          1800.99910	         7.05127e+57
          1801.80540	         7.56593e+57
          1802.61170	         7.45908e+57
          1803.41800	         7.76452e+57
          1804.22430	         7.72842e+57
          1805.03060	         6.29006e+57
          1805.83690	         6.88915e+57
          1806.64320	         8.54172e+57
          1807.44950	         7.97176e+57
          1808.25580	         6.38291e+57
          1809.06210	         6.65843e+57
          1809.86840	         6.90967e+57
          1810.67470	         7.63748e+57
          1811.48100	         9.04426e+57
          1812.28730	         8.42698e+57
          1813.09360	         7.40790e+57
          1813.89990	         7.32995e+57
          1814.70620	         8.02282e+57
          1815.51250	         8.14877e+57
          1816.31880	         8.76098e+57
          1817.12510	         7.89157e+57
          1817.93140	         7.19074e+57
          1818.73770	         7.38103e+57
          1819.54400	         8.29909e+57
          1820.35030	         8.60285e+57
          1821.15660	         6.43809e+57
          1821.96290	         6.64478e+57
          1822.76920	         7.96134e+57
          1823.57550	         7.59628e+57
          1824.38180	         6.96670e+57
          1825.18810	         7.52922e+57
          1825.99440	         8.16429e+57
          1826.80070	         7.91884e+57
          1827.60700	         6.67699e+57
          1828.41330	         6.19391e+57
          1829.21960	         6.64207e+57
          1830.02590	         7.56060e+57
          1830.83220	         8.07980e+57
          1831.63850	         6.98580e+57
          1832.44480	         6.73093e+57
          1833.25110	         7.64615e+57
          1834.05740	         9.08519e+57
          1834.86370	         7.17694e+57
          1835.67000	         5.36778e+57
          1836.47630	         6.33349e+57
          1837.28260	         8.51492e+57
          1838.08890	         9.75066e+57
          1838.89520	         9.63346e+57
          1839.70150	         8.47154e+57
          1840.50780	         7.06706e+57
          1841.31410	         6.61080e+57
          1842.12040	         6.82030e+57
          1842.92670	         7.49832e+57
          1843.73300	         7.06279e+57
          1844.53930	         6.65175e+57
          1845.34560	         6.82514e+57
          1846.15190	         7.09179e+57
          1846.95820	         7.75717e+57
          1847.76450	         7.44901e+57
          1848.57080	         6.18475e+57
          1849.37710	         6.48130e+57
          1850.18340	         6.76714e+57
          1850.98970	         7.28492e+57
          1851.79600	         7.43747e+57
          1852.60230	         7.09650e+57
          1853.40860	         6.67710e+57
          1854.21490	         6.44078e+57
          1855.02120	         6.11945e+57
          1855.82750	         5.50108e+57
          1856.63380	         5.89309e+57
          1857.44010	         7.35345e+57
          1858.24640	         7.44647e+57
          1859.05270	         6.63671e+57
          1859.85900	         5.05213e+57
          1860.66530	         5.80281e+57
          1861.47160	         6.94602e+57
          1862.27790	         6.88076e+57
          1863.08420	         7.53835e+57
          1863.89050	         8.39922e+57
          1864.69680	         7.85942e+57
          1865.50310	         7.72803e+57
          1866.30940	         6.41547e+57
          1867.11570	         6.02257e+57
          1867.92200	         7.34913e+57
          1868.72830	         8.08914e+57
          1869.53460	         8.17741e+57
          1870.34090	         7.68148e+57
          1871.14720	         7.90027e+57
          1871.95350	         6.93704e+57
          1872.75980	         6.13813e+57
          1873.56610	         6.35635e+57
          1874.37240	         6.02183e+57
          1875.17870	         5.68594e+57
          1875.98500	         7.27766e+57
          1876.79130	         8.22626e+57
          1877.59760	         8.02202e+57
          1878.40390	         6.89361e+57
          1879.21020	         6.29698e+57
          1880.01650	         6.65005e+57
          1880.82280	         8.52995e+57
          1881.62910	         8.62049e+57
          1882.43540	         9.96412e+57
          1883.24170	         8.26632e+57
          1884.04800	         7.08932e+57
          1884.85430	         7.75442e+57
          1885.66060	         7.69022e+57
          1886.46690	         8.22889e+57
          1887.27320	         6.73084e+57
          1888.07950	         6.20193e+57
          1888.88580	         6.87692e+57
          1889.69210	         7.94490e+57
          1890.49840	         7.65271e+57
          1891.30470	         7.74676e+57
          1892.11100	         8.85123e+57
          1892.91730	         9.12117e+57
          1893.72360	         7.93094e+57
          1894.52990	         7.85049e+57
          1895.33620	         8.01673e+57
          1896.14250	         6.90687e+57
          1896.94880	         5.87166e+57
          1897.75510	         4.04649e+57
          1898.56140	         4.52525e+57
          1899.36770	         5.60968e+57
          1900.17400	         6.61187e+57
          1900.98030	         7.22020e+57
          1901.78660	         7.22621e+57
          1902.59290	         7.24476e+57
          1903.39920	         8.18801e+57
          1904.20550	         9.60841e+57
          1905.01180	         9.78416e+57
          1905.81810	         9.65229e+57
          1906.62440	         1.12386e+58
          1907.43070	         1.43248e+58
          1908.23700	         1.55416e+58
          1909.04330	         1.36049e+58
          1909.84960	         1.10044e+58
          1910.65590	         1.01641e+58
          1911.46220	         1.02665e+58
          1912.26850	         8.45932e+57
          1913.07480	         6.07892e+57
          1913.88110	         5.40776e+57
          1914.68740	         5.92051e+57
          1915.49370	         6.19481e+57
          1916.30000	         6.80805e+57
          1917.10630	         7.10103e+57
          1917.91260	         7.17473e+57
          1918.71890	         6.61530e+57
          1919.52520	         5.40320e+57
          1920.33150	         5.51212e+57
          1921.13780	         7.52030e+57
          1921.94410	         8.27483e+57
          1922.75040	         6.59824e+57
          1923.55670	         7.08126e+57
          1924.36300	         7.22685e+57
          1925.16930	         6.44407e+57
          1925.97560	         5.71760e+57
          1926.78190	         5.59394e+57
          1927.58820	         5.93804e+57
          1928.39450	         6.91888e+57
          1929.20080	         6.42523e+57
          1930.00710	         7.30751e+57
          1930.81340	         7.51715e+57
          1931.61970	         7.37194e+57
          1932.42600	         7.16956e+57
          1933.23230	         8.16832e+57
          1934.03860	         6.71036e+57
          1934.84490	         5.13002e+57
          1935.65120	         7.23357e+57
          1936.45750	         7.17848e+57
          1937.26380	         6.11689e+57
          1938.07010	         7.80087e+57
          1938.87640	         8.72895e+57
          1939.68270	         8.82833e+57
          1940.48900	         7.80956e+57
          1941.29530	         8.54373e+57
          1942.10160	         8.28901e+57
          1942.90790	         5.84453e+57
          1943.71420	         6.20120e+57
          1944.52050	         6.17903e+57
          1945.32680	         5.29748e+57
          1946.13310	         7.81541e+57
          1946.93940	         8.19664e+57
          1947.74570	         6.91242e+57
          1948.55200	         5.28419e+57
          1949.35830	         5.92828e+57
          1950.16460	         5.61143e+57
          1950.97090	         6.11682e+57
          1951.77720	         7.76934e+57
          1952.58350	         7.84885e+57
          1953.38980	         6.60078e+57
          1954.19610	         5.14152e+57
          1955.00240	         6.24684e+57
          1955.80870	         5.90889e+57
          1956.61500	         6.31985e+57
          1957.42130	         5.60283e+57
          1958.22760	         6.16139e+57
          1959.03390	         6.67919e+57
          1959.84020	         6.84845e+57
          1960.64650	         7.03754e+57
          1961.45280	         5.87965e+57
          1962.25910	         5.68401e+57
          1963.06540	         6.53078e+57
          1963.87170	         5.99230e+57
          1964.67800	         6.12381e+57
          1965.48430	         6.09607e+57
          1966.29060	         7.10960e+57
          1967.09690	         8.51970e+57
          1967.90320	         7.08209e+57
          1968.70950	         6.91338e+57
          1969.51580	         6.48268e+57
          1970.32210	         7.25496e+57
          1971.12840	         6.55276e+57
          1971.93470	         4.79024e+57
          1972.74100	         5.55344e+57
          1973.54730	         7.23810e+57
          1974.35360	         7.89973e+57
          1975.15990	         7.86442e+57
          1975.96620	         6.73875e+57
          1976.77250	         7.38052e+57
          1977.57880	         7.37827e+57
          1978.38510	         6.23041e+57
          1979.19140	         7.51304e+57
          1979.99770	         8.68357e+57
          1980.80400	         7.80874e+57
          1981.61030	         7.24214e+57
          1982.41660	         5.95941e+57
          1983.22290	         5.48232e+57
          1984.02920	         5.60381e+57
          1984.83550	         5.49156e+57
          1985.64180	         6.22049e+57
          1986.44810	         6.33699e+57
          1987.25440	         5.77497e+57
          1988.06070	         5.09884e+57
          1988.86700	         5.88783e+57
          1989.67330	         6.84707e+57
          1990.47960	         6.69691e+57
          1991.28590	         6.16354e+57
          1992.09220	         5.56877e+57
          1992.89850	         6.41729e+57
          1993.70480	         5.43533e+57
          1994.51110	         3.39404e+57
          1995.31740	         4.38692e+57
          1996.12370	         5.34489e+57
          1996.93000	         7.03164e+57
          1997.73630	         7.97607e+57
          1998.54260	         8.36665e+57
          1999.34890	         7.84056e+57
          2000.15520	         6.87509e+57
          2000.96150	         6.60419e+57
          2001.76780	         5.93223e+57
          2002.57410	         5.55714e+57
          2003.38040	         7.24199e+57
          2004.18670	         7.27434e+57
          2004.99300	         5.79473e+57
          2005.79930	         7.05775e+57
          2006.60560	         5.79641e+57
          2007.41190	         6.03864e+57
          2008.21820	         6.98403e+57
          2009.02450	         6.56926e+57
          2009.83080	         5.45973e+57
          2010.63710	         5.92298e+57
          2011.44340	         7.21167e+57
          2012.24970	         7.50910e+57
          2013.05600	         6.31358e+57
          2013.86230	         5.04497e+57
          2014.66860	         5.09516e+57
          2015.47490	         6.19476e+57
          2016.28120	         5.52505e+57
          2017.08750	         5.93420e+57
          2017.89380	         7.14836e+57
          2018.70010	         6.80757e+57
          2019.50640	         6.34264e+57
          2020.31270	         6.66261e+57
          2021.11900	         6.56825e+57
          2021.92530	         7.74592e+57
          2022.73160	         7.98601e+57
          2023.53790	         6.91695e+57
          2024.34420	         5.28310e+57
          2025.15050	         4.46749e+57
          2025.95680	         6.22378e+57
          2026.76310	         6.65958e+57
          2027.56940	         5.95195e+57
          2028.37570	         6.23216e+57
          2029.18200	         7.10904e+57
          2029.98830	         6.05300e+57
          2030.79460	         6.00840e+57
          2031.60090	         5.84770e+57
          2032.40720	         5.08819e+57
          2033.21350	         5.55396e+57
          2034.01980	         5.28536e+57
          2034.82610	         4.49432e+57
          2035.63240	         4.60612e+57
          2036.43870	         4.93470e+57
          2037.24500	         6.15393e+57
          2038.05130	         6.21693e+57
          2038.85760	         5.20970e+57
          2039.66390	         4.61217e+57
          2040.47020	         5.40997e+57
          2041.27650	         6.10237e+57
          2042.08280	         5.70599e+57
          2042.88910	         5.88764e+57
          2043.69540	         5.32905e+57
          2044.50170	         5.70082e+57
          2045.30800	         6.81275e+57
          2046.11430	         5.72213e+57
          2046.92060	         5.72985e+57
          2047.72690	         7.12777e+57
          2048.53320	         5.98653e+57
          2049.33950	         5.03659e+57
          2050.14580	         5.44496e+57
          2050.95210	         7.14364e+57
          2051.75840	         7.33743e+57
          2052.56470	         5.61142e+57
          2053.37100	         3.97898e+57
          2054.17730	         3.99322e+57
          2054.98360	         5.11205e+57
          2055.78990	         3.87196e+57
          2056.59620	         2.20645e+57
          2057.40250	         5.18622e+57
          2058.20880	         6.79583e+57
          2059.01510	         6.59215e+57
          2059.82140	         7.76865e+57
          2060.62770	         9.23617e+57
          2061.43400	         1.47800e+58
          2062.24030	         1.12643e+58
          2063.04660	         4.07539e+57
          2063.85290	         2.55711e+56
          2064.65920	        -2.01597e+57
          2065.46550	        -8.04470e+57
          2066.27180	        -8.74954e+57
          2067.07810	         2.80744e+57
          2067.88440	         5.01741e+57
          2068.69070	         6.73008e+57
          2069.49700	         5.20300e+57
          2070.30330	         5.28377e+57
          2071.10960	         3.03601e+57
          2071.91590	         5.83339e+57
          2072.72220	         5.54817e+57
          2073.52850	         6.34783e+57
          2074.33480	         5.69358e+57
          2075.14110	         5.36971e+57
          2075.94740	         6.49137e+57
          2076.75370	         5.15782e+57
          2077.56000	         3.88333e+57
          2078.36630	         4.90646e+57
          2079.17260	         5.32478e+57
          2079.97890	         5.38510e+57
          2080.78520	         5.19040e+57
          2081.59150	         4.69394e+57
          2082.39780	         4.72211e+57
          2083.20410	         3.11921e+57
          2084.01040	         2.79720e+57
          2084.81670	         3.92506e+57
          2085.62300	         3.83810e+57
          2086.42930	         2.69998e+57
          2087.23560	         3.82553e+57
          2088.04190	         3.48886e+57
          2088.84820	         4.34261e+57
          2089.65450	         3.54999e+57
          2090.46080	         2.50723e+57
          2091.26710	         1.39623e+57
          2092.07340	         2.72091e+57
          2092.87970	         3.32684e+57
          2093.68600	        -1.90803e+57
          2094.49230	         9.03111e+56
          2095.29860	         5.89429e+57
          2096.10490	         6.23058e+57
          2096.91120	         5.14895e+57
          2097.71750	         2.83753e+57
          2098.52380	         1.84411e+57
          2099.33010	         2.66432e+57
          2100.13640	         1.98808e+57
          2100.94270	         1.95213e+57
          2101.74900	         2.46921e+57
          2102.55530	         2.34693e+57
          2103.36160	         2.30415e+57
          2104.16790	         3.95916e+57
          2104.97420	         3.22856e+57
          2105.78050	         5.34071e+56
          2106.58680	        -2.65306e+56
          2107.39310	        -1.00624e+57
          2108.19940	         1.17280e+57
          2109.00570	         1.67053e+57
          2109.81200	         7.10968e+56
          2110.61830	         1.89153e+57
          2111.42460	         1.30495e+57
          2112.23090	        -1.15939e+57
          2113.03720	        -5.82229e+56
          2113.84350	        -2.07862e+56
          2114.64980	         8.74267e+56
          2115.45610	         7.22872e+56
          2116.26240	        -3.57498e+57
          2117.06870	         8.93113e+56
          2117.87500	        -2.90204e+57
          2118.68130	         1.56859e+57
          2119.48760	         4.52991e+57
          2120.29390	         3.50407e+57
          2121.10020	        -1.79569e+57
          2121.90650	        -6.84997e+56
          2122.71280	        -7.44076e+56
          2123.51910	         4.92277e+57
          2124.32540	         8.77344e+57
          2125.13170	        -7.17351e+56
          2125.93800	        -4.33392e+55
          2126.74430	        -6.07487e+57
          2127.55060	        -6.19428e+57
          2128.35690	        -6.42845e+57
          2129.16320	        -7.20653e+57
          2129.96950	         3.46670e+57
          2130.77580	         4.50259e+57
          2131.58210	         3.70867e+57
          2132.38840	         1.83544e+57
          2133.19470	        -2.96994e+57
          2134.00100	        -1.19438e+57
          2134.80730	         1.81776e+57
          2135.61360	         6.76187e+57
          2136.41990	         3.20407e+57
          2137.22620	         9.13631e+57
          2138.03250	        -9.75013e+56
          2138.83880	        -5.85409e+57
          2139.64510	        -1.95073e+57
          2140.45140	        -1.91883e+57
          2141.25770	        -1.31434e+58
          2142.06400	        -1.37700e+58
          2142.87030	         2.42317e+57
          2143.67660	         9.08290e+57
          2144.48290	         5.22839e+56
          2145.28920	         2.53538e+57
          2146.09550	        -9.14096e+57
          2146.90180	        -8.68812e+57
          2147.70810	         1.69583e+56
          2148.51440	        -1.96597e+57
          2149.32070	        -1.05051e+58
          2150.12700	        -6.92260e+57
          2150.93330	        -3.85942e+57
          2151.73960	        -3.70186e+56
          2152.54590	        -4.73247e+57
          2153.35220	        -6.91984e+57
          2154.15850	        -2.78570e+57
          2154.96480	        -4.52932e+57
          2155.77110	        -1.17086e+58
          2156.57740	        -1.78261e+58
          2157.38370	         2.41840e+57
          2158.19000	         3.10987e+57
          2158.99630	        -5.19841e+57
          2159.80260	        -1.44851e+58
          2160.60890	        -1.24352e+58
          2161.41520	        -7.17785e+57
          2162.22150	        -6.57670e+57
          2163.02780	        -5.42105e+56
          2163.83410	        -4.43754e+57
          2164.64040	        -5.02170e+57
          2165.44670	        -6.22479e+57
          2166.25300	        -1.86186e+57
          2167.05930	         6.12994e+57
          2167.86560	         3.12057e+57
          2168.67190	         2.43401e+57
          2169.47820	         3.83237e+56
          2170.28450	        -6.64477e+57
          2171.09080	        -5.78155e+57
          2171.89710	        -7.26322e+57
          2172.70340	        -1.67810e+57
          2173.50970	        -7.40913e+57
          2174.31600	        -2.26425e+57
          2175.12230	        -1.34143e+57
          2175.92860	        -5.77566e+57
          2176.73490	        -3.90244e+57
          2177.54120	        -7.00527e+57
          2178.34750	        -3.61684e+57
          2179.15380	                 nan
          2179.96010	                 nan
          2180.76640	                 nan
          2181.57270	                 nan
          2182.37900	                 nan
          2183.18530	                 nan
          2183.99160	                 nan
          2184.79790	                 nan
          2185.60420	                 nan
          2186.41050	                 nan
          2187.21680	                 nan
          2188.02310	                 nan
          2188.82940	                 nan
          2189.63570	                 nan
          2190.44200	                 nan
          2191.24830	                 nan
          2192.05460	                 nan
          2192.86090	                 nan
          2193.66720	                 nan
          2194.47350	                 nan
          2195.27980	                 nan
          2196.08610	                 nan
          2196.89240	                 nan
          2197.69870	                 nan
          2198.50500	                 nan
          2199.31130	                 nan
          2200.11760	                 nan
          2200.92390	                 nan
          2201.73020	                 nan
          2202.53650	                 nan
          2203.34280	                 nan
          2204.14910	                 nan
          2204.95540	                 nan
          2205.76170	                 nan
          2206.56800	                 nan
          2207.37430	                 nan
          2208.18060	                 nan
          2208.98690	                 nan
          2209.79320	                 nan
          2210.59950	                 nan
          2211.40580	                 nan
          2212.21210	                 nan
          2213.01840	                 nan
          2213.82470	                 nan
          2214.63100	                 nan
          2215.43730	         0.00000e+00
