#sample_260_stacked_spectrum_rest_UV-bands_median_H-alpha_noDC.txt
#median Lum: 1.67439e+42
#Rest-frame wavelength (A) | Luminosity (erg/s/A)
#
          1110.00000	         0.00000e+00
          1110.80630	        -4.94762e+59
          1111.61260	         9.05444e+58
          1112.41890	         3.19315e+59
          1113.22520	         5.58732e+58
          1114.03150	         1.66973e+59
          1114.83780	         1.46212e+59
          1115.64410	         2.17351e+59
          1116.45040	         1.27328e+59
          1117.25670	         8.53609e+58
          1118.06300	         7.34767e+58
          1118.86930	        -5.64488e+58
          1119.67560	         5.76317e+58
          1120.48190	        -5.47198e+58
          1121.28820	        -1.56599e+59
          1122.09450	         9.04982e+57
          1122.90080	         3.29312e+58
          1123.70710	         4.93365e+57
          1124.51340	         2.51749e+58
          1125.31970	        -1.75080e+58
          1126.12600	         9.35057e+57
          1126.93230	        -7.47832e+58
          1127.73860	        -5.39828e+58
          1128.54490	        -6.96396e+57
          1129.35120	         1.36367e+58
          1130.15750	        -3.37837e+58
          1130.96380	        -1.61971e+58
          1131.77010	         3.51544e+58
          1132.57640	         3.93351e+58
          1133.38270	         3.31766e+58
          1134.18900	         2.36565e+58
          1134.99530	         4.22023e+56
          1135.80160	         8.40619e+57
          1136.60790	         2.01753e+58
          1137.41420	        -1.80616e+58
          1138.22050	         2.94322e+58
          1139.02680	         3.96953e+58
          1139.83310	         2.15520e+58
          1140.63940	         1.72922e+58
          1141.44570	        -1.14929e+58
          1142.25200	        -6.64366e+57
          1143.05830	         7.11207e+57
          1143.86460	         2.10097e+58
          1144.67090	         4.24480e+58
          1145.47720	         1.10152e+58
          1146.28350	         8.86680e+57
          1147.08980	         8.80855e+57
          1147.89610	         3.24348e+58
          1148.70240	         4.06031e+58
          1149.50870	         2.80403e+58
          1150.31500	         1.94693e+58
          1151.12130	         1.23594e+58
          1151.92760	         1.85979e+57
          1152.73390	         7.44300e+57
          1153.54020	         9.28179e+57
          1154.34650	         1.99594e+58
          1155.15280	         1.97479e+58
          1155.95910	         5.93072e+57
          1156.76540	        -1.76202e+57
          1157.57170	        -3.78903e+57
          1158.37800	        -1.98299e+57
          1159.18430	        -4.00908e+57
          1159.99060	         2.43833e+57
          1160.79690	        -2.64051e+57
          1161.60320	         5.65902e+57
          1162.40950	         1.69355e+58
          1163.21580	         1.37564e+58
          1164.02210	         1.43561e+58
          1164.82840	         1.35137e+58
          1165.63470	         3.00754e+58
          1166.44100	         3.46433e+58
          1167.24730	         1.96988e+58
          1168.05360	         1.27067e+58
          1168.85990	         1.20980e+58
          1169.66620	         1.03263e+58
          1170.47250	         7.66201e+57
          1171.27880	         1.35737e+58
          1172.08510	         2.33640e+58
          1172.89140	         1.26159e+58
          1173.69770	         7.36316e+57
          1174.50400	         1.13387e+58
          1175.31030	         1.87965e+58
          1176.11660	         1.95390e+58
          1176.92290	         1.30268e+58
          1177.72920	         1.03083e+58
          1178.53550	         2.48916e+57
          1179.34180	        -1.46561e+57
          1180.14810	         5.32141e+57
          1180.95440	         9.53571e+57
          1181.76070	         1.11546e+58
          1182.56700	         9.05078e+57
          1183.37330	         5.22261e+57
          1184.17960	         1.19855e+58
          1184.98590	         1.18624e+58
          1185.79220	         9.87862e+57
          1186.59850	         1.53934e+58
          1187.40480	         1.02050e+58
          1188.21110	         1.56274e+58
          1189.01740	         1.15598e+58
          1189.82370	         6.70469e+57
          1190.63000	         9.33877e+57
          1191.43630	         1.29207e+58
          1192.24260	         8.21852e+57
          1193.04890	         1.20862e+58
          1193.85520	         1.17643e+58
          1194.66150	         7.64058e+57
          1195.46780	         1.48726e+58
          1196.27410	         1.29652e+58
          1197.08040	         7.69106e+57
          1197.88670	         1.37619e+58
          1198.69300	         1.77999e+58
          1199.49930	         1.60314e+58
          1200.30560	         8.25940e+57
          1201.11190	         9.20089e+57
          1201.91820	         1.11086e+58
          1202.72450	         9.41497e+57
          1203.53080	         1.41980e+58
          1204.33710	         6.35975e+57
          1205.14340	         8.65124e+57
          1205.94970	         6.52978e+57
          1206.75600	         5.91455e+57
          1207.56230	         6.38103e+57
          1208.36860	         9.00899e+57
          1209.17490	         4.60495e+57
          1209.98120	         8.42549e+57
          1210.78750	         8.42250e+57
          1211.59380	         8.73335e+57
          1212.40010	         1.83617e+58
          1213.20640	         1.80043e+58
          1214.01270	         2.07848e+58
          1214.81900	         2.85923e+58
          1215.62530	         4.65837e+58
          1216.43160	         9.21204e+58
          1217.23790	         1.46093e+59
          1218.04420	         1.10511e+59
          1218.85050	         8.25091e+58
          1219.65680	         5.46543e+58
          1220.46310	         3.02944e+58
          1221.26940	         2.01606e+58
          1222.07570	         1.51137e+58
          1222.88200	         1.24946e+58
          1223.68830	         7.60326e+57
          1224.49460	         7.54353e+57
          1225.30090	         6.92970e+57
          1226.10720	         6.24370e+57
          1226.91350	         5.46473e+57
          1227.71980	         5.03533e+57
          1228.52610	         7.91913e+57
          1229.33240	         7.30702e+57
          1230.13870	         6.98272e+57
          1230.94500	         6.42395e+57
          1231.75130	         5.75725e+57
          1232.55760	         9.72737e+57
          1233.36390	         7.88390e+57
          1234.17020	         1.00431e+58
          1234.97650	         6.82835e+57
          1235.78280	         4.93534e+57
          1236.58910	         6.98502e+57
          1237.39540	         8.09484e+57
          1238.20170	         9.15273e+57
          1239.00800	         1.22618e+58
          1239.81430	         1.31306e+58
          1240.62060	         1.16748e+58
          1241.42690	         8.96390e+57
          1242.23320	         9.75050e+57
          1243.03950	         7.55746e+57
          1243.84580	         8.79632e+57
          1244.65210	         9.33957e+57
          1245.45840	         9.14006e+57
          1246.26470	         9.26289e+57
          1247.07100	         8.93763e+57
          1247.87730	         5.38427e+57
          1248.68360	         2.26659e+57
          1249.48990	         5.41087e+57
          1250.29620	         8.50192e+57
          1251.10250	         8.25383e+57
          1251.90880	         4.12886e+57
          1252.71510	         4.00915e+57
          1253.52140	         5.25849e+57
          1254.32770	         7.16659e+57
          1255.13400	         1.04578e+58
          1255.94030	         1.15685e+58
          1256.74660	         1.04655e+58
          1257.55290	         1.00083e+58
          1258.35920	         6.51119e+57
          1259.16550	         4.66623e+57
          1259.97180	         5.27196e+57
          1260.77810	         7.74584e+57
          1261.58440	         8.47914e+57
          1262.39070	         6.37106e+57
          1263.19700	         8.12291e+57
          1264.00330	         9.25552e+57
          1264.80960	         1.14097e+58
          1265.61590	         1.31741e+58
          1266.42220	         1.19421e+58
          1267.22850	         1.03155e+58
          1268.03480	         1.51599e+58
          1268.84110	         1.63891e+58
          1269.64740	         1.42098e+58
          1270.45370	         1.38545e+58
          1271.26000	         1.11167e+58
          1272.06630	         1.00487e+58
          1272.87260	         9.43375e+57
          1273.67890	         1.15654e+58
          1274.48520	         1.05707e+58
          1275.29150	         1.26831e+58
          1276.09780	         1.30737e+58
          1276.90410	         1.20126e+58
          1277.71040	         1.16669e+58
          1278.51670	         1.28636e+58
          1279.32300	         1.34240e+58
          1280.12930	         1.09379e+58
          1280.93560	         1.06212e+58
          1281.74190	         1.20675e+58
          1282.54820	         1.26997e+58
          1283.35450	         1.09876e+58
          1284.16080	         1.16832e+58
          1284.96710	         1.49862e+58
          1285.77340	         1.50791e+58
          1286.57970	         1.15275e+58
          1287.38600	         1.17227e+58
          1288.19230	         1.62514e+58
          1288.99860	         1.47712e+58
          1289.80490	         1.17638e+58
          1290.61120	         1.27604e+58
          1291.41750	         1.47456e+58
          1292.22380	         1.37683e+58
          1293.03010	         1.10692e+58
          1293.83640	         1.22721e+58
          1294.64270	         9.74598e+57
          1295.44900	         5.98660e+57
          1296.25530	         7.14637e+57
          1297.06160	         1.07313e+58
          1297.86790	         1.21233e+58
          1298.67420	         9.31766e+57
          1299.48050	         8.58776e+57
          1300.28680	         1.07976e+58
          1301.09310	         8.41786e+57
          1301.89940	         4.01734e+57
          1302.70570	         6.16666e+57
          1303.51200	         6.97747e+57
          1304.31830	         9.61344e+57
          1305.12460	         1.07867e+58
          1305.93090	         1.02289e+58
          1306.73720	         1.11233e+58
          1307.54350	         1.35478e+58
          1308.34980	         1.53215e+58
          1309.15610	         1.52691e+58
          1309.96240	         1.50464e+58
          1310.76870	         1.08678e+58
          1311.57500	         8.57621e+57
          1312.38130	         1.02158e+58
          1313.18760	         1.28686e+58
          1313.99390	         1.37999e+58
          1314.80020	         1.47009e+58
          1315.60650	         1.51309e+58
          1316.41280	         1.40675e+58
          1317.21910	         1.10241e+58
          1318.02540	         1.12088e+58
          1318.83170	         1.29390e+58
          1319.63800	         1.23770e+58
          1320.44430	         1.22983e+58
          1321.25060	         1.20279e+58
          1322.05690	         1.14625e+58
          1322.86320	         1.20484e+58
          1323.66950	         1.10662e+58
          1324.47580	         8.52107e+57
          1325.28210	         8.56695e+57
          1326.08840	         9.53878e+57
          1326.89470	         1.10335e+58
          1327.70100	         1.06900e+58
          1328.50730	         8.21456e+57
          1329.31360	         8.68032e+57
          1330.11990	         9.82759e+57
          1330.92620	         7.80451e+57
          1331.73250	         1.01787e+58
          1332.53880	         1.03242e+58
          1333.34510	         8.03319e+57
          1334.15140	         8.03160e+57
          1334.95770	         8.29995e+57
          1335.76400	         1.00603e+58
          1336.57030	         1.00436e+58
          1337.37660	         9.18204e+57
          1338.18290	         1.09871e+58
          1338.98920	         1.20226e+58
          1339.79550	         1.16630e+58
          1340.60180	         1.15036e+58
          1341.40810	         1.13677e+58
          1342.21440	         1.21330e+58
          1343.02070	         1.14895e+58
          1343.82700	         1.22431e+58
          1344.63330	         1.13867e+58
          1345.43960	         1.13086e+58
          1346.24590	         1.10188e+58
          1347.05220	         1.17745e+58
          1347.85850	         1.07358e+58
          1348.66480	         1.22853e+58
          1349.47110	         1.13639e+58
          1350.27740	         1.07356e+58
          1351.08370	         1.10791e+58
          1351.89000	         1.11576e+58
          1352.69630	         1.03343e+58
          1353.50260	         1.08320e+58
          1354.30890	         1.16299e+58
          1355.11520	         1.14829e+58
          1355.92150	         1.00031e+58
          1356.72780	         8.95545e+57
          1357.53410	         8.76146e+57
          1358.34040	         9.81938e+57
          1359.14670	         9.93379e+57
          1359.95300	         1.10060e+58
          1360.75930	         1.02416e+58
          1361.56560	         1.04547e+58
          1362.37190	         1.13271e+58
          1363.17820	         1.03827e+58
          1363.98450	         1.17198e+58
          1364.79080	         1.15836e+58
          1365.59710	         1.24727e+58
          1366.40340	         1.15330e+58
          1367.20970	         9.53794e+57
          1368.01600	         9.76840e+57
          1368.82230	         1.01273e+58
          1369.62860	         9.60412e+57
          1370.43490	         8.63752e+57
          1371.24120	         9.09872e+57
          1372.04750	         7.86193e+57
          1372.85380	         9.51207e+57
          1373.66010	         9.90215e+57
          1374.46640	         9.95518e+57
          1375.27270	         1.11730e+58
          1376.07900	         9.25641e+57
          1376.88530	         9.74939e+57
          1377.69160	         8.93165e+57
          1378.49790	         6.57726e+57
          1379.30420	         7.58075e+57
          1380.11050	         8.93368e+57
          1380.91680	         9.03671e+57
          1381.72310	         8.77489e+57
          1382.52940	         8.25234e+57
          1383.33570	         9.69697e+57
          1384.14200	         1.08210e+58
          1384.94830	         1.03283e+58
          1385.75460	         1.04555e+58
          1386.56090	         1.12614e+58
          1387.36720	         1.00153e+58
          1388.17350	         1.23338e+58
          1388.97980	         1.04682e+58
          1389.78610	         8.23018e+57
          1390.59240	         8.88700e+57
          1391.39870	         6.53695e+57
          1392.20500	         7.46293e+57
          1393.01130	         8.39768e+57
          1393.81760	         7.31208e+57
          1394.62390	         7.02947e+57
          1395.43020	         6.60858e+57
          1396.23650	         7.22307e+57
          1397.04280	         6.34805e+57
          1397.84910	         7.15836e+57
          1398.65540	         8.47316e+57
          1399.46170	         8.78832e+57
          1400.26800	         7.71208e+57
          1401.07430	         7.43945e+57
          1401.88060	         8.56193e+57
          1402.68690	         9.47020e+57
          1403.49320	         9.21549e+57
          1404.29950	         8.88416e+57
          1405.10580	         1.09662e+58
          1405.91210	         1.16617e+58
          1406.71840	         1.07039e+58
          1407.52470	         1.05037e+58
          1408.33100	         9.46634e+57
          1409.13730	         1.02694e+58
          1409.94360	         1.13921e+58
          1410.74990	         1.09255e+58
          1411.55620	         8.80542e+57
          1412.36250	         8.27991e+57
          1413.16880	         8.58545e+57
          1413.97510	         8.44725e+57
          1414.78140	         9.65346e+57
          1415.58770	         1.18813e+58
          1416.39400	         1.16535e+58
          1417.20030	         1.11191e+58
          1418.00660	         9.94071e+57
          1418.81290	         9.50865e+57
          1419.61920	         9.08851e+57
          1420.42550	         1.15318e+58
          1421.23180	         1.17384e+58
          1422.03810	         1.06623e+58
          1422.84440	         1.05556e+58
          1423.65070	         1.19452e+58
          1424.45700	         1.07958e+58
          1425.26330	         8.75996e+57
          1426.06960	         9.53713e+57
          1426.87590	         9.11350e+57
          1427.68220	         8.39607e+57
          1428.48850	         1.00954e+58
          1429.29480	         9.85161e+57
          1430.10110	         9.51804e+57
          1430.90740	         8.65410e+57
          1431.71370	         8.23035e+57
          1432.52000	         8.15355e+57
          1433.32630	         7.10555e+57
          1434.13260	         7.46591e+57
          1434.93890	         8.03748e+57
          1435.74520	         8.58305e+57
          1436.55150	         8.97422e+57
          1437.35780	         8.78885e+57
          1438.16410	         8.68475e+57
          1438.97040	         7.92666e+57
          1439.77670	         7.60902e+57
          1440.58300	         9.07764e+57
          1441.38930	         9.63565e+57
          1442.19560	         8.77020e+57
          1443.00190	         9.12696e+57
          1443.80820	         1.02023e+58
          1444.61450	         1.03391e+58
          1445.42080	         8.48487e+57
          1446.22710	         8.49709e+57
          1447.03340	         8.84998e+57
          1447.83970	         1.00020e+58
          1448.64600	         9.62958e+57
          1449.45230	         8.70288e+57
          1450.25860	         1.03200e+58
          1451.06490	         9.21691e+57
          1451.87120	         7.70623e+57
          1452.67750	         7.27244e+57
          1453.48380	         7.74135e+57
          1454.29010	         7.27372e+57
          1455.09640	         7.50824e+57
          1455.90270	         8.53435e+57
          1456.70900	         8.92540e+57
          1457.51530	         9.49794e+57
          1458.32160	         1.16269e+58
          1459.12790	         1.11115e+58
          1459.93420	         8.75948e+57
          1460.74050	         7.15965e+57
          1461.54680	         7.88114e+57
          1462.35310	         8.29468e+57
          1463.15940	         8.99187e+57
          1463.96570	         1.05229e+58
          1464.77200	         1.02356e+58
          1465.57830	         9.55968e+57
          1466.38460	         8.66837e+57
          1467.19090	         7.94142e+57
          1467.99720	         8.93688e+57
          1468.80350	         9.33249e+57
          1469.60980	         9.09517e+57
          1470.41610	         1.06486e+58
          1471.22240	         9.73769e+57
          1472.02870	         9.43985e+57
          1472.83500	         9.81470e+57
          1473.64130	         9.60395e+57
          1474.44760	         9.12106e+57
          1475.25390	         8.83904e+57
          1476.06020	         8.70050e+57
          1476.86650	         8.57419e+57
          1477.67280	         8.29653e+57
          1478.47910	         7.53370e+57
          1479.28540	         7.66058e+57
          1480.09170	         7.72183e+57
          1480.89800	         8.73119e+57
          1481.70430	         9.05923e+57
          1482.51060	         7.89110e+57
          1483.31690	         7.70605e+57
          1484.12320	         6.31538e+57
          1484.92950	         6.83273e+57
          1485.73580	         8.08882e+57
          1486.54210	         8.79948e+57
          1487.34840	         8.64506e+57
          1488.15470	         8.20799e+57
          1488.96100	         8.51175e+57
          1489.76730	         7.56432e+57
          1490.57360	         7.24571e+57
          1491.37990	         6.94731e+57
          1492.18620	         7.79321e+57
          1492.99250	         7.72317e+57
          1493.79880	         6.94545e+57
          1494.60510	         7.59653e+57
          1495.41140	         7.57371e+57
          1496.21770	         8.49995e+57
          1497.02400	         1.01747e+58
          1497.83030	         8.39872e+57
          1498.63660	         7.37666e+57
          1499.44290	         7.46011e+57
          1500.24920	         7.66814e+57
          1501.05550	         7.94632e+57
          1501.86180	         8.79615e+57
          1502.66810	         9.71757e+57
          1503.47440	         8.95750e+57
          1504.28070	         8.21962e+57
          1505.08700	         8.17565e+57
          1505.89330	         8.59512e+57
          1506.69960	         8.12337e+57
          1507.50590	         8.26014e+57
          1508.31220	         8.33114e+57
          1509.11850	         7.47749e+57
          1509.92480	         8.07002e+57
          1510.73110	         9.13343e+57
          1511.53740	         7.60567e+57
          1512.34370	         6.40822e+57
          1513.15000	         8.27339e+57
          1513.95630	         9.57979e+57
          1514.76260	         8.81860e+57
          1515.56890	         7.52449e+57
          1516.37520	         8.39783e+57
          1517.18150	         8.66298e+57
          1517.98780	         7.43486e+57
          1518.79410	         6.21289e+57
          1519.60040	         6.73806e+57
          1520.40670	         8.88598e+57
          1521.21300	         9.07588e+57
          1522.01930	         8.02993e+57
          1522.82560	         9.48556e+57
          1523.63190	         1.03662e+58
          1524.43820	         8.07289e+57
          1525.24450	         6.21881e+57
          1526.05080	         6.17590e+57
          1526.85710	         6.62706e+57
          1527.66340	         6.92376e+57
          1528.46970	         8.04407e+57
          1529.27600	         8.06523e+57
          1530.08230	         7.70298e+57
          1530.88860	         6.83536e+57
          1531.69490	         6.70765e+57
          1532.50120	         8.67191e+57
          1533.30750	         9.61729e+57
          1534.11380	         9.19443e+57
          1534.92010	         8.80392e+57
          1535.72640	         8.79461e+57
          1536.53270	         9.10891e+57
          1537.33900	         8.28510e+57
          1538.14530	         8.43333e+57
          1538.95160	         9.45622e+57
          1539.75790	         8.82331e+57
          1540.56420	         7.43970e+57
          1541.37050	         7.53522e+57
          1542.17680	         6.35281e+57
          1542.98310	         5.97856e+57
          1543.78940	         6.76807e+57
          1544.59570	         6.17660e+57
          1545.40200	         7.80304e+57
          1546.20830	         9.51300e+57
          1547.01460	         9.97313e+57
          1547.82090	         1.13306e+58
          1548.62720	         1.24638e+58
          1549.43350	         1.22887e+58
          1550.23980	         1.12836e+58
          1551.04610	         1.15642e+58
          1551.85240	         1.12993e+58
          1552.65870	         1.02192e+58
          1553.46500	         1.03286e+58
          1554.27130	         1.05544e+58
          1555.07760	         9.03776e+57
          1555.88390	         8.22447e+57
          1556.69020	         8.84358e+57
          1557.49650	         8.99498e+57
          1558.30280	         8.59947e+57
          1559.10910	         8.46014e+57
          1559.91540	         8.78844e+57
          1560.72170	         8.22404e+57
          1561.52800	         7.72044e+57
          1562.33430	         8.07622e+57
          1563.14060	         7.64705e+57
          1563.94690	         7.71971e+57
          1564.75320	         8.77297e+57
          1565.55950	         7.81295e+57
          1566.36580	         7.80207e+57
          1567.17210	         9.25453e+57
          1567.97840	         9.33104e+57
          1568.78470	         8.38122e+57
          1569.59100	         8.23393e+57
          1570.39730	         7.55412e+57
          1571.20360	         6.93798e+57
          1572.00990	         7.65262e+57
          1572.81620	         8.10858e+57
          1573.62250	         9.38753e+57
          1574.42880	         8.51296e+57
          1575.23510	         7.40563e+57
          1576.04140	         7.95344e+57
          1576.84770	         8.36189e+57
          1577.65400	         8.56913e+57
          1578.46030	         9.60520e+57
          1579.26660	         9.99113e+57
          1580.07290	         8.97586e+57
          1580.87920	         7.75028e+57
          1581.68550	         8.10284e+57
          1582.49180	         8.46493e+57
          1583.29810	         7.64498e+57
          1584.10440	         8.25971e+57
          1584.91070	         7.91488e+57
          1585.71700	         8.34618e+57
          1586.52330	         8.26653e+57
          1587.32960	         8.01290e+57
          1588.13590	         8.72832e+57
          1588.94220	         7.88677e+57
          1589.74850	         8.07656e+57
          1590.55480	         8.32473e+57
          1591.36110	         7.76448e+57
          1592.16740	         7.92322e+57
          1592.97370	         8.37517e+57
          1593.78000	         8.62691e+57
          1594.58630	         8.61260e+57
          1595.39260	         8.05561e+57
          1596.19890	         8.20661e+57
          1597.00520	         9.14177e+57
          1597.81150	         8.26551e+57
          1598.61780	         6.14053e+57
          1599.42410	         6.25915e+57
          1600.23040	         6.12642e+57
          1601.03670	         6.93860e+57
          1601.84300	         6.96637e+57
          1602.64930	         8.32359e+57
          1603.45560	         8.60349e+57
          1604.26190	         7.19808e+57
          1605.06820	         7.32834e+57
          1605.87450	         7.67450e+57
          1606.68080	         6.95193e+57
          1607.48710	         5.63149e+57
          1608.29340	         5.62128e+57
          1609.09970	         5.70389e+57
          1609.90600	         6.51298e+57
          1610.71230	         7.57468e+57
          1611.51860	         6.50815e+57
          1612.32490	         6.40182e+57
          1613.13120	         7.85288e+57
          1613.93750	         8.01893e+57
          1614.74380	         8.41267e+57
          1615.55010	         8.76623e+57
          1616.35640	         8.13500e+57
          1617.16270	         8.72393e+57
          1617.96900	         9.18262e+57
          1618.77530	         7.93810e+57
          1619.58160	         7.85116e+57
          1620.38790	         8.10641e+57
          1621.19420	         8.30043e+57
          1622.00050	         6.93948e+57
          1622.80680	         7.20241e+57
          1623.61310	         8.40026e+57
          1624.41940	         8.15227e+57
          1625.22570	         8.59747e+57
          1626.03200	         8.59794e+57
          1626.83830	         8.32538e+57
          1627.64460	         7.37971e+57
          1628.45090	         7.10483e+57
          1629.25720	         9.18856e+57
          1630.06350	         9.79970e+57
          1630.86980	         5.84710e+57
          1631.67610	         6.08209e+57
          1632.48240	         8.23111e+57
          1633.28870	         8.52808e+57
          1634.09500	         8.22812e+57
          1634.90130	         1.04427e+58
          1635.70760	         9.68236e+57
          1636.51390	         8.29782e+57
          1637.32020	         7.61956e+57
          1638.12650	         8.79989e+57
          1638.93280	         9.40607e+57
          1639.73910	         1.02226e+58
          1640.54540	         1.02414e+58
          1641.35170	         8.38853e+57
          1642.15800	         8.05949e+57
          1642.96430	         8.00106e+57
          1643.77060	         8.10790e+57
          1644.57690	         7.64167e+57
          1645.38320	         8.19464e+57
          1646.18950	         7.95328e+57
          1646.99580	         8.27484e+57
          1647.80210	         7.41745e+57
          1648.60840	         7.61713e+57
          1649.41470	         8.23133e+57
          1650.22100	         7.90443e+57
          1651.02730	         7.13357e+57
          1651.83360	         7.24671e+57
          1652.63990	         7.74706e+57
          1653.44620	         8.94486e+57
          1654.25250	         8.15805e+57
          1655.05880	         6.91293e+57
          1655.86510	         7.53304e+57
          1656.67140	         7.18316e+57
          1657.47770	         6.85071e+57
          1658.28400	         8.15678e+57
          1659.09030	         8.81591e+57
          1659.89660	         9.26476e+57
          1660.70290	         9.76337e+57
          1661.50920	         8.93631e+57
          1662.31550	         7.84928e+57
          1663.12180	         8.42111e+57
          1663.92810	         8.69117e+57
          1664.73440	         9.48163e+57
          1665.54070	         1.11690e+58
          1666.34700	         1.19619e+58
          1667.15330	         1.13317e+58
          1667.95960	         8.77423e+57
          1668.76590	         7.50391e+57
          1669.57220	         7.34384e+57
          1670.37850	         7.45490e+57
          1671.18480	         7.24618e+57
          1671.99110	         7.14573e+57
          1672.79740	         7.67428e+57
          1673.60370	         7.33076e+57
          1674.41000	         6.11927e+57
          1675.21630	         5.96446e+57
          1676.02260	         6.67184e+57
          1676.82890	         6.14408e+57
          1677.63520	         5.63692e+57
          1678.44150	         6.99677e+57
          1679.24780	         7.19692e+57
          1680.05410	         6.98664e+57
          1680.86040	         5.70998e+57
          1681.66670	         5.89901e+57
          1682.47300	         7.00661e+57
          1683.27930	         6.56594e+57
          1684.08560	         7.88952e+57
          1684.89190	         7.71642e+57
          1685.69820	         5.19451e+57
          1686.50450	         4.89850e+57
          1687.31080	         5.76893e+57
          1688.11710	         6.34530e+57
          1688.92340	         5.95783e+57
          1689.72970	         6.05173e+57
          1690.53600	         6.40501e+57
          1691.34230	         7.78238e+57
          1692.14860	         7.49638e+57
          1692.95490	         6.89108e+57
          1693.76120	         7.10934e+57
          1694.56750	         6.93740e+57
          1695.37380	         8.24256e+57
          1696.18010	         8.51406e+57
          1696.98640	         8.27963e+57
          1697.79270	         9.24291e+57
          1698.59900	         8.31728e+57
          1699.40530	         8.11175e+57
          1700.21160	         7.65442e+57
          1701.01790	         8.50164e+57
          1701.82420	         8.52820e+57
          1702.63050	         8.15368e+57
          1703.43680	         8.99811e+57
          1704.24310	         8.70988e+57
          1705.04940	         7.73188e+57
          1705.85570	         7.28548e+57
          1706.66200	         7.75173e+57
          1707.46830	         7.54576e+57
          1708.27460	         7.57484e+57
          1709.08090	         7.11464e+57
          1709.88720	         6.00275e+57
          1710.69350	         5.77084e+57
          1711.49980	         6.01727e+57
          1712.30610	         6.30970e+57
          1713.11240	         8.06025e+57
          1713.91870	         7.80274e+57
          1714.72500	         8.13557e+57
          1715.53130	         8.15204e+57
          1716.33760	         6.45313e+57
          1717.14390	         6.40935e+57
          1717.95020	         7.80487e+57
          1718.75650	         8.37776e+57
          1719.56280	         7.70218e+57
          1720.36910	         6.76690e+57
          1721.17540	         6.86138e+57
          1721.98170	         6.31584e+57
          1722.78800	         6.43692e+57
          1723.59430	         7.52144e+57
          1724.40060	         7.69118e+57
          1725.20690	         7.77632e+57
          1726.01320	         8.44039e+57
          1726.81950	         8.17620e+57
          1727.62580	         6.86261e+57
          1728.43210	         6.06414e+57
          1729.23840	         6.72797e+57
          1730.04470	         7.26478e+57
          1730.85100	         7.97226e+57
          1731.65730	         7.75569e+57
          1732.46360	         7.27805e+57
          1733.26990	         7.03581e+57
          1734.07620	         6.98246e+57
          1734.88250	         7.13033e+57
          1735.68880	         7.91750e+57
          1736.49510	         7.94464e+57
          1737.30140	         7.21836e+57
          1738.10770	         6.20131e+57
          1738.91400	         6.83925e+57
          1739.72030	         6.73478e+57
          1740.52660	         5.20816e+57
          1741.33290	         5.42248e+57
          1742.13920	         5.74503e+57
          1742.94550	         6.38564e+57
          1743.75180	         6.81884e+57
          1744.55810	         7.18199e+57
          1745.36440	         7.27382e+57
          1746.17070	         5.83491e+57
          1746.97700	         4.22183e+57
          1747.78330	         5.85073e+57
          1748.58960	         7.24422e+57
          1749.39590	         7.42528e+57
          1750.20220	         6.74702e+57
          1751.00850	         5.80289e+57
          1751.81480	         4.83437e+57
          1752.62110	         6.46208e+57
          1753.42740	         7.80625e+57
          1754.23370	         6.43320e+57
          1755.04000	         6.05617e+57
          1755.84630	         6.81317e+57
          1756.65260	         7.95553e+57
          1757.45890	         8.55945e+57
          1758.26520	         6.51822e+57
          1759.07150	         8.17435e+57
          1759.87780	         8.99881e+57
          1760.68410	         8.23789e+57
          1761.49040	         7.58325e+57
          1762.29670	         6.46911e+57
          1763.10300	         7.29076e+57
          1763.90930	         7.69583e+57
          1764.71560	         6.43664e+57
          1765.52190	         7.21821e+57
          1766.32820	         8.84212e+57
          1767.13450	         6.84540e+57
          1767.94080	         4.88741e+57
          1768.74710	         5.99372e+57
          1769.55340	         7.16771e+57
          1770.35970	         6.71413e+57
          1771.16600	         6.93385e+57
          1771.97230	         7.21422e+57
          1772.77860	         7.06560e+57
          1773.58490	         6.37993e+57
          1774.39120	         4.93991e+57
          1775.19750	         5.44252e+57
          1776.00380	         6.40745e+57
          1776.81010	         6.51117e+57
          1777.61640	         5.59643e+57
          1778.42270	         6.13217e+57
          1779.22900	         7.42976e+57
          1780.03530	         7.47366e+57
          1780.84160	         7.11197e+57
          1781.64790	         8.13015e+57
          1782.45420	         7.88148e+57
          1783.26050	         5.45680e+57
          1784.06680	         6.40879e+57
          1784.87310	         7.35927e+57
          1785.67940	         7.26605e+57
          1786.48570	         7.81152e+57
          1787.29200	         7.41823e+57
          1788.09830	         6.20137e+57
          1788.90460	         5.38909e+57
          1789.71090	         4.89587e+57
          1790.51720	         4.71120e+57
          1791.32350	         6.66021e+57
          1792.12980	         7.87906e+57
          1792.93610	         7.79576e+57
          1793.74240	         7.16966e+57
          1794.54870	         7.69595e+57
          1795.35500	         8.33093e+57
          1796.16130	         7.88811e+57
          1796.96760	         6.57150e+57
          1797.77390	         6.99145e+57
          1798.58020	         6.60924e+57
          1799.38650	         6.41744e+57
          1800.19280	         6.68936e+57
          1800.99910	         7.30475e+57
          1801.80540	         6.37197e+57
          1802.61170	         7.25220e+57
          1803.41800	         7.80331e+57
          1804.22430	         6.87869e+57
          1805.03060	         6.63507e+57
          1805.83690	         6.78035e+57
          1806.64320	         7.23028e+57
          1807.44950	         6.88827e+57
          1808.25580	         6.01974e+57
          1809.06210	         7.47864e+57
          1809.86840	         7.33006e+57
          1810.67470	         6.78440e+57
          1811.48100	         8.49937e+57
          1812.28730	         8.70168e+57
          1813.09360	         7.98318e+57
          1813.89990	         8.25102e+57
          1814.70620	         7.17855e+57
          1815.51250	         7.10018e+57
          1816.31880	         7.62788e+57
          1817.12510	         8.15871e+57
          1817.93140	         6.63366e+57
          1818.73770	         5.93451e+57
          1819.54400	         7.96715e+57
          1820.35030	         7.27863e+57
          1821.15660	         5.36507e+57
          1821.96290	         6.07468e+57
          1822.76920	         7.35234e+57
          1823.57550	         7.62048e+57
          1824.38180	         7.38094e+57
          1825.18810	         7.02969e+57
          1825.99440	         7.83317e+57
          1826.80070	         7.93919e+57
          1827.60700	         7.28029e+57
          1828.41330	         5.87999e+57
          1829.21960	         6.57531e+57
          1830.02590	         7.49307e+57
          1830.83220	         7.31851e+57
          1831.63850	         7.09452e+57
          1832.44480	         7.23555e+57
          1833.25110	         7.61278e+57
          1834.05740	         7.58991e+57
          1834.86370	         6.95703e+57
          1835.67000	         5.48491e+57
          1836.47630	         6.40387e+57
          1837.28260	         8.73063e+57
          1838.08890	         8.19314e+57
          1838.89520	         7.97222e+57
          1839.70150	         8.04029e+57
          1840.50780	         7.67406e+57
          1841.31410	         6.85999e+57
          1842.12040	         6.49245e+57
          1842.92670	         7.05724e+57
          1843.73300	         7.27598e+57
          1844.53930	         6.77887e+57
          1845.34560	         6.87829e+57
          1846.15190	         7.29252e+57
          1846.95820	         7.98886e+57
          1847.76450	         7.33156e+57
          1848.57080	         6.41481e+57
          1849.37710	         6.85118e+57
          1850.18340	         7.37988e+57
          1850.98970	         8.83694e+57
          1851.79600	         7.58951e+57
          1852.60230	         6.86837e+57
          1853.40860	         7.92323e+57
          1854.21490	         7.08439e+57
          1855.02120	         6.03227e+57
          1855.82750	         4.34949e+57
          1856.63380	         6.26875e+57
          1857.44010	         6.18896e+57
          1858.24640	         7.46936e+57
          1859.05270	         7.19935e+57
          1859.85900	         6.38808e+57
          1860.66530	         5.91339e+57
          1861.47160	         6.78919e+57
          1862.27790	         6.71232e+57
          1863.08420	         7.03999e+57
          1863.89050	         7.68146e+57
          1864.69680	         6.83973e+57
          1865.50310	         6.25926e+57
          1866.30940	         5.90039e+57
          1867.11570	         5.59489e+57
          1867.92200	         6.75401e+57
          1868.72830	         6.39285e+57
          1869.53460	         6.14339e+57
          1870.34090	         6.98405e+57
          1871.14720	         7.66772e+57
          1871.95350	         7.99208e+57
          1872.75980	         7.71022e+57
          1873.56610	         6.79698e+57
          1874.37240	         5.52023e+57
          1875.17870	         5.83176e+57
          1875.98500	         6.76518e+57
          1876.79130	         7.30664e+57
          1877.59760	         6.71786e+57
          1878.40390	         6.04700e+57
          1879.21020	         5.63695e+57
          1880.01650	         6.83279e+57
          1880.82280	         8.23078e+57
          1881.62910	         8.93646e+57
          1882.43540	         9.74821e+57
          1883.24170	         7.35150e+57
          1884.04800	         6.59683e+57
          1884.85430	         6.82785e+57
          1885.66060	         7.54895e+57
          1886.46690	         7.06184e+57
          1887.27320	         6.64501e+57
          1888.07950	         5.70426e+57
          1888.88580	         6.67575e+57
          1889.69210	         8.23453e+57
          1890.49840	         8.24919e+57
          1891.30470	         7.66977e+57
          1892.11100	         7.41170e+57
          1892.91730	         6.94931e+57
          1893.72360	         7.34195e+57
          1894.52990	         6.89178e+57
          1895.33620	         6.94826e+57
          1896.14250	         6.92330e+57
          1896.94880	         6.29098e+57
          1897.75510	         5.15125e+57
          1898.56140	         6.02826e+57
          1899.36770	         6.53411e+57
          1900.17400	         6.13890e+57
          1900.98030	         6.61315e+57
          1901.78660	         6.84706e+57
          1902.59290	         7.31893e+57
          1903.39920	         8.67539e+57
          1904.20550	         8.96430e+57
          1905.01180	         8.81086e+57
          1905.81810	         1.04275e+58
          1906.62440	         1.26473e+58
          1907.43070	         1.43921e+58
          1908.23700	         1.49227e+58
          1909.04330	         1.24076e+58
          1909.84960	         1.00382e+58
          1910.65590	         9.31281e+57
          1911.46220	         9.01587e+57
          1912.26850	         6.83428e+57
          1913.07480	         5.86086e+57
          1913.88110	         5.06830e+57
          1914.68740	         5.01361e+57
          1915.49370	         5.69779e+57
          1916.30000	         6.09377e+57
          1917.10630	         6.24857e+57
          1917.91260	         6.38418e+57
          1918.71890	         6.31179e+57
          1919.52520	         6.99217e+57
          1920.33150	         5.96143e+57
          1921.13780	         6.86596e+57
          1921.94410	         7.77395e+57
          1922.75040	         7.26880e+57
          1923.55670	         7.39811e+57
          1924.36300	         7.56355e+57
          1925.16930	         5.42497e+57
          1925.97560	         4.90219e+57
          1926.78190	         4.39007e+57
          1927.58820	         5.48982e+57
          1928.39450	         6.07338e+57
          1929.20080	         5.63454e+57
          1930.00710	         6.31328e+57
          1930.81340	         6.89926e+57
          1931.61970	         7.55527e+57
          1932.42600	         7.30088e+57
          1933.23230	         6.73141e+57
          1934.03860	         6.59672e+57
          1934.84490	         6.70834e+57
          1935.65120	         6.62808e+57
          1936.45750	         7.87117e+57
          1937.26380	         6.05794e+57
          1938.07010	         7.70343e+57
          1938.87640	         7.92016e+57
          1939.68270	         8.02378e+57
          1940.48900	         7.61164e+57
          1941.29530	         7.79312e+57
          1942.10160	         7.78993e+57
          1942.90790	         6.95316e+57
          1943.71420	         6.83180e+57
          1944.52050	         6.74246e+57
          1945.32680	         5.25340e+57
          1946.13310	         6.55038e+57
          1946.93940	         7.72340e+57
          1947.74570	         7.45215e+57
          1948.55200	         6.98797e+57
          1949.35830	         6.90345e+57
          1950.16460	         5.42246e+57
          1950.97090	         5.16341e+57
          1951.77720	         6.49732e+57
          1952.58350	         7.79064e+57
          1953.38980	         6.40222e+57
          1954.19610	         4.41691e+57
          1955.00240	         5.43412e+57
          1955.80870	         6.20042e+57
          1956.61500	         6.21758e+57
          1957.42130	         5.21755e+57
          1958.22760	         5.79903e+57
          1959.03390	         7.17019e+57
          1959.84020	         7.38412e+57
          1960.64650	         6.37775e+57
          1961.45280	         6.14389e+57
          1962.25910	         6.93294e+57
          1963.06540	         6.84751e+57
          1963.87170	         7.06037e+57
          1964.67800	         7.34709e+57
          1965.48430	         6.56893e+57
          1966.29060	         5.86460e+57
          1967.09690	         6.77448e+57
          1967.90320	         6.52222e+57
          1968.70950	         6.48756e+57
          1969.51580	         6.32595e+57
          1970.32210	         6.98435e+57
          1971.12840	         6.39367e+57
          1971.93470	         4.79359e+57
          1972.74100	         5.25559e+57
          1973.54730	         6.38412e+57
          1974.35360	         6.28287e+57
          1975.15990	         5.76896e+57
          1975.96620	         5.56041e+57
          1976.77250	         7.27518e+57
          1977.57880	         7.84358e+57
          1978.38510	         6.44942e+57
          1979.19140	         7.05657e+57
          1979.99770	         7.81658e+57
          1980.80400	         8.15503e+57
          1981.61030	         6.86177e+57
          1982.41660	         5.86418e+57
          1983.22290	         6.05534e+57
          1984.02920	         4.87990e+57
          1984.83550	         5.64178e+57
          1985.64180	         6.89183e+57
          1986.44810	         7.14483e+57
          1987.25440	         5.77598e+57
          1988.06070	         5.19748e+57
          1988.86700	         6.92843e+57
          1989.67330	         6.26736e+57
          1990.47960	         5.41634e+57
          1991.28590	         6.14343e+57
          1992.09220	         5.35819e+57
          1992.89850	         4.57168e+57
          1993.70480	         5.97187e+57
          1994.51110	         5.10812e+57
          1995.31740	         3.73062e+57
          1996.12370	         4.06299e+57
          1996.93000	         5.24082e+57
          1997.73630	         6.74145e+57
          1998.54260	         8.13254e+57
          1999.34890	         5.62804e+57
          2000.15520	         5.05475e+57
          2000.96150	         6.94858e+57
          2001.76780	         6.32810e+57
          2002.57410	         4.37630e+57
          2003.38040	         5.99925e+57
          2004.18670	         6.46986e+57
          2004.99300	         6.16060e+57
          2005.79930	         7.27849e+57
          2006.60560	         5.92154e+57
          2007.41190	         5.80369e+57
          2008.21820	         6.92384e+57
          2009.02450	         6.12715e+57
          2009.83080	         5.44034e+57
          2010.63710	         6.08183e+57
          2011.44340	         7.10820e+57
          2012.24970	         7.02694e+57
          2013.05600	         6.91920e+57
          2013.86230	         6.42344e+57
          2014.66860	         6.21330e+57
          2015.47490	         6.47958e+57
          2016.28120	         5.13608e+57
          2017.08750	         5.03658e+57
          2017.89380	         5.35506e+57
          2018.70010	         5.75578e+57
          2019.50640	         6.16709e+57
          2020.31270	         6.47927e+57
          2021.11900	         7.34048e+57
          2021.92530	         6.98647e+57
          2022.73160	         6.38018e+57
          2023.53790	         6.25534e+57
          2024.34420	         6.82129e+57
          2025.15050	         5.76520e+57
          2025.95680	         6.54062e+57
          2026.76310	         6.13263e+57
          2027.56940	         6.48485e+57
          2028.37570	         6.55738e+57
          2029.18200	         5.61916e+57
          2029.98830	         5.70193e+57
          2030.79460	         5.75582e+57
          2031.60090	         5.44215e+57
          2032.40720	         4.57277e+57
          2033.21350	         5.05593e+57
          2034.01980	         5.34990e+57
          2034.82610	         3.91516e+57
          2035.63240	         4.18104e+57
          2036.43870	         5.21297e+57
          2037.24500	         6.87113e+57
          2038.05130	         7.10957e+57
          2038.85760	         6.32207e+57
          2039.66390	         6.14592e+57
          2040.47020	         4.72695e+57
          2041.27650	         5.04222e+57
          2042.08280	         5.98193e+57
          2042.88910	         6.69858e+57
          2043.69540	         6.17209e+57
          2044.50170	         6.50784e+57
          2045.30800	         6.12757e+57
          2046.11430	         3.39140e+57
          2046.92060	         5.33473e+57
          2047.72690	         6.93901e+57
          2048.53320	         6.28444e+57
          2049.33950	         5.60412e+57
          2050.14580	         7.22367e+57
          2050.95210	         7.19710e+57
          2051.75840	         6.53675e+57
          2052.56470	         4.18951e+57
          2053.37100	         3.57170e+57
          2054.17730	         4.81783e+57
          2054.98360	         5.72620e+57
          2055.78990	         4.71648e+57
          2056.59620	         3.85413e+57
          2057.40250	         5.08025e+57
          2058.20880	         6.11825e+57
          2059.01510	         7.33790e+57
          2059.82140	         7.10953e+57
          2060.62770	         1.01826e+58
          2061.43400	         1.65731e+58
          2062.24030	         1.51048e+58
          2063.04660	         6.20119e+57
          2063.85290	         5.18758e+56
          2064.65920	        -2.25638e+57
          2065.46550	        -8.64995e+57
          2066.27180	        -7.37517e+57
          2067.07810	         3.06768e+57
          2067.88440	         5.32039e+57
          2068.69070	         5.23109e+57
          2069.49700	         5.27219e+57
          2070.30330	         2.41083e+57
          2071.10960	         5.10799e+57
          2071.91590	         6.44740e+57
          2072.72220	         4.97922e+57
          2073.52850	         5.48835e+57
          2074.33480	         5.30620e+57
          2075.14110	         4.90408e+57
          2075.94740	         5.31187e+57
          2076.75370	         5.09263e+57
          2077.56000	         4.30175e+57
          2078.36630	         5.39741e+57
          2079.17260	         4.80287e+57
          2079.97890	         5.10324e+57
          2080.78520	         6.48415e+57
          2081.59150	         5.33453e+57
          2082.39780	         4.74205e+57
          2083.20410	         2.98154e+57
          2084.01040	         1.94830e+57
          2084.81670	         4.95185e+57
          2085.62300	         4.11347e+57
          2086.42930	         2.85148e+57
          2087.23560	         1.58795e+57
          2088.04190	         2.83466e+57
          2088.84820	         4.57927e+57
          2089.65450	         3.43372e+57
          2090.46080	         1.76970e+57
          2091.26710	         1.17184e+57
          2092.07340	         3.87687e+57
          2092.87970	         5.15117e+57
          2093.68600	        -1.55733e+57
          2094.49230	        -1.86092e+57
          2095.29860	         3.50152e+57
          2096.10490	         2.59969e+57
          2096.91120	         2.22135e+57
          2097.71750	         3.89706e+57
          2098.52380	         3.05220e+57
          2099.33010	         4.86785e+56
          2100.13640	         5.73909e+56
          2100.94270	         1.97003e+57
          2101.74900	         3.57406e+57
          2102.55530	         3.11852e+57
          2103.36160	         2.11724e+57
          2104.16790	         4.85282e+57
          2104.97420	         3.03696e+57
          2105.78050	         1.35864e+57
          2106.58680	         2.35801e+57
          2107.39310	         6.56289e+56
          2108.19940	         1.90917e+57
          2109.00570	         2.22657e+56
          2109.81200	        -5.58907e+56
          2110.61830	         8.40870e+56
          2111.42460	        -9.25474e+56
          2112.23090	         1.35972e+57
          2113.03720	         2.91217e+57
          2113.84350	         1.69949e+57
          2114.64980	         2.06723e+57
          2115.45610	         2.86479e+57
          2116.26240	        -6.55923e+56
          2117.06870	         2.79141e+57
          2117.87500	         1.19661e+57
          2118.68130	        -2.60215e+57
          2119.48760	         1.40413e+57
          2120.29390	        -6.65219e+56
          2121.10020	        -3.46647e+57
          2121.90650	         1.33321e+57
          2122.71280	         3.49723e+57
          2123.51910	         4.10042e+57
          2124.32540	         4.80835e+57
          2125.13170	         7.20728e+56
          2125.93800	         2.81181e+57
          2126.74430	        -4.67607e+57
          2127.55060	        -2.28313e+57
          2128.35690	        -4.23562e+57
          2129.16320	        -1.10033e+55
          2129.96950	        -6.80061e+57
          2130.77580	        -4.05678e+57
          2131.58210	         1.44997e+57
          2132.38840	        -2.48303e+57
          2133.19470	        -4.56044e+57
          2134.00100	        -3.03277e+57
          2134.80730	        -9.73998e+57
          2135.61360	         5.23530e+57
          2136.41990	         8.38277e+57
          2137.22620	         8.40129e+57
          2138.03250	         5.26607e+57
          2138.83880	        -3.34092e+57
          2139.64510	        -3.69669e+57
          2140.45140	        -1.39250e+57
          2141.25770	        -1.46422e+58
          2142.06400	        -6.18760e+57
          2142.87030	        -3.25672e+57
          2143.67660	        -1.35140e+57
          2144.48290	        -1.16732e+57
          2145.28920	         1.01057e+57
          2146.09550	        -9.81301e+57
          2146.90180	        -7.59106e+57
          2147.70810	        -1.47066e+57
          2148.51440	        -7.16837e+57
          2149.32070	        -9.38723e+57
          2150.12700	        -1.41110e+58
          2150.93330	        -2.23717e+57
          2151.73960	         3.19219e+56
          2152.54590	         1.46184e+57
          2153.35220	        -3.13728e+57
          2154.15850	        -4.55225e+56
          2154.96480	         3.45166e+57
          2155.77110	        -2.69015e+57
          2156.57740	        -1.07351e+58
          2157.38370	         6.63927e+57
          2158.19000	         4.96200e+57
          2158.99630	         6.77277e+57
          2159.80260	        -9.25816e+57
          2160.60890	        -6.21172e+57
          2161.41520	         7.51227e+55
          2162.22150	        -4.74995e+57
          2163.02780	        -2.10517e+56
          2163.83410	        -4.30724e+56
          2164.64040	        -6.32911e+57
          2165.44670	        -8.53783e+57
          2166.25300	        -8.43128e+57
          2167.05930	         3.21400e+57
          2167.86560	         2.79864e+56
          2168.67190	        -4.70458e+57
          2169.47820	        -8.19400e+57
          2170.28450	        -1.67670e+58
          2171.09080	        -2.93517e+57
          2171.89710	        -2.59205e+56
          2172.70340	         3.53390e+56
          2173.50970	        -1.01872e+58
          2174.31600	        -9.57772e+57
          2175.12230	        -6.11129e+57
          2175.92860	        -3.98164e+57
          2176.73490	        -1.21974e+58
          2177.54120	        -9.68618e+57
          2178.34750	        -2.59883e+57
          2179.15380	                 nan
          2179.96010	                 nan
          2180.76640	                 nan
          2181.57270	                 nan
          2182.37900	                 nan
          2183.18530	                 nan
          2183.99160	                 nan
          2184.79790	                 nan
          2185.60420	                 nan
          2186.41050	                 nan
          2187.21680	                 nan
          2188.02310	                 nan
          2188.82940	                 nan
          2189.63570	                 nan
          2190.44200	                 nan
          2191.24830	                 nan
          2192.05460	                 nan
          2192.86090	                 nan
          2193.66720	                 nan
          2194.47350	                 nan
          2195.27980	                 nan
          2196.08610	                 nan
          2196.89240	                 nan
          2197.69870	                 nan
          2198.50500	                 nan
          2199.31130	                 nan
          2200.11760	                 nan
          2200.92390	                 nan
          2201.73020	                 nan
          2202.53650	                 nan
          2203.34280	                 nan
          2204.14910	                 nan
          2204.95540	                 nan
          2205.76170	                 nan
          2206.56800	                 nan
          2207.37430	                 nan
          2208.18060	                 nan
          2208.98690	                 nan
          2209.79320	                 nan
          2210.59950	                 nan
          2211.40580	                 nan
          2212.21210	                 nan
          2213.01840	                 nan
          2213.82470	                 nan
          2214.63100	                 nan
          2215.43730	         0.00000e+00
