#sample_70_stacked_spectrum_rest_UV-bands_median_H-alpha_noDC.txt
#median Lum: 1.67198e+42
#Rest-frame wavelength (A) | Luminosity (erg/s/A)
#
          1110.00000	         0.00000e+00
          1110.80630	         2.66544e+59
          1111.61260	        -1.16270e+59
          1112.41890	        -6.10198e+57
          1113.22520	        -1.12228e+59
          1114.03150	        -7.93193e+58
          1114.83780	         2.96543e+59
          1115.64410	         7.56669e+58
          1116.45040	        -2.38183e+59
          1117.25670	         1.75437e+58
          1118.06300	         2.23732e+59
          1118.86930	         2.55244e+58
          1119.67560	         1.05802e+59
          1120.48190	         2.87445e+58
          1121.28820	        -9.01421e+58
          1122.09450	        -2.78371e+58
          1122.90080	         1.15098e+59
          1123.70710	         1.47555e+59
          1124.51340	         1.42946e+59
          1125.31970	         2.19515e+58
          1126.12600	         1.74260e+58
          1126.93230	        -4.18212e+58
          1127.73860	         1.26160e+58
          1128.54490	         2.44022e+58
          1129.35120	        -9.24479e+57
          1130.15750	         2.54231e+57
          1130.96380	        -3.26832e+58
          1131.77010	         3.93147e+58
          1132.57640	        -2.18848e+57
          1133.38270	         2.74852e+58
          1134.18900	         5.06179e+58
          1134.99530	         1.05862e+58
          1135.80160	         1.95540e+58
          1136.60790	         5.26668e+57
          1137.41420	         4.23195e+57
          1138.22050	         3.20842e+58
          1139.02680	         2.45705e+58
          1139.83310	         3.09252e+58
          1140.63940	         5.51986e+57
          1141.44570	        -5.59201e+57
          1142.25200	         1.41210e+58
          1143.05830	         2.70974e+58
          1143.86460	         5.03496e+58
          1144.67090	         2.82342e+58
          1145.47720	         2.70060e+58
          1146.28350	         1.96949e+58
          1147.08980	         1.30633e+58
          1147.89610	         1.47307e+58
          1148.70240	         2.46590e+58
          1149.50870	         1.04651e+58
          1150.31500	         1.46582e+58
          1151.12130	         1.13372e+58
          1151.92760	         5.68987e+57
          1152.73390	         1.50323e+58
          1153.54020	         2.63939e+58
          1154.34650	         2.48157e+58
          1155.15280	         3.14678e+58
          1155.95910	         9.97718e+57
          1156.76540	         4.94627e+57
          1157.57170	        -6.26283e+57
          1158.37800	        -1.22668e+57
          1159.18430	        -3.23704e+56
          1159.99060	         9.90270e+57
          1160.79690	         4.81414e+57
          1161.60320	         1.79533e+58
          1162.40950	         8.94826e+57
          1163.21580	         2.25151e+58
          1164.02210	         1.76688e+58
          1164.82840	         6.54021e+57
          1165.63470	         2.05204e+58
          1166.44100	         3.45393e+58
          1167.24730	         2.09064e+58
          1168.05360	         6.11768e+57
          1168.85990	         5.05629e+57
          1169.66620	         1.16991e+58
          1170.47250	         2.24161e+58
          1171.27880	         1.68148e+58
          1172.08510	         1.65710e+58
          1172.89140	         1.13735e+58
          1173.69770	         1.23584e+58
          1174.50400	         1.31849e+58
          1175.31030	         2.07460e+58
          1176.11660	         1.51509e+58
          1176.92290	         1.30863e+58
          1177.72920	         1.10165e+58
          1178.53550	         1.40648e+57
          1179.34180	         2.89489e+57
          1180.14810	         6.53690e+57
          1180.95440	         1.07815e+58
          1181.76070	         8.38789e+57
          1182.56700	         5.65334e+57
          1183.37330	         6.86824e+57
          1184.17960	         9.74014e+57
          1184.98590	         1.13325e+58
          1185.79220	         8.83296e+57
          1186.59850	         1.74226e+58
          1187.40480	         1.62474e+58
          1188.21110	         1.65858e+58
          1189.01740	         1.07214e+58
          1189.82370	         1.08527e+58
          1190.63000	         1.63872e+58
          1191.43630	         1.56222e+58
          1192.24260	         9.70039e+57
          1193.04890	         8.62213e+57
          1193.85520	         9.48449e+57
          1194.66150	         4.59389e+57
          1195.46780	         2.86989e+57
          1196.27410	         4.55498e+57
          1197.08040	         9.20331e+57
          1197.88670	         1.36671e+58
          1198.69300	         1.56133e+58
          1199.49930	         1.58596e+58
          1200.30560	         1.32918e+58
          1201.11190	         1.04198e+58
          1201.91820	         1.17467e+58
          1202.72450	         8.70970e+57
          1203.53080	         1.20382e+58
          1204.33710	         1.22256e+58
          1205.14340	         3.94055e+57
          1205.94970	         4.36380e+57
          1206.75600	         6.19752e+57
          1207.56230	         3.34136e+57
          1208.36860	         6.34692e+57
          1209.17490	         1.67550e+57
          1209.98120	         3.34312e+57
          1210.78750	         4.12273e+57
          1211.59380	         1.21631e+58
          1212.40010	         1.74577e+58
          1213.20640	         2.19352e+58
          1214.01270	         2.04881e+58
          1214.81900	         2.51742e+58
          1215.62530	         4.17987e+58
          1216.43160	         9.03877e+58
          1217.23790	         1.55954e+59
          1218.04420	         1.14226e+59
          1218.85050	         8.46049e+58
          1219.65680	         5.81457e+58
          1220.46310	         3.16404e+58
          1221.26940	         2.17112e+58
          1222.07570	         1.28074e+58
          1222.88200	         1.13430e+58
          1223.68830	         1.27472e+58
          1224.49460	         9.44941e+57
          1225.30090	         7.33448e+57
          1226.10720	         9.68771e+57
          1226.91350	         6.89745e+57
          1227.71980	         6.93906e+57
          1228.52610	         1.00494e+58
          1229.33240	         7.58606e+57
          1230.13870	         8.72260e+57
          1230.94500	         9.47945e+57
          1231.75130	         7.39202e+57
          1232.55760	         7.51211e+57
          1233.36390	         6.72415e+57
          1234.17020	         8.99254e+57
          1234.97650	         1.13269e+58
          1235.78280	         8.89994e+57
          1236.58910	         7.93045e+57
          1237.39540	         1.27014e+58
          1238.20170	         1.24115e+58
          1239.00800	         1.06229e+58
          1239.81430	         1.28393e+58
          1240.62060	         1.07318e+58
          1241.42690	         1.06682e+58
          1242.23320	         1.21005e+58
          1243.03950	         8.70034e+57
          1243.84580	         7.05481e+57
          1244.65210	         9.27388e+57
          1245.45840	         9.27157e+57
          1246.26470	         8.51822e+57
          1247.07100	         9.16533e+57
          1247.87730	         4.94780e+57
          1248.68360	         4.79997e+57
          1249.48990	         1.11929e+58
          1250.29620	         1.05286e+58
          1251.10250	         5.22940e+57
          1251.90880	         2.25422e+57
          1252.71510	         4.98560e+57
          1253.52140	         6.12546e+57
          1254.32770	         9.43984e+57
          1255.13400	         1.24789e+58
          1255.94030	         1.14501e+58
          1256.74660	         1.05542e+58
          1257.55290	         1.13447e+58
          1258.35920	         8.38391e+57
          1259.16550	         4.40038e+57
          1259.97180	         4.27050e+57
          1260.77810	         7.45618e+57
          1261.58440	         9.48166e+57
          1262.39070	         7.12008e+57
          1263.19700	         6.66531e+57
          1264.00330	         9.46826e+57
          1264.80960	         1.27553e+58
          1265.61590	         1.27901e+58
          1266.42220	         1.17252e+58
          1267.22850	         1.10317e+58
          1268.03480	         1.39910e+58
          1268.84110	         1.39120e+58
          1269.64740	         1.15417e+58
          1270.45370	         1.39844e+58
          1271.26000	         1.45310e+58
          1272.06630	         1.34205e+58
          1272.87260	         1.38105e+58
          1273.67890	         1.38018e+58
          1274.48520	         1.33551e+58
          1275.29150	         1.36524e+58
          1276.09780	         1.15603e+58
          1276.90410	         1.28305e+58
          1277.71040	         1.44738e+58
          1278.51670	         1.50381e+58
          1279.32300	         1.45073e+58
          1280.12930	         1.29943e+58
          1280.93560	         1.18573e+58
          1281.74190	         1.10353e+58
          1282.54820	         1.18431e+58
          1283.35450	         1.16557e+58
          1284.16080	         1.02026e+58
          1284.96710	         1.24654e+58
          1285.77340	         1.11035e+58
          1286.57970	         1.12496e+58
          1287.38600	         1.59436e+58
          1288.19230	         1.72375e+58
          1288.99860	         1.51647e+58
          1289.80490	         1.02309e+58
          1290.61120	         1.27813e+58
          1291.41750	         1.51986e+58
          1292.22380	         1.33191e+58
          1293.03010	         1.04578e+58
          1293.83640	         9.30300e+57
          1294.64270	         7.90852e+57
          1295.44900	         5.19219e+57
          1296.25530	         5.21658e+57
          1297.06160	         7.49103e+57
          1297.86790	         8.66110e+57
          1298.67420	         9.20601e+57
          1299.48050	         9.61317e+57
          1300.28680	         1.03417e+58
          1301.09310	         8.36665e+57
          1301.89940	         3.81285e+57
          1302.70570	         4.72791e+57
          1303.51200	         8.21493e+57
          1304.31830	         1.09710e+58
          1305.12460	         1.15395e+58
          1305.93090	         1.04313e+58
          1306.73720	         1.20621e+58
          1307.54350	         1.39205e+58
          1308.34980	         1.35084e+58
          1309.15610	         1.41853e+58
          1309.96240	         1.49728e+58
          1310.76870	         1.23712e+58
          1311.57500	         1.00493e+58
          1312.38130	         1.22098e+58
          1313.18760	         1.39143e+58
          1313.99390	         1.33474e+58
          1314.80020	         1.51612e+58
          1315.60650	         1.43483e+58
          1316.41280	         1.33154e+58
          1317.21910	         1.23298e+58
          1318.02540	         1.08719e+58
          1318.83170	         1.24523e+58
          1319.63800	         1.21291e+58
          1320.44430	         1.24205e+58
          1321.25060	         1.33725e+58
          1322.05690	         1.18390e+58
          1322.86320	         1.33520e+58
          1323.66950	         1.24141e+58
          1324.47580	         1.04353e+58
          1325.28210	         1.08932e+58
          1326.08840	         1.24990e+58
          1326.89470	         1.06116e+58
          1327.70100	         9.45805e+57
          1328.50730	         9.51829e+57
          1329.31360	         7.83199e+57
          1330.11990	         9.28571e+57
          1330.92620	         9.61117e+57
          1331.73250	         1.12059e+58
          1332.53880	         1.03098e+58
          1333.34510	         8.81283e+57
          1334.15140	         9.10247e+57
          1334.95770	         9.72980e+57
          1335.76400	         1.04071e+58
          1336.57030	         1.08403e+58
          1337.37660	         1.10856e+58
          1338.18290	         1.07312e+58
          1338.98920	         1.10034e+58
          1339.79550	         1.15883e+58
          1340.60180	         1.31804e+58
          1341.40810	         1.40518e+58
          1342.21440	         1.07046e+58
          1343.02070	         9.66270e+57
          1343.82700	         1.18361e+58
          1344.63330	         1.26410e+58
          1345.43960	         1.34664e+58
          1346.24590	         1.08442e+58
          1347.05220	         1.17121e+58
          1347.85850	         1.11700e+58
          1348.66480	         1.25031e+58
          1349.47110	         1.38324e+58
          1350.27740	         1.29090e+58
          1351.08370	         1.12714e+58
          1351.89000	         1.17215e+58
          1352.69630	         1.19407e+58
          1353.50260	         1.12973e+58
          1354.30890	         1.11662e+58
          1355.11520	         1.10425e+58
          1355.92150	         1.03984e+58
          1356.72780	         9.83869e+57
          1357.53410	         1.00105e+58
          1358.34040	         1.11031e+58
          1359.14670	         1.22542e+58
          1359.95300	         1.19506e+58
          1360.75930	         1.24658e+58
          1361.56560	         1.09118e+58
          1362.37190	         1.09537e+58
          1363.17820	         1.23394e+58
          1363.98450	         1.08925e+58
          1364.79080	         1.18959e+58
          1365.59710	         1.32142e+58
          1366.40340	         1.14939e+58
          1367.20970	         1.00102e+58
          1368.01600	         9.34853e+57
          1368.82230	         8.32089e+57
          1369.62860	         9.21889e+57
          1370.43490	         9.42031e+57
          1371.24120	         9.43775e+57
          1372.04750	         9.98967e+57
          1372.85380	         1.25389e+58
          1373.66010	         1.20278e+58
          1374.46640	         1.08679e+58
          1375.27270	         1.13922e+58
          1376.07900	         9.00372e+57
          1376.88530	         7.86300e+57
          1377.69160	         7.31071e+57
          1378.49790	         6.00326e+57
          1379.30420	         9.47699e+57
          1380.11050	         1.07744e+58
          1380.91680	         8.53685e+57
          1381.72310	         8.37180e+57
          1382.52940	         9.35478e+57
          1383.33570	         9.03754e+57
          1384.14200	         1.04237e+58
          1384.94830	         1.20474e+58
          1385.75460	         1.15093e+58
          1386.56090	         1.06313e+58
          1387.36720	         1.02383e+58
          1388.17350	         1.29419e+58
          1388.97980	         1.10469e+58
          1389.78610	         8.99370e+57
          1390.59240	         7.59561e+57
          1391.39870	         6.45934e+57
          1392.20500	         7.95046e+57
          1393.01130	         8.22023e+57
          1393.81760	         6.69913e+57
          1394.62390	         7.07911e+57
          1395.43020	         5.58596e+57
          1396.23650	         5.59342e+57
          1397.04280	         8.38736e+57
          1397.84910	         8.52448e+57
          1398.65540	         8.63717e+57
          1399.46170	         1.02579e+58
          1400.26800	         8.53184e+57
          1401.07430	         7.46159e+57
          1401.88060	         7.72166e+57
          1402.68690	         8.66601e+57
          1403.49320	         9.91993e+57
          1404.29950	         9.62092e+57
          1405.10580	         9.69163e+57
          1405.91210	         1.02202e+58
          1406.71840	         1.02410e+58
          1407.52470	         9.78306e+57
          1408.33100	         1.02438e+58
          1409.13730	         1.20388e+58
          1409.94360	         1.23397e+58
          1410.74990	         1.18316e+58
          1411.55620	         1.01487e+58
          1412.36250	         9.32719e+57
          1413.16880	         9.00632e+57
          1413.97510	         8.49584e+57
          1414.78140	         8.39243e+57
          1415.58770	         9.67660e+57
          1416.39400	         9.19284e+57
          1417.20030	         8.30653e+57
          1418.00660	         8.55897e+57
          1418.81290	         9.13590e+57
          1419.61920	         1.01519e+58
          1420.42550	         1.32466e+58
          1421.23180	         1.38968e+58
          1422.03810	         1.21901e+58
          1422.84440	         1.19228e+58
          1423.65070	         1.31030e+58
          1424.45700	         1.13350e+58
          1425.26330	         8.00979e+57
          1426.06960	         7.98355e+57
          1426.87590	         1.01614e+58
          1427.68220	         1.03458e+58
          1428.48850	         1.10059e+58
          1429.29480	         1.14141e+58
          1430.10110	         9.69583e+57
          1430.90740	         8.63502e+57
          1431.71370	         9.31906e+57
          1432.52000	         8.92756e+57
          1433.32630	         7.30154e+57
          1434.13260	         7.38593e+57
          1434.93890	         8.43522e+57
          1435.74520	         9.46064e+57
          1436.55150	         9.36982e+57
          1437.35780	         8.25314e+57
          1438.16410	         9.36630e+57
          1438.97040	         8.69031e+57
          1439.77670	         8.52371e+57
          1440.58300	         1.00091e+58
          1441.38930	         1.00535e+58
          1442.19560	         9.76945e+57
          1443.00190	         9.98337e+57
          1443.80820	         1.14466e+58
          1444.61450	         1.01054e+58
          1445.42080	         8.55318e+57
          1446.22710	         1.02200e+58
          1447.03340	         1.09578e+58
          1447.83970	         1.12447e+58
          1448.64600	         1.09479e+58
          1449.45230	         1.00497e+58
          1450.25860	         9.10510e+57
          1451.06490	         7.86102e+57
          1451.87120	         7.59738e+57
          1452.67750	         8.36560e+57
          1453.48380	         8.94004e+57
          1454.29010	         7.49159e+57
          1455.09640	         8.14497e+57
          1455.90270	         1.01691e+58
          1456.70900	         9.65423e+57
          1457.51530	         9.74459e+57
          1458.32160	         1.11432e+58
          1459.12790	         1.12025e+58
          1459.93420	         1.21510e+58
          1460.74050	         1.04064e+58
          1461.54680	         8.98511e+57
          1462.35310	         8.17896e+57
          1463.15940	         9.53684e+57
          1463.96570	         1.17587e+58
          1464.77200	         1.28702e+58
          1465.57830	         1.11866e+58
          1466.38460	         9.38285e+57
          1467.19090	         8.06608e+57
          1467.99720	         7.74067e+57
          1468.80350	         8.28040e+57
          1469.60980	         9.41513e+57
          1470.41610	         9.78041e+57
          1471.22240	         1.00913e+58
          1472.02870	         1.15358e+58
          1472.83500	         1.08015e+58
          1473.64130	         9.98884e+57
          1474.44760	         1.00562e+58
          1475.25390	         9.41751e+57
          1476.06020	         8.95006e+57
          1476.86650	         9.62063e+57
          1477.67280	         8.87258e+57
          1478.47910	         6.05428e+57
          1479.28540	         6.17217e+57
          1480.09170	         8.78427e+57
          1480.89800	         8.81068e+57
          1481.70430	         9.05265e+57
          1482.51060	         9.36331e+57
          1483.31690	         8.54210e+57
          1484.12320	         7.51659e+57
          1484.92950	         8.15820e+57
          1485.73580	         8.47911e+57
          1486.54210	         8.49620e+57
          1487.34840	         8.37710e+57
          1488.15470	         8.11430e+57
          1488.96100	         8.71882e+57
          1489.76730	         9.60193e+57
          1490.57360	         8.93566e+57
          1491.37990	         8.25071e+57
          1492.18620	         8.37674e+57
          1492.99250	         7.88518e+57
          1493.79880	         8.30351e+57
          1494.60510	         9.66297e+57
          1495.41140	         8.42855e+57
          1496.21770	         8.44175e+57
          1497.02400	         9.96537e+57
          1497.83030	         8.07528e+57
          1498.63660	         6.78703e+57
          1499.44290	         6.79506e+57
          1500.24920	         6.78540e+57
          1501.05550	         7.20728e+57
          1501.86180	         7.84781e+57
          1502.66810	         8.87183e+57
          1503.47440	         8.40377e+57
          1504.28070	         7.57409e+57
          1505.08700	         8.91117e+57
          1505.89330	         9.60723e+57
          1506.69960	         8.40790e+57
          1507.50590	         8.31788e+57
          1508.31220	         8.24777e+57
          1509.11850	         9.01212e+57
          1509.92480	         9.20423e+57
          1510.73110	         8.38668e+57
          1511.53740	         6.99705e+57
          1512.34370	         6.65199e+57
          1513.15000	         9.49378e+57
          1513.95630	         1.09063e+58
          1514.76260	         9.51806e+57
          1515.56890	         8.03426e+57
          1516.37520	         8.08890e+57
          1517.18150	         7.68176e+57
          1517.98780	         7.17434e+57
          1518.79410	         7.30800e+57
          1519.60040	         8.11968e+57
          1520.40670	         9.60338e+57
          1521.21300	         9.45554e+57
          1522.01930	         9.49155e+57
          1522.82560	         9.37975e+57
          1523.63190	         9.34228e+57
          1524.43820	         8.11249e+57
          1525.24450	         6.74037e+57
          1526.05080	         6.81190e+57
          1526.85710	         6.55982e+57
          1527.66340	         6.28748e+57
          1528.46970	         7.66093e+57
          1529.27600	         8.56395e+57
          1530.08230	         7.00376e+57
          1530.88860	         6.89766e+57
          1531.69490	         9.08131e+57
          1532.50120	         9.76321e+57
          1533.30750	         9.58985e+57
          1534.11380	         1.00469e+58
          1534.92010	         1.01827e+58
          1535.72640	         9.46717e+57
          1536.53270	         9.16036e+57
          1537.33900	         9.31071e+57
          1538.14530	         9.47824e+57
          1538.95160	         8.96805e+57
          1539.75790	         8.68002e+57
          1540.56420	         8.92271e+57
          1541.37050	         8.59581e+57
          1542.17680	         7.84718e+57
          1542.98310	         8.24991e+57
          1543.78940	         7.62566e+57
          1544.59570	         6.12260e+57
          1545.40200	         7.29980e+57
          1546.20830	         9.82000e+57
          1547.01460	         1.06433e+58
          1547.82090	         1.15642e+58
          1548.62720	         1.25396e+58
          1549.43350	         1.24587e+58
          1550.23980	         1.12184e+58
          1551.04610	         1.16575e+58
          1551.85240	         1.28015e+58
          1552.65870	         1.25131e+58
          1553.46500	         1.14834e+58
          1554.27130	         1.08663e+58
          1555.07760	         1.06533e+58
          1555.88390	         9.19653e+57
          1556.69020	         8.87771e+57
          1557.49650	         1.00869e+58
          1558.30280	         9.49342e+57
          1559.10910	         8.72030e+57
          1559.91540	         9.01771e+57
          1560.72170	         9.52061e+57
          1561.52800	         8.37034e+57
          1562.33430	         7.92907e+57
          1563.14060	         8.01649e+57
          1563.94690	         8.22157e+57
          1564.75320	         7.89445e+57
          1565.55950	         6.48877e+57
          1566.36580	         6.82539e+57
          1567.17210	         9.16148e+57
          1567.97840	         8.71135e+57
          1568.78470	         8.59750e+57
          1569.59100	         9.40850e+57
          1570.39730	         8.51931e+57
          1571.20360	         7.29461e+57
          1572.00990	         8.18477e+57
          1572.81620	         9.22382e+57
          1573.62250	         9.59891e+57
          1574.42880	         9.23250e+57
          1575.23510	         7.44857e+57
          1576.04140	         8.23410e+57
          1576.84770	         9.33814e+57
          1577.65400	         9.34461e+57
          1578.46030	         1.01307e+58
          1579.26660	         1.07478e+58
          1580.07290	         9.78699e+57
          1580.87920	         7.86963e+57
          1581.68550	         7.48173e+57
          1582.49180	         8.58001e+57
          1583.29810	         8.67937e+57
          1584.10440	         9.33083e+57
          1584.91070	         8.40348e+57
          1585.71700	         8.69305e+57
          1586.52330	         9.36138e+57
          1587.32960	         8.43024e+57
          1588.13590	         7.85676e+57
          1588.94220	         7.37775e+57
          1589.74850	         8.70428e+57
          1590.55480	         9.61236e+57
          1591.36110	         8.87510e+57
          1592.16740	         8.58425e+57
          1592.97370	         7.82372e+57
          1593.78000	         8.21235e+57
          1594.58630	         9.72485e+57
          1595.39260	         9.92562e+57
          1596.19890	         1.00936e+58
          1597.00520	         9.48056e+57
          1597.81150	         7.92956e+57
          1598.61780	         6.87498e+57
          1599.42410	         6.91661e+57
          1600.23040	         7.09335e+57
          1601.03670	         8.01724e+57
          1601.84300	         7.40968e+57
          1602.64930	         7.43417e+57
          1603.45560	         8.26071e+57
          1604.26190	         8.68411e+57
          1605.06820	         8.17070e+57
          1605.87450	         6.97191e+57
          1606.68080	         6.22693e+57
          1607.48710	         6.62823e+57
          1608.29340	         6.79574e+57
          1609.09970	         6.58414e+57
          1609.90600	         7.62493e+57
          1610.71230	         7.42173e+57
          1611.51860	         7.58233e+57
          1612.32490	         6.79207e+57
          1613.13120	         7.60897e+57
          1613.93750	         7.42180e+57
          1614.74380	         8.18426e+57
          1615.55010	         8.86372e+57
          1616.35640	         9.87441e+57
          1617.16270	         1.09562e+58
          1617.96900	         1.04692e+58
          1618.77530	         9.39056e+57
          1619.58160	         8.19486e+57
          1620.38790	         8.24745e+57
          1621.19420	         9.28768e+57
          1622.00050	         8.52305e+57
          1622.80680	         8.63180e+57
          1623.61310	         8.23769e+57
          1624.41940	         8.16250e+57
          1625.22570	         8.50712e+57
          1626.03200	         8.47696e+57
          1626.83830	         8.18112e+57
          1627.64460	         7.08359e+57
          1628.45090	         6.71507e+57
          1629.25720	         8.92072e+57
          1630.06350	         9.13906e+57
          1630.86980	         6.12719e+57
          1631.67610	         6.84373e+57
          1632.48240	         8.62154e+57
          1633.28870	         8.61440e+57
          1634.09500	         9.74825e+57
          1634.90130	         1.04911e+58
          1635.70760	         9.32236e+57
          1636.51390	         7.79023e+57
          1637.32020	         6.78007e+57
          1638.12650	         8.51959e+57
          1638.93280	         1.00699e+58
          1639.73910	         1.02132e+58
          1640.54540	         1.05029e+58
          1641.35170	         9.93000e+57
          1642.15800	         1.00435e+58
          1642.96430	         9.96087e+57
          1643.77060	         1.02906e+58
          1644.57690	         9.29130e+57
          1645.38320	         9.03328e+57
          1646.18950	         7.80321e+57
          1646.99580	         8.13500e+57
          1647.80210	         7.94553e+57
          1648.60840	         8.25054e+57
          1649.41470	         8.21078e+57
          1650.22100	         7.96285e+57
          1651.02730	         7.15778e+57
          1651.83360	         7.04993e+57
          1652.63990	         8.07619e+57
          1653.44620	         8.49518e+57
          1654.25250	         7.22077e+57
          1655.05880	         6.94414e+57
          1655.86510	         7.82016e+57
          1656.67140	         7.95574e+57
          1657.47770	         7.33408e+57
          1658.28400	         7.71847e+57
          1659.09030	         8.17527e+57
          1659.89660	         8.03184e+57
          1660.70290	         9.21343e+57
          1661.50920	         1.02230e+58
          1662.31550	         9.52466e+57
          1663.12180	         8.14664e+57
          1663.92810	         9.19394e+57
          1664.73440	         1.11233e+58
          1665.54070	         1.14206e+58
          1666.34700	         1.18240e+58
          1667.15330	         1.13148e+58
          1667.95960	         9.51632e+57
          1668.76590	         8.20304e+57
          1669.57220	         7.13455e+57
          1670.37850	         7.58650e+57
          1671.18480	         8.46390e+57
          1671.99110	         7.85386e+57
          1672.79740	         7.56645e+57
          1673.60370	         7.24168e+57
          1674.41000	         7.37520e+57
          1675.21630	         7.36103e+57
          1676.02260	         6.56292e+57
          1676.82890	         7.63997e+57
          1677.63520	         8.12376e+57
          1678.44150	         7.75752e+57
          1679.24780	         8.59940e+57
          1680.05410	         7.01601e+57
          1680.86040	         5.21010e+57
          1681.66670	         5.99683e+57
          1682.47300	         7.08892e+57
          1683.27930	         8.13286e+57
          1684.08560	         9.32709e+57
          1684.89190	         8.72521e+57
          1685.69820	         5.58661e+57
          1686.50450	         5.94712e+57
          1687.31080	         6.76342e+57
          1688.11710	         7.20016e+57
          1688.92340	         7.21620e+57
          1689.72970	         6.98323e+57
          1690.53600	         7.22398e+57
          1691.34230	         6.79916e+57
          1692.14860	         7.41887e+57
          1692.95490	         7.70281e+57
          1693.76120	         6.53918e+57
          1694.56750	         7.52908e+57
          1695.37380	         9.11355e+57
          1696.18010	         8.89365e+57
          1696.98640	         8.60054e+57
          1697.79270	         8.76285e+57
          1698.59900	         8.57345e+57
          1699.40530	         8.16708e+57
          1700.21160	         7.71708e+57
          1701.01790	         8.07067e+57
          1701.82420	         7.16356e+57
          1702.63050	         6.59990e+57
          1703.43680	         7.55250e+57
          1704.24310	         8.11963e+57
          1705.04940	         8.15280e+57
          1705.85570	         7.63795e+57
          1706.66200	         7.91235e+57
          1707.46830	         8.00601e+57
          1708.27460	         8.52117e+57
          1709.08090	         7.55993e+57
          1709.88720	         6.62721e+57
          1710.69350	         6.57250e+57
          1711.49980	         6.46747e+57
          1712.30610	         6.82481e+57
          1713.11240	         7.98924e+57
          1713.91870	         7.91023e+57
          1714.72500	         8.41516e+57
          1715.53130	         8.23756e+57
          1716.33760	         7.19035e+57
          1717.14390	         7.81161e+57
          1717.95020	         7.70777e+57
          1718.75650	         8.45694e+57
          1719.56280	         8.72454e+57
          1720.36910	         7.55684e+57
          1721.17540	         7.50772e+57
          1721.98170	         7.31044e+57
          1722.78800	         6.66413e+57
          1723.59430	         6.88512e+57
          1724.40060	         6.92295e+57
          1725.20690	         8.21489e+57
          1726.01320	         8.84226e+57
          1726.81950	         8.40075e+57
          1727.62580	         7.72632e+57
          1728.43210	         7.57632e+57
          1729.23840	         7.42527e+57
          1730.04470	         7.46189e+57
          1730.85100	         7.62170e+57
          1731.65730	         7.41311e+57
          1732.46360	         7.76828e+57
          1733.26990	         7.54753e+57
          1734.07620	         7.53212e+57
          1734.88250	         7.96021e+57
          1735.68880	         8.08297e+57
          1736.49510	         9.12245e+57
          1737.30140	         8.92973e+57
          1738.10770	         7.83733e+57
          1738.91400	         7.67388e+57
          1739.72030	         7.76969e+57
          1740.52660	         6.52173e+57
          1741.33290	         5.70897e+57
          1742.13920	         6.97605e+57
          1742.94550	         7.71063e+57
          1743.75180	         7.63441e+57
          1744.55810	         7.47891e+57
          1745.36440	         7.57883e+57
          1746.17070	         6.33445e+57
          1746.97700	         5.33862e+57
          1747.78330	         7.12075e+57
          1748.58960	         7.95416e+57
          1749.39590	         7.80246e+57
          1750.20220	         6.39168e+57
          1751.00850	         5.90457e+57
          1751.81480	         6.41807e+57
          1752.62110	         6.89807e+57
          1753.42740	         7.75755e+57
          1754.23370	         6.29528e+57
          1755.04000	         7.19303e+57
          1755.84630	         7.80610e+57
          1756.65260	         8.64741e+57
          1757.45890	         8.91547e+57
          1758.26520	         8.67012e+57
          1759.07150	         9.20156e+57
          1759.87780	         8.23046e+57
          1760.68410	         8.45265e+57
          1761.49040	         7.44896e+57
          1762.29670	         6.68733e+57
          1763.10300	         7.81330e+57
          1763.90930	         7.74374e+57
          1764.71560	         8.40975e+57
          1765.52190	         8.47645e+57
          1766.32820	         8.11924e+57
          1767.13450	         8.13744e+57
          1767.94080	         7.05772e+57
          1768.74710	         6.92725e+57
          1769.55340	         7.79139e+57
          1770.35970	         6.78345e+57
          1771.16600	         7.06566e+57
          1771.97230	         9.16913e+57
          1772.77860	         9.36285e+57
          1773.58490	         7.79017e+57
          1774.39120	         6.17767e+57
          1775.19750	         6.12094e+57
          1776.00380	         6.83406e+57
          1776.81010	         6.35817e+57
          1777.61640	         6.28702e+57
          1778.42270	         6.58280e+57
          1779.22900	         6.72817e+57
          1780.03530	         7.07438e+57
          1780.84160	         7.77221e+57
          1781.64790	         7.82221e+57
          1782.45420	         7.48387e+57
          1783.26050	         6.92957e+57
          1784.06680	         7.58941e+57
          1784.87310	         7.92786e+57
          1785.67940	         7.47414e+57
          1786.48570	         6.76151e+57
          1787.29200	         6.77878e+57
          1788.09830	         6.85649e+57
          1788.90460	         6.02309e+57
          1789.71090	         4.58308e+57
          1790.51720	         4.96524e+57
          1791.32350	         6.47413e+57
          1792.12980	         7.91975e+57
          1792.93610	         6.82113e+57
          1793.74240	         6.43746e+57
          1794.54870	         7.79568e+57
          1795.35500	         8.48022e+57
          1796.16130	         7.66350e+57
          1796.96760	         7.34422e+57
          1797.77390	         7.81570e+57
          1798.58020	         7.36297e+57
          1799.38650	         7.11705e+57
          1800.19280	         6.66386e+57
          1800.99910	         6.96081e+57
          1801.80540	         6.77500e+57
          1802.61170	         7.98753e+57
          1803.41800	         9.04136e+57
          1804.22430	         7.85406e+57
          1805.03060	         7.14583e+57
          1805.83690	         8.95677e+57
          1806.64320	         9.55670e+57
          1807.44950	         8.54648e+57
          1808.25580	         7.86055e+57
          1809.06210	         7.36820e+57
          1809.86840	         6.59024e+57
          1810.67470	         6.61017e+57
          1811.48100	         7.89932e+57
          1812.28730	         7.81457e+57
          1813.09360	         7.74023e+57
          1813.89990	         8.64520e+57
          1814.70620	         7.53876e+57
          1815.51250	         7.46063e+57
          1816.31880	         7.20740e+57
          1817.12510	         7.97018e+57
          1817.93140	         7.16269e+57
          1818.73770	         7.28952e+57
          1819.54400	         9.16173e+57
          1820.35030	         8.96285e+57
          1821.15660	         6.53953e+57
          1821.96290	         6.55714e+57
          1822.76920	         7.72000e+57
          1823.57550	         7.93068e+57
          1824.38180	         7.62024e+57
          1825.18810	         7.72013e+57
          1825.99440	         8.35921e+57
          1826.80070	         8.05016e+57
          1827.60700	         7.41104e+57
          1828.41330	         5.85359e+57
          1829.21960	         5.74262e+57
          1830.02590	         5.96208e+57
          1830.83220	         7.13035e+57
          1831.63850	         7.62895e+57
          1832.44480	         7.30650e+57
          1833.25110	         7.75733e+57
          1834.05740	         8.06596e+57
          1834.86370	         7.12349e+57
          1835.67000	         6.15631e+57
          1836.47630	         6.94669e+57
          1837.28260	         8.85283e+57
          1838.08890	         8.80729e+57
          1838.89520	         7.88086e+57
          1839.70150	         7.67069e+57
          1840.50780	         7.36317e+57
          1841.31410	         7.30918e+57
          1842.12040	         7.21672e+57
          1842.92670	         7.99624e+57
          1843.73300	         7.52796e+57
          1844.53930	         6.87233e+57
          1845.34560	         7.06237e+57
          1846.15190	         7.30319e+57
          1846.95820	         7.91409e+57
          1847.76450	         7.13435e+57
          1848.57080	         6.33106e+57
          1849.37710	         6.21567e+57
          1850.18340	         5.92136e+57
          1850.98970	         7.39007e+57
          1851.79600	         8.07279e+57
          1852.60230	         8.31813e+57
          1853.40860	         8.11095e+57
          1854.21490	         8.22322e+57
          1855.02120	         6.56444e+57
          1855.82750	         5.44348e+57
          1856.63380	         7.14378e+57
          1857.44010	         6.94462e+57
          1858.24640	         7.80033e+57
          1859.05270	         7.46024e+57
          1859.85900	         6.44546e+57
          1860.66530	         6.43604e+57
          1861.47160	         7.44259e+57
          1862.27790	         8.16043e+57
          1863.08420	         7.62166e+57
          1863.89050	         7.72643e+57
          1864.69680	         7.47766e+57
          1865.50310	         7.33846e+57
          1866.30940	         7.03037e+57
          1867.11570	         7.16655e+57
          1867.92200	         7.36439e+57
          1868.72830	         7.63811e+57
          1869.53460	         7.83973e+57
          1870.34090	         8.05122e+57
          1871.14720	         7.96184e+57
          1871.95350	         7.18300e+57
          1872.75980	         7.22434e+57
          1873.56610	         6.75166e+57
          1874.37240	         5.30569e+57
          1875.17870	         5.52311e+57
          1875.98500	         7.22284e+57
          1876.79130	         7.98633e+57
          1877.59760	         6.90054e+57
          1878.40390	         6.19254e+57
          1879.21020	         6.12328e+57
          1880.01650	         7.74543e+57
          1880.82280	         9.09148e+57
          1881.62910	         9.89765e+57
          1882.43540	         9.62321e+57
          1883.24170	         7.72975e+57
          1884.04800	         6.43401e+57
          1884.85430	         7.17559e+57
          1885.66060	         6.87985e+57
          1886.46690	         6.85231e+57
          1887.27320	         8.00046e+57
          1888.07950	         6.55125e+57
          1888.88580	         6.55526e+57
          1889.69210	         7.53852e+57
          1890.49840	         7.94756e+57
          1891.30470	         7.30332e+57
          1892.11100	         7.42581e+57
          1892.91730	         7.81498e+57
          1893.72360	         7.25581e+57
          1894.52990	         6.31225e+57
          1895.33620	         7.92155e+57
          1896.14250	         7.45243e+57
          1896.94880	         6.49170e+57
          1897.75510	         5.35183e+57
          1898.56140	         6.31005e+57
          1899.36770	         7.93864e+57
          1900.17400	         7.96128e+57
          1900.98030	         6.95833e+57
          1901.78660	         8.16214e+57
          1902.59290	         6.97438e+57
          1903.39920	         8.27214e+57
          1904.20550	         9.51830e+57
          1905.01180	         9.42861e+57
          1905.81810	         9.67419e+57
          1906.62440	         1.18053e+58
          1907.43070	         1.47496e+58
          1908.23700	         1.54738e+58
          1909.04330	         1.37612e+58
          1909.84960	         1.13726e+58
          1910.65590	         1.02505e+58
          1911.46220	         9.60537e+57
          1912.26850	         7.29689e+57
          1913.07480	         6.59527e+57
          1913.88110	         5.97810e+57
          1914.68740	         6.32629e+57
          1915.49370	         6.61896e+57
          1916.30000	         7.18309e+57
          1917.10630	         7.74274e+57
          1917.91260	         7.26549e+57
          1918.71890	         5.78274e+57
          1919.52520	         5.95394e+57
          1920.33150	         6.58220e+57
          1921.13780	         6.58110e+57
          1921.94410	         7.24867e+57
          1922.75040	         8.00175e+57
          1923.55670	         7.83948e+57
          1924.36300	         7.35553e+57
          1925.16930	         6.22983e+57
          1925.97560	         5.42553e+57
          1926.78190	         5.03781e+57
          1927.58820	         6.08771e+57
          1928.39450	         5.64779e+57
          1929.20080	         5.58553e+57
          1930.00710	         7.41004e+57
          1930.81340	         8.66017e+57
          1931.61970	         8.03075e+57
          1932.42600	         7.03296e+57
          1933.23230	         7.80322e+57
          1934.03860	         8.25208e+57
          1934.84490	         6.04972e+57
          1935.65120	         7.43770e+57
          1936.45750	         8.96067e+57
          1937.26380	         8.15926e+57
          1938.07010	         7.25807e+57
          1938.87640	         6.63114e+57
          1939.68270	         7.00087e+57
          1940.48900	         7.21524e+57
          1941.29530	         8.50724e+57
          1942.10160	         8.64025e+57
          1942.90790	         7.30673e+57
          1943.71420	         6.05289e+57
          1944.52050	         5.87193e+57
          1945.32680	         5.27417e+57
          1946.13310	         7.02780e+57
          1946.93940	         8.10905e+57
          1947.74570	         6.55600e+57
          1948.55200	         6.47710e+57
          1949.35830	         7.63199e+57
          1950.16460	         5.86006e+57
          1950.97090	         5.26083e+57
          1951.77720	         7.05244e+57
          1952.58350	         8.32483e+57
          1953.38980	         6.37328e+57
          1954.19610	         4.17613e+57
          1955.00240	         4.07154e+57
          1955.80870	         5.20402e+57
          1956.61500	         5.96822e+57
          1957.42130	         6.90027e+57
          1958.22760	         7.04836e+57
          1959.03390	         6.82206e+57
          1959.84020	         6.86544e+57
          1960.64650	         7.19707e+57
          1961.45280	         6.86874e+57
          1962.25910	         6.82217e+57
          1963.06540	         5.42852e+57
          1963.87170	         5.77674e+57
          1964.67800	         6.52026e+57
          1965.48430	         6.89196e+57
          1966.29060	         6.56376e+57
          1967.09690	         7.10785e+57
          1967.90320	         5.66747e+57
          1968.70950	         5.53967e+57
          1969.51580	         7.16546e+57
          1970.32210	         7.71235e+57
          1971.12840	         7.45556e+57
          1971.93470	         5.02903e+57
          1972.74100	         5.01796e+57
          1973.54730	         6.28369e+57
          1974.35360	         6.88333e+57
          1975.15990	         8.01155e+57
          1975.96620	         7.35330e+57
          1976.77250	         8.34224e+57
          1977.57880	         8.41047e+57
          1978.38510	         6.66224e+57
          1979.19140	         6.81014e+57
          1979.99770	         8.11699e+57
          1980.80400	         7.65430e+57
          1981.61030	         7.48521e+57
          1982.41660	         6.53593e+57
          1983.22290	         6.07864e+57
          1984.02920	         6.51061e+57
          1984.83550	         5.67516e+57
          1985.64180	         5.58301e+57
          1986.44810	         6.67149e+57
          1987.25440	         6.44075e+57
          1988.06070	         5.15633e+57
          1988.86700	         6.90765e+57
          1989.67330	         7.01843e+57
          1990.47960	         6.16970e+57
          1991.28590	         5.75579e+57
          1992.09220	         6.78614e+57
          1992.89850	         5.26949e+57
          1993.70480	         4.14525e+57
          1994.51110	         4.50309e+57
          1995.31740	         3.94406e+57
          1996.12370	         4.83729e+57
          1996.93000	         6.46129e+57
          1997.73630	         8.32700e+57
          1998.54260	         7.84424e+57
          1999.34890	         6.04257e+57
          2000.15520	         5.93783e+57
          2000.96150	         6.93649e+57
          2001.76780	         7.18011e+57
          2002.57410	         5.51684e+57
          2003.38040	         6.56783e+57
          2004.18670	         7.14741e+57
          2004.99300	         5.90831e+57
          2005.79930	         7.86580e+57
          2006.60560	         7.30402e+57
          2007.41190	         5.43032e+57
          2008.21820	         5.56508e+57
          2009.02450	         6.61410e+57
          2009.83080	         7.06904e+57
          2010.63710	         6.69446e+57
          2011.44340	         7.56549e+57
          2012.24970	         8.03011e+57
          2013.05600	         6.77137e+57
          2013.86230	         5.66530e+57
          2014.66860	         6.72398e+57
          2015.47490	         6.51228e+57
          2016.28120	         5.78152e+57
          2017.08750	         6.14261e+57
          2017.89380	         5.67460e+57
          2018.70010	         5.17060e+57
          2019.50640	         5.05984e+57
          2020.31270	         7.92980e+57
          2021.11900	         7.63358e+57
          2021.92530	         7.49702e+57
          2022.73160	         7.83537e+57
          2023.53790	         7.17810e+57
          2024.34420	         5.72911e+57
          2025.15050	         5.72273e+57
          2025.95680	         6.00924e+57
          2026.76310	         6.49773e+57
          2027.56940	         6.41130e+57
          2028.37570	         7.19899e+57
          2029.18200	         6.32149e+57
          2029.98830	         4.95807e+57
          2030.79460	         6.61930e+57
          2031.60090	         6.92712e+57
          2032.40720	         5.74377e+57
          2033.21350	         4.60728e+57
          2034.01980	         4.32956e+57
          2034.82610	         4.67541e+57
          2035.63240	         4.86843e+57
          2036.43870	         5.22500e+57
          2037.24500	         6.08557e+57
          2038.05130	         6.70254e+57
          2038.85760	         7.06746e+57
          2039.66390	         6.24229e+57
          2040.47020	         6.29520e+57
          2041.27650	         6.64058e+57
          2042.08280	         5.31088e+57
          2042.88910	         5.95874e+57
          2043.69540	         6.44360e+57
          2044.50170	         6.37012e+57
          2045.30800	         6.51360e+57
          2046.11430	         5.12210e+57
          2046.92060	         5.90442e+57
          2047.72690	         6.22269e+57
          2048.53320	         5.45702e+57
          2049.33950	         4.39425e+57
          2050.14580	         5.18669e+57
          2050.95210	         5.63361e+57
          2051.75840	         6.82708e+57
          2052.56470	         5.43162e+57
          2053.37100	         3.99343e+57
          2054.17730	         5.44410e+57
          2054.98360	         6.31166e+57
          2055.78990	         4.32843e+57
          2056.59620	         3.53409e+57
          2057.40250	         5.18176e+57
          2058.20880	         6.69165e+57
          2059.01510	         5.95572e+57
          2059.82140	         6.18803e+57
          2060.62770	         9.27403e+57
          2061.43400	         1.49240e+58
          2062.24030	         1.16236e+58
          2063.04660	         3.52955e+57
          2063.85290	         3.42845e+57
          2064.65920	        -3.49854e+57
          2065.46550	        -1.00447e+58
          2066.27180	        -5.35248e+57
          2067.07810	         1.40250e+57
          2067.88440	         5.05981e+57
          2068.69070	         8.10908e+57
          2069.49700	         5.28361e+57
          2070.30330	         4.73345e+57
          2071.10960	         5.91247e+57
          2071.91590	         6.90911e+57
          2072.72220	         4.12775e+57
          2073.52850	         5.17291e+57
          2074.33480	         3.97984e+57
          2075.14110	         4.43493e+57
          2075.94740	         5.02354e+57
          2076.75370	         4.15728e+57
          2077.56000	         5.61569e+57
          2078.36630	         5.10314e+57
          2079.17260	         4.06491e+57
          2079.97890	         5.36253e+57
          2080.78520	         6.25974e+57
          2081.59150	         5.77276e+57
          2082.39780	         5.18090e+57
          2083.20410	         2.96859e+57
          2084.01040	         2.83645e+57
          2084.81670	         4.25914e+57
          2085.62300	         4.58171e+57
          2086.42930	         3.03841e+57
          2087.23560	         3.53171e+57
          2088.04190	         4.36184e+57
          2088.84820	         4.51226e+57
          2089.65450	         3.86878e+57
          2090.46080	         1.11134e+57
          2091.26710	         1.76726e+57
          2092.07340	         2.16975e+57
          2092.87970	         1.66258e+57
          2093.68600	        -1.29362e+57
          2094.49230	         1.50313e+57
          2095.29860	         6.53972e+57
          2096.10490	         2.47667e+57
          2096.91120	         4.08410e+56
          2097.71750	         7.31329e+56
          2098.52380	        -2.93821e+56
          2099.33010	         7.47241e+56
          2100.13640	         1.19752e+57
          2100.94270	         1.99942e+57
          2101.74900	         3.57882e+57
          2102.55530	         1.82945e+57
          2103.36160	         1.15694e+57
          2104.16790	         3.37539e+57
          2104.97420	         2.50661e+57
          2105.78050	         2.04786e+57
          2106.58680	         7.20585e+56
          2107.39310	        -5.74026e+56
          2108.19940	         3.54557e+57
          2109.00570	         1.79357e+57
          2109.81200	        -1.64246e+56
          2110.61830	         2.97694e+57
          2111.42460	         9.34854e+56
          2112.23090	         1.34859e+57
          2113.03720	         2.15129e+57
          2113.84350	         3.98325e+57
          2114.64980	         1.07721e+57
          2115.45610	         1.89144e+57
          2116.26240	        -6.26431e+57
          2117.06870	         2.37160e+56
          2117.87500	        -1.07061e+57
          2118.68130	        -7.59957e+56
          2119.48760	         4.10054e+57
          2120.29390	         1.10374e+57
          2121.10020	         5.64569e+56
          2121.90650	         3.30370e+57
          2122.71280	         2.06917e+57
          2123.51910	         6.83378e+57
          2124.32540	         3.24001e+56
          2125.13170	         2.50981e+57
          2125.93800	         2.36907e+57
          2126.74430	        -1.62333e+57
          2127.55060	        -3.41589e+57
          2128.35690	        -4.76463e+57
          2129.16320	        -3.31201e+57
          2129.96950	        -5.18908e+57
          2130.77580	         1.25817e+57
          2131.58210	        -5.89274e+57
          2132.38840	        -4.16999e+57
          2133.19470	        -9.96584e+56
          2134.00100	        -9.45603e+56
          2134.80730	        -1.19091e+58
          2135.61360	        -6.51009e+57
          2136.41990	        -6.27244e+55
          2137.22620	         6.25071e+56
          2138.03250	         1.25028e+57
          2138.83880	        -2.87345e+57
          2139.64510	        -4.44442e+57
          2140.45140	        -6.04334e+57
          2141.25770	        -1.65947e+58
          2142.06400	        -1.05315e+58
          2142.87030	         6.17660e+57
          2143.67660	         2.10547e+57
          2144.48290	         9.80787e+56
          2145.28920	         6.13118e+57
          2146.09550	        -1.89320e+57
          2146.90180	        -5.15712e+57
          2147.70810	        -1.81810e+57
          2148.51440	        -8.45272e+57
          2149.32070	        -1.67998e+57
          2150.12700	        -7.17243e+57
          2150.93330	        -4.94751e+57
          2151.73960	         1.35773e+57
          2152.54590	         1.04737e+57
          2153.35220	         4.83077e+57
          2154.15850	        -7.22819e+56
          2154.96480	        -9.16858e+56
          2155.77110	         8.38307e+57
          2156.57740	         1.64378e+57
          2157.38370	         1.24557e+57
          2158.19000	         7.42456e+55
          2158.99630	        -5.03847e+57
          2159.80260	        -4.78630e+57
          2160.60890	        -9.89221e+57
          2161.41520	        -7.94448e+57
          2162.22150	        -1.41006e+58
          2163.02780	        -4.56710e+57
          2163.83410	        -9.60152e+57
          2164.64040	        -1.12883e+58
          2165.44670	        -1.23746e+58
          2166.25300	        -6.40741e+57
          2167.05930	        -4.87054e+57
          2167.86560	        -1.55596e+58
          2168.67190	        -1.72061e+58
          2169.47820	         3.40493e+57
          2170.28450	        -5.39574e+57
          2171.09080	        -7.63636e+56
          2171.89710	        -5.17834e+57
          2172.70340	        -2.69314e+56
          2173.50970	        -6.23390e+57
          2174.31600	        -2.43573e+57
          2175.12230	        -1.59647e+57
          2175.92860	        -5.34865e+57
          2176.73490	        -1.25148e+58
          2177.54120	        -7.36314e+57
          2178.34750	         7.04675e+56
          2179.15380	                 nan
          2179.96010	                 nan
          2180.76640	                 nan
          2181.57270	                 nan
          2182.37900	                 nan
          2183.18530	                 nan
          2183.99160	                 nan
          2184.79790	                 nan
          2185.60420	                 nan
          2186.41050	                 nan
          2187.21680	                 nan
          2188.02310	                 nan
          2188.82940	                 nan
          2189.63570	                 nan
          2190.44200	                 nan
          2191.24830	                 nan
          2192.05460	                 nan
          2192.86090	                 nan
          2193.66720	                 nan
          2194.47350	                 nan
          2195.27980	                 nan
          2196.08610	                 nan
          2196.89240	                 nan
          2197.69870	                 nan
          2198.50500	                 nan
          2199.31130	                 nan
          2200.11760	                 nan
          2200.92390	                 nan
          2201.73020	                 nan
          2202.53650	                 nan
          2203.34280	                 nan
          2204.14910	                 nan
          2204.95540	                 nan
          2205.76170	                 nan
          2206.56800	                 nan
          2207.37430	                 nan
          2208.18060	                 nan
          2208.98690	                 nan
          2209.79320	                 nan
          2210.59950	                 nan
          2211.40580	                 nan
          2212.21210	                 nan
          2213.01840	                 nan
          2213.82470	                 nan
          2214.63100	                 nan
          2215.43730	         0.00000e+00
