#sample_24_stacked_spectrum_rest_UV-bands_median_H-alpha_noDC.txt
#median Lum: 1.68777e+42
#Rest-frame wavelength (A) | Luminosity (erg/s/A)
#
          1110.00000	         0.00000e+00
          1110.80630	         2.55510e+58
          1111.61260	        -1.13896e+58
          1112.41890	        -5.56961e+58
          1113.22520	        -2.61486e+59
          1114.03150	        -2.81659e+59
          1114.83780	        -5.93528e+58
          1115.64410	        -6.46497e+58
          1116.45040	        -1.73605e+59
          1117.25670	        -1.44665e+59
          1118.06300	         1.74607e+59
          1118.86930	         6.09486e+58
          1119.67560	         1.75290e+59
          1120.48190	         1.31122e+58
          1121.28820	        -1.61146e+59
          1122.09450	        -8.82370e+58
          1122.90080	        -1.10755e+57
          1123.70710	         2.33407e+58
          1124.51340	         5.69590e+58
          1125.31970	        -9.87454e+57
          1126.12600	         1.57804e+58
          1126.93230	        -1.13554e+58
          1127.73860	        -5.27857e+58
          1128.54490	        -7.81162e+57
          1129.35120	        -1.01825e+58
          1130.15750	        -1.44563e+58
          1130.96380	         1.14260e+57
          1131.77010	         6.72830e+58
          1132.57640	         4.50778e+58
          1133.38270	         2.96343e+58
          1134.18900	         1.48537e+58
          1134.99530	         2.30080e+58
          1135.80160	         9.91658e+57
          1136.60790	         1.08090e+58
          1137.41420	        -8.07959e+57
          1138.22050	         2.62332e+58
          1139.02680	         3.20511e+58
          1139.83310	         1.82282e+58
          1140.63940	         1.71736e+58
          1141.44570	        -1.67414e+58
          1142.25200	        -1.13946e+58
          1143.05830	         1.48963e+58
          1143.86460	         3.52405e+58
          1144.67090	         3.20406e+58
          1145.47720	         2.63146e+58
          1146.28350	         5.22206e+57
          1147.08980	         5.20777e+57
          1147.89610	         2.30967e+58
          1148.70240	         2.72108e+58
          1149.50870	         2.27609e+58
          1150.31500	        -7.24986e+57
          1151.12130	        -3.67471e+57
          1151.92760	         2.81041e+57
          1152.73390	         1.73261e+57
          1153.54020	        -5.99807e+57
          1154.34650	         1.30473e+58
          1155.15280	         1.83797e+58
          1155.95910	         4.44316e+57
          1156.76540	         4.80627e+57
          1157.57170	         1.34792e+58
          1158.37800	         1.47656e+58
          1159.18430	         1.29153e+58
          1159.99060	         8.03490e+57
          1160.79690	         7.55103e+57
          1161.60320	         1.15089e+58
          1162.40950	         1.57713e+58
          1163.21580	         1.86381e+58
          1164.02210	         9.13313e+57
          1164.82840	         7.32159e+57
          1165.63470	         1.87282e+58
          1166.44100	         2.90094e+58
          1167.24730	         2.20689e+58
          1168.05360	         4.68164e+57
          1168.85990	         6.56856e+57
          1169.66620	         5.68303e+57
          1170.47250	         1.05334e+58
          1171.27880	         1.19830e+58
          1172.08510	         1.31905e+58
          1172.89140	         7.12847e+57
          1173.69770	         1.20058e+58
          1174.50400	         1.19136e+58
          1175.31030	         1.49022e+58
          1176.11660	         1.86344e+58
          1176.92290	         1.07028e+58
          1177.72920	         1.11808e+58
          1178.53550	         8.78709e+57
          1179.34180	         4.41550e+57
          1180.14810	         3.68792e+57
          1180.95440	         6.72566e+57
          1181.76070	         7.10978e+57
          1182.56700	         1.16780e+58
          1183.37330	         6.28845e+57
          1184.17960	         7.02397e+57
          1184.98590	         1.29543e+58
          1185.79220	         9.23866e+57
          1186.59850	         8.25360e+57
          1187.40480	         6.74642e+57
          1188.21110	         1.51074e+58
          1189.01740	         7.65367e+57
          1189.82370	         5.40836e+57
          1190.63000	         1.07000e+58
          1191.43630	         2.09657e+58
          1192.24260	         1.10514e+58
          1193.04890	         9.09758e+57
          1193.85520	         7.46492e+57
          1194.66150	         7.07763e+57
          1195.46780	         9.43932e+57
          1196.27410	         1.38306e+58
          1197.08040	         1.13375e+58
          1197.88670	         1.70568e+58
          1198.69300	         1.70719e+58
          1199.49930	         1.76342e+58
          1200.30560	         1.02920e+58
          1201.11190	         7.82509e+57
          1201.91820	         6.56225e+57
          1202.72450	         7.20967e+57
          1203.53080	         1.28294e+58
          1204.33710	         5.62009e+57
          1205.14340	         4.42525e+57
          1205.94970	         6.66151e+57
          1206.75600	         9.69679e+57
          1207.56230	         7.49817e+57
          1208.36860	         9.60711e+57
          1209.17490	         4.26389e+57
          1209.98120	         3.50598e+57
          1210.78750	         1.06878e+58
          1211.59380	         1.63596e+58
          1212.40010	         1.86209e+58
          1213.20640	         1.64688e+58
          1214.01270	         1.90229e+58
          1214.81900	         2.61713e+58
          1215.62530	         4.73570e+58
          1216.43160	         9.17147e+58
          1217.23790	         1.51475e+59
          1218.04420	         1.19166e+59
          1218.85050	         9.20170e+58
          1219.65680	         5.87776e+58
          1220.46310	         3.04311e+58
          1221.26940	         2.07703e+58
          1222.07570	         1.04564e+58
          1222.88200	         8.02743e+57
          1223.68830	         1.04723e+58
          1224.49460	         6.90989e+57
          1225.30090	         5.30280e+57
          1226.10720	         6.94993e+57
          1226.91350	         7.43259e+57
          1227.71980	         9.20692e+57
          1228.52610	         1.31541e+58
          1229.33240	         9.67412e+57
          1230.13870	         9.07195e+57
          1230.94500	         8.87097e+57
          1231.75130	         9.71950e+57
          1232.55760	         9.16173e+57
          1233.36390	         8.82413e+57
          1234.17020	         1.03193e+58
          1234.97650	         8.32270e+57
          1235.78280	         8.79323e+57
          1236.58910	         1.02369e+58
          1237.39540	         1.00454e+58
          1238.20170	         9.72652e+57
          1239.00800	         1.28211e+58
          1239.81430	         1.35334e+58
          1240.62060	         1.11166e+58
          1241.42690	         1.13676e+58
          1242.23320	         1.35679e+58
          1243.03950	         1.17751e+58
          1243.84580	         1.08736e+58
          1244.65210	         1.13689e+58
          1245.45840	         1.03083e+58
          1246.26470	         8.99058e+57
          1247.07100	         6.68579e+57
          1247.87730	         6.37398e+57
          1248.68360	         4.52760e+57
          1249.48990	         1.11779e+58
          1250.29620	         9.67955e+57
          1251.10250	         7.42365e+57
          1251.90880	         8.00042e+57
          1252.71510	         5.91905e+57
          1253.52140	         7.19547e+57
          1254.32770	         1.24841e+58
          1255.13400	         1.52008e+58
          1255.94030	         1.35548e+58
          1256.74660	         1.13094e+58
          1257.55290	         1.07644e+58
          1258.35920	         8.68315e+57
          1259.16550	         5.91587e+57
          1259.97180	         4.04399e+57
          1260.77810	         7.32939e+57
          1261.58440	         1.11535e+58
          1262.39070	         8.02673e+57
          1263.19700	         8.22151e+57
          1264.00330	         8.72117e+57
          1264.80960	         1.06713e+58
          1265.61590	         1.34586e+58
          1266.42220	         1.28714e+58
          1267.22850	         9.93793e+57
          1268.03480	         1.40810e+58
          1268.84110	         1.62206e+58
          1269.64740	         1.19311e+58
          1270.45370	         1.26970e+58
          1271.26000	         1.20687e+58
          1272.06630	         1.17631e+58
          1272.87260	         1.47539e+58
          1273.67890	         1.41350e+58
          1274.48520	         1.17854e+58
          1275.29150	         1.18309e+58
          1276.09780	         1.14079e+58
          1276.90410	         1.42990e+58
          1277.71040	         1.28698e+58
          1278.51670	         1.22422e+58
          1279.32300	         1.50654e+58
          1280.12930	         1.33791e+58
          1280.93560	         1.22910e+58
          1281.74190	         1.35208e+58
          1282.54820	         1.35966e+58
          1283.35450	         1.14773e+58
          1284.16080	         1.24833e+58
          1284.96710	         1.31493e+58
          1285.77340	         1.10445e+58
          1286.57970	         1.27547e+58
          1287.38600	         1.48419e+58
          1288.19230	         1.62232e+58
          1288.99860	         1.40398e+58
          1289.80490	         9.60656e+57
          1290.61120	         1.17249e+58
          1291.41750	         1.30817e+58
          1292.22380	         1.22056e+58
          1293.03010	         1.06215e+58
          1293.83640	         9.86097e+57
          1294.64270	         9.56138e+57
          1295.44900	         8.26429e+57
          1296.25530	         9.42241e+57
          1297.06160	         1.07652e+58
          1297.86790	         1.07279e+58
          1298.67420	         9.52490e+57
          1299.48050	         8.27091e+57
          1300.28680	         9.22259e+57
          1301.09310	         7.26508e+57
          1301.89940	         4.99944e+57
          1302.70570	         7.09839e+57
          1303.51200	         8.14673e+57
          1304.31830	         9.24045e+57
          1305.12460	         1.08160e+58
          1305.93090	         1.07654e+58
          1306.73720	         1.08811e+58
          1307.54350	         1.28701e+58
          1308.34980	         1.43463e+58
          1309.15610	         1.44269e+58
          1309.96240	         1.74942e+58
          1310.76870	         1.72949e+58
          1311.57500	         1.12363e+58
          1312.38130	         1.04805e+58
          1313.18760	         1.52349e+58
          1313.99390	         1.67210e+58
          1314.80020	         1.68935e+58
          1315.60650	         1.42552e+58
          1316.41280	         1.23435e+58
          1317.21910	         1.19161e+58
          1318.02540	         1.13922e+58
          1318.83170	         1.27460e+58
          1319.63800	         1.31725e+58
          1320.44430	         1.24663e+58
          1321.25060	         1.30479e+58
          1322.05690	         1.24496e+58
          1322.86320	         1.20058e+58
          1323.66950	         1.15607e+58
          1324.47580	         9.53313e+57
          1325.28210	         9.50980e+57
          1326.08840	         1.19857e+58
          1326.89470	         1.33839e+58
          1327.70100	         1.03700e+58
          1328.50730	         9.07566e+57
          1329.31360	         9.92359e+57
          1330.11990	         9.78950e+57
          1330.92620	         7.24235e+57
          1331.73250	         9.57219e+57
          1332.53880	         9.55692e+57
          1333.34510	         9.39318e+57
          1334.15140	         9.09645e+57
          1334.95770	         8.29444e+57
          1335.76400	         1.06916e+58
          1336.57030	         1.17530e+58
          1337.37660	         1.13834e+58
          1338.18290	         1.17817e+58
          1338.98920	         1.28030e+58
          1339.79550	         1.28974e+58
          1340.60180	         1.33450e+58
          1341.40810	         1.44245e+58
          1342.21440	         1.41931e+58
          1343.02070	         1.38735e+58
          1343.82700	         1.39077e+58
          1344.63330	         1.32376e+58
          1345.43960	         1.36890e+58
          1346.24590	         1.14891e+58
          1347.05220	         1.08048e+58
          1347.85850	         1.04618e+58
          1348.66480	         1.20555e+58
          1349.47110	         1.30777e+58
          1350.27740	         1.20381e+58
          1351.08370	         1.09365e+58
          1351.89000	         1.09671e+58
          1352.69630	         1.23269e+58
          1353.50260	         1.29339e+58
          1354.30890	         1.30095e+58
          1355.11520	         1.23975e+58
          1355.92150	         1.14061e+58
          1356.72780	         1.14551e+58
          1357.53410	         1.05971e+58
          1358.34040	         1.00843e+58
          1359.14670	         1.04728e+58
          1359.95300	         1.14556e+58
          1360.75930	         1.07472e+58
          1361.56560	         1.07548e+58
          1362.37190	         1.18277e+58
          1363.17820	         1.16728e+58
          1363.98450	         1.15952e+58
          1364.79080	         1.23052e+58
          1365.59710	         1.35877e+58
          1366.40340	         1.19958e+58
          1367.20970	         1.09948e+58
          1368.01600	         1.17582e+58
          1368.82230	         1.01997e+58
          1369.62860	         9.26207e+57
          1370.43490	         8.75485e+57
          1371.24120	         1.00972e+58
          1372.04750	         8.90253e+57
          1372.85380	         1.02198e+58
          1373.66010	         1.04548e+58
          1374.46640	         9.89995e+57
          1375.27270	         1.14103e+58
          1376.07900	         1.02832e+58
          1376.88530	         9.37586e+57
          1377.69160	         9.35667e+57
          1378.49790	         7.81257e+57
          1379.30420	         6.94514e+57
          1380.11050	         8.53601e+57
          1380.91680	         7.65939e+57
          1381.72310	         6.41132e+57
          1382.52940	         7.12010e+57
          1383.33570	         8.54482e+57
          1384.14200	         1.09006e+58
          1384.94830	         1.02265e+58
          1385.75460	         9.68467e+57
          1386.56090	         1.15434e+58
          1387.36720	         1.12289e+58
          1388.17350	         1.22541e+58
          1388.97980	         1.10095e+58
          1389.78610	         8.71235e+57
          1390.59240	         8.20709e+57
          1391.39870	         7.88460e+57
          1392.20500	         9.34602e+57
          1393.01130	         8.74164e+57
          1393.81760	         7.87593e+57
          1394.62390	         6.84816e+57
          1395.43020	         4.90325e+57
          1396.23650	         6.63384e+57
          1397.04280	         6.99747e+57
          1397.84910	         8.38768e+57
          1398.65540	         9.12764e+57
          1399.46170	         9.76896e+57
          1400.26800	         6.95751e+57
          1401.07430	         6.19816e+57
          1401.88060	         8.26303e+57
          1402.68690	         9.58095e+57
          1403.49320	         9.43022e+57
          1404.29950	         9.66554e+57
          1405.10580	         1.08018e+58
          1405.91210	         1.18320e+58
          1406.71840	         1.06245e+58
          1407.52470	         9.60808e+57
          1408.33100	         9.72674e+57
          1409.13730	         1.12009e+58
          1409.94360	         1.16823e+58
          1410.74990	         1.21336e+58
          1411.55620	         1.08195e+58
          1412.36250	         9.33508e+57
          1413.16880	         1.02240e+58
          1413.97510	         9.26756e+57
          1414.78140	         8.18426e+57
          1415.58770	         9.42787e+57
          1416.39400	         1.03878e+58
          1417.20030	         9.88222e+57
          1418.00660	         8.39731e+57
          1418.81290	         7.92350e+57
          1419.61920	         9.13702e+57
          1420.42550	         1.21532e+58
          1421.23180	         1.36175e+58
          1422.03810	         1.34868e+58
          1422.84440	         1.14064e+58
          1423.65070	         1.29919e+58
          1424.45700	         1.13350e+58
          1425.26330	         7.36364e+57
          1426.06960	         8.77958e+57
          1426.87590	         1.05447e+58
          1427.68220	         1.06410e+58
          1428.48850	         1.16759e+58
          1429.29480	         1.09013e+58
          1430.10110	         1.03011e+58
          1430.90740	         9.34280e+57
          1431.71370	         8.83055e+57
          1432.52000	         7.89816e+57
          1433.32630	         7.94853e+57
          1434.13260	         7.98256e+57
          1434.93890	         8.38422e+57
          1435.74520	         9.62477e+57
          1436.55150	         9.70300e+57
          1437.35780	         8.96572e+57
          1438.16410	         9.02021e+57
          1438.97040	         1.04714e+58
          1439.77670	         1.05809e+58
          1440.58300	         1.01383e+58
          1441.38930	         1.02469e+58
          1442.19560	         1.00648e+58
          1443.00190	         9.57174e+57
          1443.80820	         9.36459e+57
          1444.61450	         9.07042e+57
          1445.42080	         9.23226e+57
          1446.22710	         1.00017e+58
          1447.03340	         9.93086e+57
          1447.83970	         1.03991e+58
          1448.64600	         1.03372e+58
          1449.45230	         9.80169e+57
          1450.25860	         1.03464e+58
          1451.06490	         8.80900e+57
          1451.87120	         7.32262e+57
          1452.67750	         7.20887e+57
          1453.48380	         9.29011e+57
          1454.29010	         9.43476e+57
          1455.09640	         8.89136e+57
          1455.90270	         9.94788e+57
          1456.70900	         8.19089e+57
          1457.51530	         9.16900e+57
          1458.32160	         1.13920e+58
          1459.12790	         1.07013e+58
          1459.93420	         9.04894e+57
          1460.74050	         8.08863e+57
          1461.54680	         8.27686e+57
          1462.35310	         7.96910e+57
          1463.15940	         9.32431e+57
          1463.96570	         1.05837e+58
          1464.77200	         1.09210e+58
          1465.57830	         1.12650e+58
          1466.38460	         9.61079e+57
          1467.19090	         8.78125e+57
          1467.99720	         8.66519e+57
          1468.80350	         9.77678e+57
          1469.60980	         9.82817e+57
          1470.41610	         1.13781e+58
          1471.22240	         1.07137e+58
          1472.02870	         9.56084e+57
          1472.83500	         9.67849e+57
          1473.64130	         9.42467e+57
          1474.44760	         8.99714e+57
          1475.25390	         9.26634e+57
          1476.06020	         7.68997e+57
          1476.86650	         8.24031e+57
          1477.67280	         8.73444e+57
          1478.47910	         5.52187e+57
          1479.28540	         6.13646e+57
          1480.09170	         9.14252e+57
          1480.89800	         9.51748e+57
          1481.70430	         7.99347e+57
          1482.51060	         8.44620e+57
          1483.31690	         8.89488e+57
          1484.12320	         7.84436e+57
          1484.92950	         7.40526e+57
          1485.73580	         8.08572e+57
          1486.54210	         8.14509e+57
          1487.34840	         8.60170e+57
          1488.15470	         7.37058e+57
          1488.96100	         7.81695e+57
          1489.76730	         8.84792e+57
          1490.57360	         8.67279e+57
          1491.37990	         7.59072e+57
          1492.18620	         8.15085e+57
          1492.99250	         8.66886e+57
          1493.79880	         8.59810e+57
          1494.60510	         8.09953e+57
          1495.41140	         7.38920e+57
          1496.21770	         7.48027e+57
          1497.02400	         1.01800e+58
          1497.83030	         9.44140e+57
          1498.63660	         7.38852e+57
          1499.44290	         6.74911e+57
          1500.24920	         7.17687e+57
          1501.05550	         8.10453e+57
          1501.86180	         8.14120e+57
          1502.66810	         9.09653e+57
          1503.47440	         9.12420e+57
          1504.28070	         7.81675e+57
          1505.08700	         8.28654e+57
          1505.89330	         8.65215e+57
          1506.69960	         8.17253e+57
          1507.50590	         8.31352e+57
          1508.31220	         8.79976e+57
          1509.11850	         7.72079e+57
          1509.92480	         8.41101e+57
          1510.73110	         9.50783e+57
          1511.53740	         7.93331e+57
          1512.34370	         6.62616e+57
          1513.15000	         7.98331e+57
          1513.95630	         1.01907e+58
          1514.76260	         1.00516e+58
          1515.56890	         8.65796e+57
          1516.37520	         9.22404e+57
          1517.18150	         9.11553e+57
          1517.98780	         7.16382e+57
          1518.79410	         6.23549e+57
          1519.60040	         7.34278e+57
          1520.40670	         8.43125e+57
          1521.21300	         9.29492e+57
          1522.01930	         7.97285e+57
          1522.82560	         8.06034e+57
          1523.63190	         9.94500e+57
          1524.43820	         8.94948e+57
          1525.24450	         6.37800e+57
          1526.05080	         5.29405e+57
          1526.85710	         6.38527e+57
          1527.66340	         6.80124e+57
          1528.46970	         7.18972e+57
          1529.27600	         7.64996e+57
          1530.08230	         8.06043e+57
          1530.88860	         8.05512e+57
          1531.69490	         9.27240e+57
          1532.50120	         9.83440e+57
          1533.30750	         9.48501e+57
          1534.11380	         9.63219e+57
          1534.92010	         9.75704e+57
          1535.72640	         9.80666e+57
          1536.53270	         9.95480e+57
          1537.33900	         9.37367e+57
          1538.14530	         8.36575e+57
          1538.95160	         8.64671e+57
          1539.75790	         8.67488e+57
          1540.56420	         8.59579e+57
          1541.37050	         8.88643e+57
          1542.17680	         8.39380e+57
          1542.98310	         8.05333e+57
          1543.78940	         8.08784e+57
          1544.59570	         7.30353e+57
          1545.40200	         8.43192e+57
          1546.20830	         9.91553e+57
          1547.01460	         1.05958e+58
          1547.82090	         1.23454e+58
          1548.62720	         1.20937e+58
          1549.43350	         1.13505e+58
          1550.23980	         1.11338e+58
          1551.04610	         1.18453e+58
          1551.85240	         1.14707e+58
          1552.65870	         1.18292e+58
          1553.46500	         1.07761e+58
          1554.27130	         9.31246e+57
          1555.07760	         9.85331e+57
          1555.88390	         9.07527e+57
          1556.69020	         8.76786e+57
          1557.49650	         9.08733e+57
          1558.30280	         8.67072e+57
          1559.10910	         8.66006e+57
          1559.91540	         8.76223e+57
          1560.72170	         8.62927e+57
          1561.52800	         7.57196e+57
          1562.33430	         7.93212e+57
          1563.14060	         8.33011e+57
          1563.94690	         8.68559e+57
          1564.75320	         8.18099e+57
          1565.55950	         6.71141e+57
          1566.36580	         7.21165e+57
          1567.17210	         9.76390e+57
          1567.97840	         9.47926e+57
          1568.78470	         8.95412e+57
          1569.59100	         9.00479e+57
          1570.39730	         9.09448e+57
          1571.20360	         7.83335e+57
          1572.00990	         7.33030e+57
          1572.81620	         8.89814e+57
          1573.62250	         1.02444e+58
          1574.42880	         8.83954e+57
          1575.23510	         7.25788e+57
          1576.04140	         8.62110e+57
          1576.84770	         9.63590e+57
          1577.65400	         8.35905e+57
          1578.46030	         9.11933e+57
          1579.26660	         1.01150e+58
          1580.07290	         8.79904e+57
          1580.87920	         7.10657e+57
          1581.68550	         7.80544e+57
          1582.49180	         8.32239e+57
          1583.29810	         7.92706e+57
          1584.10440	         8.33080e+57
          1584.91070	         7.77477e+57
          1585.71700	         8.02596e+57
          1586.52330	         7.93053e+57
          1587.32960	         7.71204e+57
          1588.13590	         8.02307e+57
          1588.94220	         7.84163e+57
          1589.74850	         8.48254e+57
          1590.55480	         9.12318e+57
          1591.36110	         8.67521e+57
          1592.16740	         8.52813e+57
          1592.97370	         8.23214e+57
          1593.78000	         8.54651e+57
          1594.58630	         9.10097e+57
          1595.39260	         7.85888e+57
          1596.19890	         8.02205e+57
          1597.00520	         1.01204e+58
          1597.81150	         9.30280e+57
          1598.61780	         7.69763e+57
          1599.42410	         7.64948e+57
          1600.23040	         7.61158e+57
          1601.03670	         7.34647e+57
          1601.84300	         7.43490e+57
          1602.64930	         8.37478e+57
          1603.45560	         9.50995e+57
          1604.26190	         8.72635e+57
          1605.06820	         7.54302e+57
          1605.87450	         7.03701e+57
          1606.68080	         7.21681e+57
          1607.48710	         6.06078e+57
          1608.29340	         6.13969e+57
          1609.09970	         6.49115e+57
          1609.90600	         7.40063e+57
          1610.71230	         6.92751e+57
          1611.51860	         6.76095e+57
          1612.32490	         6.19243e+57
          1613.13120	         7.40903e+57
          1613.93750	         8.56862e+57
          1614.74380	         9.08529e+57
          1615.55010	         7.75294e+57
          1616.35640	         8.71317e+57
          1617.16270	         1.05310e+58
          1617.96900	         9.62394e+57
          1618.77530	         8.46399e+57
          1619.58160	         8.08738e+57
          1620.38790	         7.12044e+57
          1621.19420	         8.60903e+57
          1622.00050	         8.51916e+57
          1622.80680	         1.00539e+58
          1623.61310	         9.74112e+57
          1624.41940	         8.06611e+57
          1625.22570	         8.10222e+57
          1626.03200	         8.63040e+57
          1626.83830	         8.51477e+57
          1627.64460	         7.34560e+57
          1628.45090	         6.44357e+57
          1629.25720	         8.73961e+57
          1630.06350	         9.25655e+57
          1630.86980	         6.01566e+57
          1631.67610	         7.99026e+57
          1632.48240	         8.76701e+57
          1633.28870	         9.12383e+57
          1634.09500	         9.74020e+57
          1634.90130	         1.01549e+58
          1635.70760	         8.50219e+57
          1636.51390	         6.62165e+57
          1637.32020	         6.68431e+57
          1638.12650	         8.30589e+57
          1638.93280	         8.70083e+57
          1639.73910	         9.91447e+57
          1640.54540	         1.04381e+58
          1641.35170	         9.01617e+57
          1642.15800	         9.02785e+57
          1642.96430	         9.43474e+57
          1643.77060	         7.61036e+57
          1644.57690	         6.77296e+57
          1645.38320	         7.94334e+57
          1646.18950	         7.01198e+57
          1646.99580	         8.55572e+57
          1647.80210	         8.28043e+57
          1648.60840	         7.97319e+57
          1649.41470	         9.19067e+57
          1650.22100	         7.66438e+57
          1651.02730	         6.87138e+57
          1651.83360	         7.13500e+57
          1652.63990	         8.69339e+57
          1653.44620	         8.94706e+57
          1654.25250	         7.21171e+57
          1655.05880	         7.35118e+57
          1655.86510	         8.34475e+57
          1656.67140	         8.41274e+57
          1657.47770	         8.51821e+57
          1658.28400	         9.05266e+57
          1659.09030	         9.30646e+57
          1659.89660	         9.05157e+57
          1660.70290	         9.66164e+57
          1661.50920	         1.01454e+58
          1662.31550	         8.69939e+57
          1663.12180	         8.50281e+57
          1663.92810	         9.96510e+57
          1664.73440	         1.14276e+58
          1665.54070	         1.16904e+58
          1666.34700	         1.16816e+58
          1667.15330	         1.14713e+58
          1667.95960	         9.22737e+57
          1668.76590	         7.54980e+57
          1669.57220	         6.60975e+57
          1670.37850	         7.19868e+57
          1671.18480	         8.20552e+57
          1671.99110	         7.54239e+57
          1672.79740	         7.41371e+57
          1673.60370	         7.42203e+57
          1674.41000	         8.31688e+57
          1675.21630	         7.86607e+57
          1676.02260	         5.71813e+57
          1676.82890	         5.72076e+57
          1677.63520	         7.17826e+57
          1678.44150	         7.44039e+57
          1679.24780	         7.54734e+57
          1680.05410	         7.33255e+57
          1680.86040	         6.58871e+57
          1681.66670	         6.78886e+57
          1682.47300	         7.39033e+57
          1683.27930	         8.49929e+57
          1684.08560	         9.42057e+57
          1684.89190	         7.84436e+57
          1685.69820	         6.25220e+57
          1686.50450	         5.81002e+57
          1687.31080	         6.97020e+57
          1688.11710	         8.08249e+57
          1688.92340	         7.70080e+57
          1689.72970	         7.02514e+57
          1690.53600	         6.54526e+57
          1691.34230	         7.51347e+57
          1692.14860	         8.35657e+57
          1692.95490	         7.97180e+57
          1693.76120	         7.38109e+57
          1694.56750	         7.52620e+57
          1695.37380	         8.42717e+57
          1696.18010	         9.06941e+57
          1696.98640	         8.59635e+57
          1697.79270	         8.27114e+57
          1698.59900	         7.77922e+57
          1699.40530	         7.28921e+57
          1700.21160	         7.85136e+57
          1701.01790	         9.00372e+57
          1701.82420	         8.35460e+57
          1702.63050	         8.33814e+57
          1703.43680	         8.82860e+57
          1704.24310	         8.56971e+57
          1705.04940	         8.01330e+57
          1705.85570	         8.19331e+57
          1706.66200	         8.60645e+57
          1707.46830	         9.09540e+57
          1708.27460	         8.34351e+57
          1709.08090	         6.74455e+57
          1709.88720	         5.93572e+57
          1710.69350	         6.42316e+57
          1711.49980	         6.61209e+57
          1712.30610	         7.94828e+57
          1713.11240	         9.47960e+57
          1713.91870	         7.41066e+57
          1714.72500	         8.09798e+57
          1715.53130	         9.94246e+57
          1716.33760	         7.86177e+57
          1717.14390	         7.20617e+57
          1717.95020	         7.90120e+57
          1718.75650	         7.77894e+57
          1719.56280	         8.13670e+57
          1720.36910	         7.49384e+57
          1721.17540	         7.55781e+57
          1721.98170	         6.44344e+57
          1722.78800	         5.87618e+57
          1723.59430	         6.99638e+57
          1724.40060	         8.37616e+57
          1725.20690	         8.59955e+57
          1726.01320	         7.90181e+57
          1726.81950	         6.90514e+57
          1727.62580	         7.56704e+57
          1728.43210	         7.26552e+57
          1729.23840	         7.28121e+57
          1730.04470	         7.72180e+57
          1730.85100	         7.64548e+57
          1731.65730	         7.11290e+57
          1732.46360	         7.47273e+57
          1733.26990	         6.77462e+57
          1734.07620	         7.21062e+57
          1734.88250	         8.13040e+57
          1735.68880	         8.04926e+57
          1736.49510	         7.61956e+57
          1737.30140	         7.55180e+57
          1738.10770	         6.69127e+57
          1738.91400	         7.02011e+57
          1739.72030	         7.33704e+57
          1740.52660	         6.25432e+57
          1741.33290	         6.39235e+57
          1742.13920	         6.16981e+57
          1742.94550	         7.09503e+57
          1743.75180	         7.81361e+57
          1744.55810	         8.33180e+57
          1745.36440	         7.84011e+57
          1746.17070	         6.58295e+57
          1746.97700	         5.80455e+57
          1747.78330	         6.76052e+57
          1748.58960	         6.90083e+57
          1749.39590	         6.15308e+57
          1750.20220	         5.20069e+57
          1751.00850	         5.16857e+57
          1751.81480	         6.30049e+57
          1752.62110	         7.11299e+57
          1753.42740	         8.03938e+57
          1754.23370	         6.71043e+57
          1755.04000	         6.12032e+57
          1755.84630	         6.52843e+57
          1756.65260	         8.25761e+57
          1757.45890	         9.13115e+57
          1758.26520	         7.83634e+57
          1759.07150	         9.55369e+57
          1759.87780	         9.40096e+57
          1760.68410	         8.37552e+57
          1761.49040	         8.72426e+57
          1762.29670	         7.30211e+57
          1763.10300	         7.30551e+57
          1763.90930	         7.42707e+57
          1764.71560	         7.88370e+57
          1765.52190	         8.43382e+57
          1766.32820	         8.16013e+57
          1767.13450	         7.91033e+57
          1767.94080	         6.95378e+57
          1768.74710	         6.23887e+57
          1769.55340	         6.61004e+57
          1770.35970	         6.20881e+57
          1771.16600	         7.07395e+57
          1771.97230	         8.37469e+57
          1772.77860	         9.14276e+57
          1773.58490	         8.35352e+57
          1774.39120	         6.23247e+57
          1775.19750	         5.74678e+57
          1776.00380	         6.47577e+57
          1776.81010	         6.27382e+57
          1777.61640	         6.38349e+57
          1778.42270	         6.91467e+57
          1779.22900	         6.97487e+57
          1780.03530	         6.83814e+57
          1780.84160	         7.33929e+57
          1781.64790	         8.77516e+57
          1782.45420	         7.49095e+57
          1783.26050	         6.84045e+57
          1784.06680	         8.12064e+57
          1784.87310	         8.20984e+57
          1785.67940	         8.53771e+57
          1786.48570	         8.18384e+57
          1787.29200	         6.81412e+57
          1788.09830	         5.76791e+57
          1788.90460	         5.24077e+57
          1789.71090	         5.17656e+57
          1790.51720	         5.39460e+57
          1791.32350	         7.42758e+57
          1792.12980	         8.75552e+57
          1792.93610	         8.13901e+57
          1793.74240	         7.50843e+57
          1794.54870	         7.86844e+57
          1795.35500	         8.95944e+57
          1796.16130	         8.88971e+57
          1796.96760	         7.26196e+57
          1797.77390	         6.39930e+57
          1798.58020	         7.00447e+57
          1799.38650	         6.13253e+57
          1800.19280	         6.67152e+57
          1800.99910	         8.26230e+57
          1801.80540	         7.52011e+57
          1802.61170	         8.26025e+57
          1803.41800	         9.03230e+57
          1804.22430	         7.40366e+57
          1805.03060	         6.60852e+57
          1805.83690	         7.86878e+57
          1806.64320	         8.55002e+57
          1807.44950	         7.57179e+57
          1808.25580	         6.71877e+57
          1809.06210	         8.61476e+57
          1809.86840	         8.39925e+57
          1810.67470	         7.84196e+57
          1811.48100	         8.32390e+57
          1812.28730	         7.98030e+57
          1813.09360	         7.16034e+57
          1813.89990	         7.54442e+57
          1814.70620	         7.53020e+57
          1815.51250	         7.93239e+57
          1816.31880	         8.51570e+57
          1817.12510	         7.51734e+57
          1817.93140	         6.38245e+57
          1818.73770	         7.43800e+57
          1819.54400	         8.83034e+57
          1820.35030	         9.22151e+57
          1821.15660	         6.54881e+57
          1821.96290	         5.91383e+57
          1822.76920	         7.08550e+57
          1823.57550	         7.83627e+57
          1824.38180	         8.41915e+57
          1825.18810	         8.67741e+57
          1825.99440	         8.75146e+57
          1826.80070	         8.13337e+57
          1827.60700	         6.99825e+57
          1828.41330	         5.64925e+57
          1829.21960	         7.07599e+57
          1830.02590	         7.27866e+57
          1830.83220	         7.34001e+57
          1831.63850	         7.55293e+57
          1832.44480	         6.39937e+57
          1833.25110	         7.20008e+57
          1834.05740	         8.26829e+57
          1834.86370	         6.29044e+57
          1835.67000	         5.26845e+57
          1836.47630	         7.58415e+57
          1837.28260	         9.13032e+57
          1838.08890	         9.06858e+57
          1838.89520	         8.39587e+57
          1839.70150	         6.83893e+57
          1840.50780	         7.09763e+57
          1841.31410	         6.99247e+57
          1842.12040	         6.56984e+57
          1842.92670	         6.79222e+57
          1843.73300	         7.24308e+57
          1844.53930	         7.35736e+57
          1845.34560	         7.05706e+57
          1846.15190	         6.48241e+57
          1846.95820	         7.28250e+57
          1847.76450	         7.31901e+57
          1848.57080	         6.40730e+57
          1849.37710	         7.56955e+57
          1850.18340	         7.35817e+57
          1850.98970	         7.92483e+57
          1851.79600	         8.36943e+57
          1852.60230	         7.85883e+57
          1853.40860	         7.90076e+57
          1854.21490	         6.94517e+57
          1855.02120	         6.41722e+57
          1855.82750	         4.79636e+57
          1856.63380	         6.16191e+57
          1857.44010	         7.40136e+57
          1858.24640	         7.79881e+57
          1859.05270	         7.71797e+57
          1859.85900	         6.53122e+57
          1860.66530	         6.15570e+57
          1861.47160	         7.34533e+57
          1862.27790	         6.43935e+57
          1863.08420	         6.79267e+57
          1863.89050	         7.78184e+57
          1864.69680	         7.82369e+57
          1865.50310	         6.95142e+57
          1866.30940	         5.73276e+57
          1867.11570	         6.15793e+57
          1867.92200	         7.02590e+57
          1868.72830	         7.04585e+57
          1869.53460	         6.73127e+57
          1870.34090	         6.59436e+57
          1871.14720	         7.81865e+57
          1871.95350	         7.55013e+57
          1872.75980	         6.88188e+57
          1873.56610	         7.30249e+57
          1874.37240	         6.66739e+57
          1875.17870	         6.16013e+57
          1875.98500	         7.48927e+57
          1876.79130	         7.46075e+57
          1877.59760	         7.31901e+57
          1878.40390	         7.01604e+57
          1879.21020	         6.67917e+57
          1880.01650	         6.74758e+57
          1880.82280	         7.82166e+57
          1881.62910	         9.04960e+57
          1882.43540	         9.22957e+57
          1883.24170	         7.73126e+57
          1884.04800	         6.47666e+57
          1884.85430	         6.48537e+57
          1885.66060	         7.03923e+57
          1886.46690	         8.04252e+57
          1887.27320	         8.45187e+57
          1888.07950	         7.07429e+57
          1888.88580	         7.49405e+57
          1889.69210	         9.22951e+57
          1890.49840	         8.23187e+57
          1891.30470	         8.92092e+57
          1892.11100	         9.14079e+57
          1892.91730	         8.57122e+57
          1893.72360	         7.67947e+57
          1894.52990	         7.47854e+57
          1895.33620	         8.16012e+57
          1896.14250	         6.66518e+57
          1896.94880	         5.40447e+57
          1897.75510	         4.81537e+57
          1898.56140	         5.81071e+57
          1899.36770	         7.53002e+57
          1900.17400	         6.24220e+57
          1900.98030	         6.64770e+57
          1901.78660	         7.11859e+57
          1902.59290	         7.23497e+57
          1903.39920	         8.53179e+57
          1904.20550	         8.85967e+57
          1905.01180	         8.17503e+57
          1905.81810	         9.76156e+57
          1906.62440	         1.23798e+58
          1907.43070	         1.46915e+58
          1908.23700	         1.51888e+58
          1909.04330	         1.32918e+58
          1909.84960	         1.21518e+58
          1910.65590	         1.06125e+58
          1911.46220	         8.98342e+57
          1912.26850	         7.08151e+57
          1913.07480	         4.72092e+57
          1913.88110	         5.18288e+57
          1914.68740	         5.51041e+57
          1915.49370	         5.81564e+57
          1916.30000	         6.51387e+57
          1917.10630	         7.40318e+57
          1917.91260	         7.18414e+57
          1918.71890	         5.84999e+57
          1919.52520	         5.36346e+57
          1920.33150	         4.72600e+57
          1921.13780	         6.17899e+57
          1921.94410	         7.84397e+57
          1922.75040	         7.30718e+57
          1923.55670	         7.41035e+57
          1924.36300	         6.63823e+57
          1925.16930	         6.22713e+57
          1925.97560	         6.88278e+57
          1926.78190	         5.18828e+57
          1927.58820	         5.65371e+57
          1928.39450	         6.13680e+57
          1929.20080	         5.94422e+57
          1930.00710	         6.66671e+57
          1930.81340	         8.15020e+57
          1931.61970	         8.04648e+57
          1932.42600	         7.52271e+57
          1933.23230	         9.14538e+57
          1934.03860	         7.54171e+57
          1934.84490	         5.43091e+57
          1935.65120	         7.94665e+57
          1936.45750	         9.44154e+57
          1937.26380	         8.65194e+57
          1938.07010	         7.64017e+57
          1938.87640	         6.85830e+57
          1939.68270	         7.04075e+57
          1940.48900	         7.80200e+57
          1941.29530	         7.74105e+57
          1942.10160	         7.06079e+57
          1942.90790	         6.90852e+57
          1943.71420	         5.71999e+57
          1944.52050	         5.73886e+57
          1945.32680	         6.17869e+57
          1946.13310	         7.57007e+57
          1946.93940	         7.86562e+57
          1947.74570	         6.94380e+57
          1948.55200	         6.57508e+57
          1949.35830	         6.00745e+57
          1950.16460	         5.46698e+57
          1950.97090	         6.41043e+57
          1951.77720	         7.63507e+57
          1952.58350	         7.67717e+57
          1953.38980	         6.75578e+57
          1954.19610	         4.28854e+57
          1955.00240	         4.68324e+57
          1955.80870	         5.29889e+57
          1956.61500	         5.93502e+57
          1957.42130	         6.14953e+57
          1958.22760	         7.03499e+57
          1959.03390	         6.57179e+57
          1959.84020	         7.07502e+57
          1960.64650	         7.02531e+57
          1961.45280	         6.88558e+57
          1962.25910	         7.21967e+57
          1963.06540	         7.04112e+57
          1963.87170	         6.10731e+57
          1964.67800	         6.67651e+57
          1965.48430	         6.36888e+57
          1966.29060	         6.45701e+57
          1967.09690	         8.20907e+57
          1967.90320	         8.18515e+57
          1968.70950	         6.43270e+57
          1969.51580	         5.69645e+57
          1970.32210	         7.48126e+57
          1971.12840	         8.03294e+57
          1971.93470	         4.90457e+57
          1972.74100	         4.43234e+57
          1973.54730	         6.38928e+57
          1974.35360	         6.96387e+57
          1975.15990	         6.82117e+57
          1975.96620	         6.60125e+57
          1976.77250	         7.47122e+57
          1977.57880	         7.34365e+57
          1978.38510	         6.59976e+57
          1979.19140	         7.36086e+57
          1979.99770	         8.27557e+57
          1980.80400	         8.09174e+57
          1981.61030	         7.52638e+57
          1982.41660	         6.70790e+57
          1983.22290	         6.62185e+57
          1984.02920	         4.82597e+57
          1984.83550	         5.26373e+57
          1985.64180	         5.63654e+57
          1986.44810	         6.62715e+57
          1987.25440	         6.55545e+57
          1988.06070	         4.89197e+57
          1988.86700	         6.77071e+57
          1989.67330	         6.59532e+57
          1990.47960	         6.34347e+57
          1991.28590	         6.35281e+57
          1992.09220	         5.99147e+57
          1992.89850	         5.45465e+57
          1993.70480	         4.82172e+57
          1994.51110	         4.05967e+57
          1995.31740	         3.89806e+57
          1996.12370	         5.39507e+57
          1996.93000	         5.92278e+57
          1997.73630	         7.87230e+57
          1998.54260	         8.04449e+57
          1999.34890	         7.26908e+57
          2000.15520	         7.21181e+57
          2000.96150	         6.38476e+57
          2001.76780	         6.38296e+57
          2002.57410	         6.04960e+57
          2003.38040	         6.98879e+57
          2004.18670	         7.24954e+57
          2004.99300	         6.28258e+57
          2005.79930	         7.44478e+57
          2006.60560	         7.02155e+57
          2007.41190	         6.81727e+57
          2008.21820	         6.89856e+57
          2009.02450	         7.61067e+57
          2009.83080	         6.91607e+57
          2010.63710	         6.70835e+57
          2011.44340	         7.27134e+57
          2012.24970	         7.05516e+57
          2013.05600	         6.76175e+57
          2013.86230	         6.54032e+57
          2014.66860	         5.52252e+57
          2015.47490	         6.76137e+57
          2016.28120	         6.45196e+57
          2017.08750	         5.90959e+57
          2017.89380	         6.27055e+57
          2018.70010	         6.43354e+57
          2019.50640	         6.33397e+57
          2020.31270	         6.16536e+57
          2021.11900	         6.57441e+57
          2021.92530	         7.37774e+57
          2022.73160	         7.88416e+57
          2023.53790	         5.99508e+57
          2024.34420	         6.63090e+57
          2025.15050	         5.45025e+57
          2025.95680	         4.93173e+57
          2026.76310	         5.51154e+57
          2027.56940	         6.71300e+57
          2028.37570	         6.00890e+57
          2029.18200	         5.00268e+57
          2029.98830	         5.48841e+57
          2030.79460	         6.19169e+57
          2031.60090	         5.01464e+57
          2032.40720	         4.91918e+57
          2033.21350	         4.90909e+57
          2034.01980	         5.04906e+57
          2034.82610	         5.44943e+57
          2035.63240	         5.56193e+57
          2036.43870	         5.56723e+57
          2037.24500	         6.57987e+57
          2038.05130	         5.77122e+57
          2038.85760	         4.62302e+57
          2039.66390	         5.40429e+57
          2040.47020	         5.93432e+57
          2041.27650	         6.57590e+57
          2042.08280	         4.52733e+57
          2042.88910	         4.21151e+57
          2043.69540	         6.37192e+57
          2044.50170	         5.94654e+57
          2045.30800	         5.24466e+57
          2046.11430	         4.56094e+57
          2046.92060	         5.30628e+57
          2047.72690	         6.29511e+57
          2048.53320	         5.92910e+57
          2049.33950	         4.97978e+57
          2050.14580	         4.41564e+57
          2050.95210	         6.85414e+57
          2051.75840	         7.62521e+57
          2052.56470	         6.68838e+57
          2053.37100	         4.84572e+57
          2054.17730	         5.42114e+57
          2054.98360	         6.71740e+57
          2055.78990	         4.39195e+57
          2056.59620	         2.24793e+57
          2057.40250	         4.17476e+57
          2058.20880	         6.95239e+57
          2059.01510	         7.55849e+57
          2059.82140	         6.15954e+57
          2060.62770	         1.04784e+58
          2061.43400	         1.78356e+58
          2062.24030	         1.32496e+58
          2063.04660	         2.86854e+57
          2063.85290	         1.68038e+57
          2064.65920	        -2.49485e+57
          2065.46550	        -9.01964e+57
          2066.27180	        -1.10894e+58
          2067.07810	         3.42456e+57
          2067.88440	         4.62337e+57
          2068.69070	         5.49959e+57
          2069.49700	         3.98252e+57
          2070.30330	         4.25248e+57
          2071.10960	         6.77492e+57
          2071.91590	         6.58949e+57
          2072.72220	         4.58241e+57
          2073.52850	         4.30364e+57
          2074.33480	         4.65915e+57
          2075.14110	         5.24610e+57
          2075.94740	         3.77571e+57
          2076.75370	         4.33656e+57
          2077.56000	         4.48194e+57
          2078.36630	         4.30632e+57
          2079.17260	         4.80376e+57
          2079.97890	         4.84200e+57
          2080.78520	         4.66779e+57
          2081.59150	         4.56310e+57
          2082.39780	         4.50578e+57
          2083.20410	         2.29911e+57
          2084.01040	         3.19163e+57
          2084.81670	         4.11401e+57
          2085.62300	         2.79159e+57
          2086.42930	         4.60649e+57
          2087.23560	         2.73083e+57
          2088.04190	         3.34916e+57
          2088.84820	         2.62310e+57
          2089.65450	         9.78092e+56
          2090.46080	         2.65885e+57
          2091.26710	         2.91911e+57
          2092.07340	         3.45325e+57
          2092.87970	         2.99737e+57
          2093.68600	        -4.10635e+56
          2094.49230	        -8.06088e+55
          2095.29860	         2.90948e+57
          2096.10490	         3.83444e+57
          2096.91120	         1.86386e+57
          2097.71750	         8.64932e+56
          2098.52380	         9.88676e+56
          2099.33010	         1.06014e+57
          2100.13640	         1.77478e+57
          2100.94270	         1.52189e+57
          2101.74900	         3.06269e+57
          2102.55530	         1.60713e+57
          2103.36160	         8.35858e+56
          2104.16790	         4.76084e+57
          2104.97420	         3.19396e+57
          2105.78050	         1.69717e+57
          2106.58680	         2.56411e+57
          2107.39310	        -1.49349e+57
          2108.19940	         1.30758e+57
          2109.00570	         3.53474e+56
          2109.81200	        -2.47087e+54
          2110.61830	         1.96050e+57
          2111.42460	         8.70223e+56
          2112.23090	        -1.40058e+57
          2113.03720	        -2.32612e+57
          2113.84350	        -1.51149e+56
          2114.64980	         5.66458e+57
          2115.45610	        -1.02084e+57
          2116.26240	        -7.12805e+57
          2117.06870	         1.53211e+56
          2117.87500	         2.74087e+57
          2118.68130	         2.31275e+57
          2119.48760	         2.77493e+57
          2120.29390	         2.71585e+57
          2121.10020	        -9.77487e+56
          2121.90650	        -3.97936e+57
          2122.71280	         1.28336e+57
          2123.51910	         5.06764e+57
          2124.32540	         3.30451e+57
          2125.13170	         4.71132e+56
          2125.93800	        -2.63816e+57
          2126.74430	        -3.99939e+57
          2127.55060	        -2.28357e+57
          2128.35690	        -1.06182e+57
          2129.16320	        -9.15368e+57
          2129.96950	        -5.69858e+57
          2130.77580	        -2.82569e+57
          2131.58210	         1.14443e+56
          2132.38840	        -3.73811e+57
          2133.19470	         2.07688e+57
          2134.00100	         5.79267e+57
          2134.80730	         2.02317e+57
          2135.61360	        -4.37711e+56
          2136.41990	         2.60240e+57
          2137.22620	         4.54621e+57
          2138.03250	        -7.79432e+57
          2138.83880	        -4.34113e+57
          2139.64510	        -5.70974e+57
          2140.45140	        -8.54430e+57
          2141.25770	        -8.29894e+57
          2142.06400	        -6.30480e+56
          2142.87030	         6.35482e+56
          2143.67660	        -7.33029e+57
          2144.48290	        -6.59919e+57
          2145.28920	         1.26300e+58
          2146.09550	         1.71253e+56
          2146.90180	        -1.09515e+58
          2147.70810	        -5.63369e+57
          2148.51440	        -6.51413e+57
          2149.32070	        -7.56734e+57
          2150.12700	        -1.30482e+58
          2150.93330	        -5.57810e+57
          2151.73960	         3.84923e+57
          2152.54590	         4.73674e+57
          2153.35220	        -2.67323e+57
          2154.15850	        -6.21250e+57
          2154.96480	        -8.05761e+56
          2155.77110	        -7.49677e+57
          2156.57740	        -1.81818e+57
          2157.38370	         2.26934e+57
          2158.19000	        -1.04578e+58
          2158.99630	        -6.49162e+57
          2159.80260	        -1.18604e+58
          2160.60890	        -1.11365e+58
          2161.41520	        -4.74321e+57
          2162.22150	        -1.78253e+57
          2163.02780	        -3.50259e+57
          2163.83410	        -5.15585e+57
          2164.64040	        -2.71392e+57
          2165.44670	        -9.10953e+57
          2166.25300	        -3.03903e+57
          2167.05930	        -5.55184e+57
          2167.86560	        -4.30936e+57
          2168.67190	        -1.01904e+58
          2169.47820	        -1.65849e+58
          2170.28450	        -1.00989e+58
          2171.09080	        -1.07224e+57
          2171.89710	        -2.19957e+57
          2172.70340	         1.38167e+57
          2173.50970	        -5.63170e+57
          2174.31600	        -5.98314e+57
          2175.12230	        -2.58037e+57
          2175.92860	        -8.03476e+57
          2176.73490	        -6.02013e+57
          2177.54120	        -2.21145e+56
          2178.34750	        -2.64414e+54
          2179.15380	                 nan
          2179.96010	                 nan
          2180.76640	                 nan
          2181.57270	                 nan
          2182.37900	                 nan
          2183.18530	                 nan
          2183.99160	                 nan
          2184.79790	                 nan
          2185.60420	                 nan
          2186.41050	                 nan
          2187.21680	                 nan
          2188.02310	                 nan
          2188.82940	                 nan
          2189.63570	                 nan
          2190.44200	                 nan
          2191.24830	                 nan
          2192.05460	                 nan
          2192.86090	                 nan
          2193.66720	                 nan
          2194.47350	                 nan
          2195.27980	                 nan
          2196.08610	                 nan
          2196.89240	                 nan
          2197.69870	                 nan
          2198.50500	                 nan
          2199.31130	                 nan
          2200.11760	                 nan
          2200.92390	                 nan
          2201.73020	                 nan
          2202.53650	                 nan
          2203.34280	                 nan
          2204.14910	                 nan
          2204.95540	                 nan
          2205.76170	                 nan
          2206.56800	                 nan
          2207.37430	                 nan
          2208.18060	                 nan
          2208.98690	                 nan
          2209.79320	                 nan
          2210.59950	                 nan
          2211.40580	                 nan
          2212.21210	                 nan
          2213.01840	                 nan
          2213.82470	                 nan
          2214.63100	                 nan
          2215.43730	         0.00000e+00
