#sample_112_stacked_spectrum_rest_UV-bands_median_H-alpha_noDC.txt
#median Lum: 1.69302e+42
#Rest-frame wavelength (A) | Luminosity (erg/s/A)
#
          1110.00000	         0.00000e+00
          1110.80630	         1.19516e+59
          1111.61260	         7.93372e+57
          1112.41890	        -7.67326e+58
          1113.22520	        -3.77822e+58
          1114.03150	        -2.31866e+59
          1114.83780	         1.80162e+59
          1115.64410	         3.30263e+59
          1116.45040	         1.56992e+59
          1117.25670	        -2.08307e+58
          1118.06300	         1.46232e+59
          1118.86930	        -4.62982e+58
          1119.67560	         4.53240e+58
          1120.48190	         2.39815e+58
          1121.28820	        -2.10965e+58
          1122.09450	         5.98516e+58
          1122.90080	         5.56816e+58
          1123.70710	         4.88111e+58
          1124.51340	         2.55591e+58
          1125.31970	        -9.80909e+58
          1126.12600	        -7.41843e+58
          1126.93230	        -5.12545e+58
          1127.73860	        -4.34925e+58
          1128.54490	        -4.29892e+57
          1129.35120	        -2.20283e+58
          1130.15750	        -4.20179e+58
          1130.96380	        -3.57839e+58
          1131.77010	         4.10484e+58
          1132.57640	         6.76805e+58
          1133.38270	         4.40303e+58
          1134.18900	         1.32791e+58
          1134.99530	         1.55897e+58
          1135.80160	         1.79542e+58
          1136.60790	         2.41046e+58
          1137.41420	        -1.29534e+58
          1138.22050	         2.87634e+58
          1139.02680	         4.87909e+58
          1139.83310	         3.70379e+58
          1140.63940	         3.06833e+58
          1141.44570	        -6.24669e+57
          1142.25200	         5.10044e+56
          1143.05830	         2.83686e+58
          1143.86460	         2.19524e+58
          1144.67090	         1.25720e+58
          1145.47720	         1.56035e+58
          1146.28350	         9.94004e+57
          1147.08980	         6.94160e+57
          1147.89610	         1.32506e+58
          1148.70240	         2.52408e+58
          1149.50870	         3.36157e+58
          1150.31500	         2.90880e+58
          1151.12130	         7.42045e+57
          1151.92760	         3.72317e+57
          1152.73390	         8.31302e+57
          1153.54020	         8.99705e+57
          1154.34650	         1.87441e+58
          1155.15280	         2.22982e+58
          1155.95910	         1.04864e+58
          1156.76540	         3.82077e+57
          1157.57170	        -1.02709e+58
          1158.37800	        -2.43417e+57
          1159.18430	         3.04899e+57
          1159.99060	         8.52302e+57
          1160.79690	        -9.85339e+56
          1161.60320	         6.06085e+56
          1162.40950	         7.98679e+57
          1163.21580	         2.47775e+58
          1164.02210	         1.61296e+58
          1164.82840	         1.25723e+58
          1165.63470	         2.46157e+58
          1166.44100	         3.58414e+58
          1167.24730	         2.10896e+58
          1168.05360	         7.66620e+57
          1168.85990	         8.69088e+57
          1169.66620	         1.75096e+58
          1170.47250	         1.68142e+58
          1171.27880	        -3.70842e+56
          1172.08510	        -1.83209e+57
          1172.89140	         6.39029e+57
          1173.69770	         2.98421e+57
          1174.50400	         1.11265e+58
          1175.31030	         1.91509e+58
          1176.11660	         1.83012e+58
          1176.92290	         1.73585e+58
          1177.72920	         1.41121e+58
          1178.53550	         4.14184e+57
          1179.34180	        -9.49469e+56
          1180.14810	         4.37986e+57
          1180.95440	         7.70793e+57
          1181.76070	         2.90463e+57
          1182.56700	         6.42743e+57
          1183.37330	         1.11976e+58
          1184.17960	         2.01158e+58
          1184.98590	         1.33667e+58
          1185.79220	         6.34928e+57
          1186.59850	         1.20902e+58
          1187.40480	         1.30515e+58
          1188.21110	         1.54669e+58
          1189.01740	         7.89998e+57
          1189.82370	         1.08170e+58
          1190.63000	         1.59720e+58
          1191.43630	         1.86847e+58
          1192.24260	         1.27285e+58
          1193.04890	         9.40575e+57
          1193.85520	         6.96139e+57
          1194.66150	         5.91142e+57
          1195.46780	         1.12028e+58
          1196.27410	         1.45831e+58
          1197.08040	         1.15303e+58
          1197.88670	         1.32771e+58
          1198.69300	         1.80580e+58
          1199.49930	         1.55466e+58
          1200.30560	         9.17265e+57
          1201.11190	         1.51782e+58
          1201.91820	         1.28192e+58
          1202.72450	         7.18644e+57
          1203.53080	         1.63185e+58
          1204.33710	         9.79288e+57
          1205.14340	         5.38370e+57
          1205.94970	         4.49448e+57
          1206.75600	         5.92549e+57
          1207.56230	         5.64962e+57
          1208.36860	         9.49690e+57
          1209.17490	         4.36134e+57
          1209.98120	         6.78572e+57
          1210.78750	         5.07964e+57
          1211.59380	         8.89066e+57
          1212.40010	         1.86064e+58
          1213.20640	         1.93042e+58
          1214.01270	         1.88080e+58
          1214.81900	         2.19064e+58
          1215.62530	         4.11060e+58
          1216.43160	         9.31412e+58
          1217.23790	         1.52197e+59
          1218.04420	         1.12351e+59
          1218.85050	         8.55188e+58
          1219.65680	         6.03880e+58
          1220.46310	         3.77360e+58
          1221.26940	         2.05411e+58
          1222.07570	         1.32679e+58
          1222.88200	         1.35803e+58
          1223.68830	         1.06557e+58
          1224.49460	         7.74189e+57
          1225.30090	         6.68765e+57
          1226.10720	         5.12765e+57
          1226.91350	         6.65310e+57
          1227.71980	         1.02497e+58
          1228.52610	         1.17429e+58
          1229.33240	         8.07261e+57
          1230.13870	         9.11898e+57
          1230.94500	         1.07128e+58
          1231.75130	         5.34308e+57
          1232.55760	         5.62766e+57
          1233.36390	         6.88061e+57
          1234.17020	         8.73449e+57
          1234.97650	         9.57370e+57
          1235.78280	         5.63698e+57
          1236.58910	         9.84123e+57
          1237.39540	         1.18521e+58
          1238.20170	         9.09482e+57
          1239.00800	         1.36354e+58
          1239.81430	         1.38780e+58
          1240.62060	         9.44128e+57
          1241.42690	         1.06847e+58
          1242.23320	         1.26375e+58
          1243.03950	         7.02140e+57
          1243.84580	         6.71946e+57
          1244.65210	         1.14283e+58
          1245.45840	         1.18559e+58
          1246.26470	         1.06516e+58
          1247.07100	         8.11284e+57
          1247.87730	         7.61347e+57
          1248.68360	         4.03959e+57
          1249.48990	         1.20956e+58
          1250.29620	         1.04443e+58
          1251.10250	         7.42010e+57
          1251.90880	         4.98877e+57
          1252.71510	         5.40495e+57
          1253.52140	         1.02123e+58
          1254.32770	         1.06016e+58
          1255.13400	         1.18372e+58
          1255.94030	         1.24035e+58
          1256.74660	         1.04501e+58
          1257.55290	         8.83491e+57
          1258.35920	         7.69705e+57
          1259.16550	         4.37254e+57
          1259.97180	         5.93084e+57
          1260.77810	         1.00285e+58
          1261.58440	         1.09136e+58
          1262.39070	         8.79394e+57
          1263.19700	         9.62955e+57
          1264.00330	         1.12836e+58
          1264.80960	         1.25559e+58
          1265.61590	         1.23977e+58
          1266.42220	         1.32490e+58
          1267.22850	         1.15029e+58
          1268.03480	         1.35608e+58
          1268.84110	         1.54791e+58
          1269.64740	         1.22522e+58
          1270.45370	         1.10911e+58
          1271.26000	         1.10027e+58
          1272.06630	         1.22910e+58
          1272.87260	         1.37794e+58
          1273.67890	         1.39559e+58
          1274.48520	         1.05735e+58
          1275.29150	         1.01892e+58
          1276.09780	         8.54381e+57
          1276.90410	         1.11966e+58
          1277.71040	         1.30384e+58
          1278.51670	         1.35104e+58
          1279.32300	         1.45786e+58
          1280.12930	         1.30938e+58
          1280.93560	         8.88336e+57
          1281.74190	         1.10666e+58
          1282.54820	         1.39248e+58
          1283.35450	         1.05024e+58
          1284.16080	         1.03972e+58
          1284.96710	         1.43902e+58
          1285.77340	         1.36774e+58
          1286.57970	         1.12459e+58
          1287.38600	         1.55646e+58
          1288.19230	         1.77354e+58
          1288.99860	         1.36587e+58
          1289.80490	         1.03167e+58
          1290.61120	         1.38032e+58
          1291.41750	         1.47528e+58
          1292.22380	         1.13028e+58
          1293.03010	         1.12864e+58
          1293.83640	         1.24984e+58
          1294.64270	         1.06347e+58
          1295.44900	         6.25117e+57
          1296.25530	         7.24459e+57
          1297.06160	         9.37365e+57
          1297.86790	         9.76652e+57
          1298.67420	         9.95228e+57
          1299.48050	         1.10434e+58
          1300.28680	         1.07908e+58
          1301.09310	         7.78416e+57
          1301.89940	         5.32173e+57
          1302.70570	         7.32392e+57
          1303.51200	         9.06247e+57
          1304.31830	         1.06337e+58
          1305.12460	         1.06336e+58
          1305.93090	         1.15967e+58
          1306.73720	         1.30787e+58
          1307.54350	         1.45429e+58
          1308.34980	         1.52488e+58
          1309.15610	         1.48609e+58
          1309.96240	         1.46204e+58
          1310.76870	         1.48316e+58
          1311.57500	         1.21574e+58
          1312.38130	         1.17248e+58
          1313.18760	         1.49323e+58
          1313.99390	         1.62302e+58
          1314.80020	         1.58580e+58
          1315.60650	         1.77023e+58
          1316.41280	         1.41613e+58
          1317.21910	         1.10727e+58
          1318.02540	         1.22812e+58
          1318.83170	         1.40177e+58
          1319.63800	         1.29989e+58
          1320.44430	         1.14427e+58
          1321.25060	         1.20890e+58
          1322.05690	         1.24409e+58
          1322.86320	         1.18684e+58
          1323.66950	         1.10393e+58
          1324.47580	         1.09556e+58
          1325.28210	         1.07193e+58
          1326.08840	         1.18673e+58
          1326.89470	         1.20534e+58
          1327.70100	         1.10128e+58
          1328.50730	         9.96432e+57
          1329.31360	         1.08812e+58
          1330.11990	         1.07456e+58
          1330.92620	         9.78217e+57
          1331.73250	         1.15631e+58
          1332.53880	         1.03275e+58
          1333.34510	         8.07457e+57
          1334.15140	         8.50534e+57
          1334.95770	         9.34278e+57
          1335.76400	         1.02699e+58
          1336.57030	         1.13335e+58
          1337.37660	         1.09239e+58
          1338.18290	         9.51054e+57
          1338.98920	         1.14738e+58
          1339.79550	         1.14093e+58
          1340.60180	         1.00970e+58
          1341.40810	         1.26429e+58
          1342.21440	         1.19558e+58
          1343.02070	         1.14769e+58
          1343.82700	         1.47900e+58
          1344.63330	         1.35040e+58
          1345.43960	         1.20216e+58
          1346.24590	         1.31335e+58
          1347.05220	         1.39748e+58
          1347.85850	         1.05493e+58
          1348.66480	         1.05642e+58
          1349.47110	         1.19518e+58
          1350.27740	         1.17150e+58
          1351.08370	         1.03190e+58
          1351.89000	         1.01594e+58
          1352.69630	         1.17490e+58
          1353.50260	         1.27455e+58
          1354.30890	         1.29575e+58
          1355.11520	         1.24015e+58
          1355.92150	         1.05804e+58
          1356.72780	         1.03132e+58
          1357.53410	         1.03488e+58
          1358.34040	         1.06548e+58
          1359.14670	         9.99639e+57
          1359.95300	         1.08325e+58
          1360.75930	         1.20842e+58
          1361.56560	         1.26286e+58
          1362.37190	         1.19891e+58
          1363.17820	         1.02047e+58
          1363.98450	         1.08287e+58
          1364.79080	         1.32748e+58
          1365.59710	         1.40112e+58
          1366.40340	         1.20868e+58
          1367.20970	         1.03564e+58
          1368.01600	         1.13353e+58
          1368.82230	         1.05634e+58
          1369.62860	         1.11069e+58
          1370.43490	         8.81184e+57
          1371.24120	         8.51438e+57
          1372.04750	         8.45746e+57
          1372.85380	         1.00215e+58
          1373.66010	         9.99823e+57
          1374.46640	         9.90569e+57
          1375.27270	         1.04299e+58
          1376.07900	         9.20555e+57
          1376.88530	         7.41513e+57
          1377.69160	         7.77469e+57
          1378.49790	         8.00669e+57
          1379.30420	         8.89344e+57
          1380.11050	         9.69556e+57
          1380.91680	         7.84032e+57
          1381.72310	         7.28559e+57
          1382.52940	         8.19129e+57
          1383.33570	         8.65356e+57
          1384.14200	         8.98647e+57
          1384.94830	         9.93301e+57
          1385.75460	         1.03313e+58
          1386.56090	         1.04524e+58
          1387.36720	         1.04741e+58
          1388.17350	         1.13473e+58
          1388.97980	         1.17501e+58
          1389.78610	         9.98766e+57
          1390.59240	         9.25610e+57
          1391.39870	         8.42395e+57
          1392.20500	         8.22651e+57
          1393.01130	         8.44418e+57
          1393.81760	         6.95646e+57
          1394.62390	         7.32890e+57
          1395.43020	         6.03974e+57
          1396.23650	         7.14498e+57
          1397.04280	         8.57999e+57
          1397.84910	         9.01046e+57
          1398.65540	         9.60067e+57
          1399.46170	         9.96958e+57
          1400.26800	         9.31906e+57
          1401.07430	         7.95755e+57
          1401.88060	         9.09446e+57
          1402.68690	         1.04622e+58
          1403.49320	         1.05970e+58
          1404.29950	         9.27932e+57
          1405.10580	         1.01527e+58
          1405.91210	         1.05989e+58
          1406.71840	         9.67471e+57
          1407.52470	         1.02038e+58
          1408.33100	         1.11047e+58
          1409.13730	         1.20664e+58
          1409.94360	         1.22539e+58
          1410.74990	         1.22433e+58
          1411.55620	         1.03287e+58
          1412.36250	         9.16773e+57
          1413.16880	         9.24169e+57
          1413.97510	         9.39372e+57
          1414.78140	         9.85191e+57
          1415.58770	         1.05445e+58
          1416.39400	         1.12257e+58
          1417.20030	         1.19180e+58
          1418.00660	         1.00978e+58
          1418.81290	         1.13728e+58
          1419.61920	         1.24887e+58
          1420.42550	         1.14724e+58
          1421.23180	         1.32746e+58
          1422.03810	         1.35352e+58
          1422.84440	         1.23226e+58
          1423.65070	         1.33776e+58
          1424.45700	         1.16215e+58
          1425.26330	         8.94132e+57
          1426.06960	         8.85241e+57
          1426.87590	         9.44655e+57
          1427.68220	         1.02032e+58
          1428.48850	         1.08702e+58
          1429.29480	         1.07901e+58
          1430.10110	         9.78895e+57
          1430.90740	         8.45067e+57
          1431.71370	         8.31391e+57
          1432.52000	         8.72686e+57
          1433.32630	         7.71604e+57
          1434.13260	         7.68409e+57
          1434.93890	         7.71215e+57
          1435.74520	         8.76308e+57
          1436.55150	         9.22128e+57
          1437.35780	         8.64867e+57
          1438.16410	         8.94823e+57
          1438.97040	         8.51916e+57
          1439.77670	         8.52918e+57
          1440.58300	         9.89804e+57
          1441.38930	         1.01646e+58
          1442.19560	         9.99430e+57
          1443.00190	         9.31043e+57
          1443.80820	         1.10689e+58
          1444.61450	         1.03839e+58
          1445.42080	         9.38468e+57
          1446.22710	         1.09708e+58
          1447.03340	         1.05224e+58
          1447.83970	         1.04243e+58
          1448.64600	         9.08911e+57
          1449.45230	         9.16528e+57
          1450.25860	         1.07590e+58
          1451.06490	         9.23120e+57
          1451.87120	         7.61635e+57
          1452.67750	         6.72532e+57
          1453.48380	         7.87553e+57
          1454.29010	         8.22526e+57
          1455.09640	         7.17818e+57
          1455.90270	         7.56480e+57
          1456.70900	         8.62238e+57
          1457.51530	         1.05277e+58
          1458.32160	         1.21030e+58
          1459.12790	         1.23595e+58
          1459.93420	         1.05700e+58
          1460.74050	         8.27815e+57
          1461.54680	         8.59890e+57
          1462.35310	         8.39721e+57
          1463.15940	         1.02495e+58
          1463.96570	         1.15174e+58
          1464.77200	         1.16597e+58
          1465.57830	         9.78241e+57
          1466.38460	         7.57325e+57
          1467.19090	         8.45493e+57
          1467.99720	         9.13633e+57
          1468.80350	         9.93677e+57
          1469.60980	         1.03411e+58
          1470.41610	         1.04836e+58
          1471.22240	         9.18997e+57
          1472.02870	         9.51867e+57
          1472.83500	         9.86613e+57
          1473.64130	         1.01561e+58
          1474.44760	         9.94633e+57
          1475.25390	         8.98246e+57
          1476.06020	         9.39980e+57
          1476.86650	         9.92128e+57
          1477.67280	         9.77754e+57
          1478.47910	         7.82286e+57
          1479.28540	         7.24732e+57
          1480.09170	         8.88515e+57
          1480.89800	         9.32518e+57
          1481.70430	         9.43940e+57
          1482.51060	         7.50769e+57
          1483.31690	         7.00367e+57
          1484.12320	         7.68859e+57
          1484.92950	         8.36038e+57
          1485.73580	         7.51403e+57
          1486.54210	         7.79918e+57
          1487.34840	         7.98999e+57
          1488.15470	         8.33691e+57
          1488.96100	         8.31937e+57
          1489.76730	         8.20073e+57
          1490.57360	         7.22725e+57
          1491.37990	         7.11618e+57
          1492.18620	         8.70941e+57
          1492.99250	         8.16059e+57
          1493.79880	         7.96748e+57
          1494.60510	         8.09596e+57
          1495.41140	         7.16145e+57
          1496.21770	         8.29406e+57
          1497.02400	         9.97773e+57
          1497.83030	         8.36406e+57
          1498.63660	         8.08202e+57
          1499.44290	         7.25720e+57
          1500.24920	         6.84550e+57
          1501.05550	         7.98885e+57
          1501.86180	         8.95116e+57
          1502.66810	         8.72847e+57
          1503.47440	         8.91319e+57
          1504.28070	         8.36673e+57
          1505.08700	         8.22765e+57
          1505.89330	         9.52433e+57
          1506.69960	         8.41595e+57
          1507.50590	         7.97664e+57
          1508.31220	         8.37192e+57
          1509.11850	         8.07804e+57
          1509.92480	         8.88870e+57
          1510.73110	         8.63704e+57
          1511.53740	         7.81018e+57
          1512.34370	         7.27562e+57
          1513.15000	         8.76565e+57
          1513.95630	         9.84750e+57
          1514.76260	         9.47897e+57
          1515.56890	         8.27486e+57
          1516.37520	         7.76582e+57
          1517.18150	         7.67620e+57
          1517.98780	         7.30115e+57
          1518.79410	         6.64436e+57
          1519.60040	         7.97533e+57
          1520.40670	         8.85133e+57
          1521.21300	         8.57329e+57
          1522.01930	         8.93946e+57
          1522.82560	         9.93705e+57
          1523.63190	         9.53680e+57
          1524.43820	         8.15673e+57
          1525.24450	         6.84457e+57
          1526.05080	         6.62887e+57
          1526.85710	         6.03551e+57
          1527.66340	         5.69113e+57
          1528.46970	         7.45365e+57
          1529.27600	         7.82687e+57
          1530.08230	         7.49423e+57
          1530.88860	         7.69392e+57
          1531.69490	         8.70410e+57
          1532.50120	         8.17023e+57
          1533.30750	         8.76585e+57
          1534.11380	         1.00543e+58
          1534.92010	         9.29442e+57
          1535.72640	         9.06116e+57
          1536.53270	         9.17288e+57
          1537.33900	         8.98732e+57
          1538.14530	         9.35762e+57
          1538.95160	         9.28069e+57
          1539.75790	         8.01548e+57
          1540.56420	         8.24988e+57
          1541.37050	         9.24050e+57
          1542.17680	         8.36254e+57
          1542.98310	         6.48647e+57
          1543.78940	         6.70842e+57
          1544.59570	         7.13316e+57
          1545.40200	         7.45323e+57
          1546.20830	         8.87174e+57
          1547.01460	         1.07007e+58
          1547.82090	         1.08049e+58
          1548.62720	         1.18692e+58
          1549.43350	         1.14326e+58
          1550.23980	         1.05230e+58
          1551.04610	         1.24497e+58
          1551.85240	         1.18685e+58
          1552.65870	         1.16160e+58
          1553.46500	         1.02191e+58
          1554.27130	         9.36722e+57
          1555.07760	         9.32302e+57
          1555.88390	         8.44270e+57
          1556.69020	         9.28637e+57
          1557.49650	         9.49456e+57
          1558.30280	         8.47188e+57
          1559.10910	         8.45992e+57
          1559.91540	         8.81481e+57
          1560.72170	         8.70177e+57
          1561.52800	         8.58900e+57
          1562.33430	         8.11088e+57
          1563.14060	         7.57136e+57
          1563.94690	         7.74757e+57
          1564.75320	         7.93313e+57
          1565.55950	         6.83695e+57
          1566.36580	         7.22307e+57
          1567.17210	         8.88661e+57
          1567.97840	         7.90240e+57
          1568.78470	         7.40368e+57
          1569.59100	         8.66204e+57
          1570.39730	         8.19995e+57
          1571.20360	         7.10729e+57
          1572.00990	         7.22941e+57
          1572.81620	         8.53050e+57
          1573.62250	         9.39059e+57
          1574.42880	         8.99642e+57
          1575.23510	         7.85480e+57
          1576.04140	         8.17667e+57
          1576.84770	         8.85295e+57
          1577.65400	         8.30556e+57
          1578.46030	         9.31613e+57
          1579.26660	         9.59601e+57
          1580.07290	         8.68459e+57
          1580.87920	         7.59010e+57
          1581.68550	         7.19562e+57
          1582.49180	         7.56007e+57
          1583.29810	         7.19405e+57
          1584.10440	         7.94266e+57
          1584.91070	         9.15181e+57
          1585.71700	         9.18172e+57
          1586.52330	         9.26849e+57
          1587.32960	         9.34864e+57
          1588.13590	         8.90745e+57
          1588.94220	         7.50671e+57
          1589.74850	         7.34900e+57
          1590.55480	         8.58945e+57
          1591.36110	         8.37343e+57
          1592.16740	         8.48458e+57
          1592.97370	         9.27019e+57
          1593.78000	         9.55585e+57
          1594.58630	         8.98285e+57
          1595.39260	         8.26933e+57
          1596.19890	         8.75945e+57
          1597.00520	         8.93627e+57
          1597.81150	         7.77829e+57
          1598.61780	         7.21246e+57
          1599.42410	         6.77829e+57
          1600.23040	         7.38972e+57
          1601.03670	         8.21285e+57
          1601.84300	         7.65816e+57
          1602.64930	         7.48400e+57
          1603.45560	         8.33847e+57
          1604.26190	         8.48893e+57
          1605.06820	         7.91536e+57
          1605.87450	         7.96769e+57
          1606.68080	         7.17388e+57
          1607.48710	         5.74489e+57
          1608.29340	         5.59375e+57
          1609.09970	         6.90296e+57
          1609.90600	         7.64548e+57
          1610.71230	         7.52542e+57
          1611.51860	         7.76528e+57
          1612.32490	         7.12967e+57
          1613.13120	         8.41728e+57
          1613.93750	         8.78657e+57
          1614.74380	         9.11801e+57
          1615.55010	         9.10145e+57
          1616.35640	         9.56706e+57
          1617.16270	         9.90273e+57
          1617.96900	         9.59103e+57
          1618.77530	         9.15974e+57
          1619.58160	         9.58560e+57
          1620.38790	         9.45436e+57
          1621.19420	         9.66043e+57
          1622.00050	         8.74287e+57
          1622.80680	         8.66797e+57
          1623.61310	         8.56663e+57
          1624.41940	         8.39047e+57
          1625.22570	         9.19864e+57
          1626.03200	         9.20356e+57
          1626.83830	         8.36704e+57
          1627.64460	         7.38890e+57
          1628.45090	         7.20875e+57
          1629.25720	         8.92166e+57
          1630.06350	         9.61001e+57
          1630.86980	         6.77603e+57
          1631.67610	         7.57804e+57
          1632.48240	         7.97216e+57
          1633.28870	         8.89959e+57
          1634.09500	         9.29434e+57
          1634.90130	         8.71236e+57
          1635.70760	         8.43006e+57
          1636.51390	         7.64813e+57
          1637.32020	         8.56312e+57
          1638.12650	         9.43364e+57
          1638.93280	         9.31862e+57
          1639.73910	         9.78848e+57
          1640.54540	         1.00307e+58
          1641.35170	         8.87005e+57
          1642.15800	         8.79161e+57
          1642.96430	         8.99351e+57
          1643.77060	         9.22685e+57
          1644.57690	         8.64117e+57
          1645.38320	         8.58098e+57
          1646.18950	         7.32873e+57
          1646.99580	         9.47346e+57
          1647.80210	         9.28336e+57
          1648.60840	         7.12155e+57
          1649.41470	         7.77133e+57
          1650.22100	         7.13080e+57
          1651.02730	         7.26858e+57
          1651.83360	         7.83118e+57
          1652.63990	         8.06378e+57
          1653.44620	         8.67406e+57
          1654.25250	         7.47075e+57
          1655.05880	         7.00230e+57
          1655.86510	         8.43689e+57
          1656.67140	         9.12391e+57
          1657.47770	         8.30396e+57
          1658.28400	         7.77683e+57
          1659.09030	         8.84672e+57
          1659.89660	         9.28693e+57
          1660.70290	         1.02428e+58
          1661.50920	         9.40350e+57
          1662.31550	         7.73817e+57
          1663.12180	         7.41520e+57
          1663.92810	         8.76565e+57
          1664.73440	         1.05536e+58
          1665.54070	         1.14086e+58
          1666.34700	         1.26208e+58
          1667.15330	         1.12726e+58
          1667.95960	         8.78456e+57
          1668.76590	         7.50950e+57
          1669.57220	         7.69722e+57
          1670.37850	         7.65624e+57
          1671.18480	         7.50588e+57
          1671.99110	         7.51573e+57
          1672.79740	         6.52676e+57
          1673.60370	         7.28580e+57
          1674.41000	         8.09863e+57
          1675.21630	         7.36104e+57
          1676.02260	         6.06180e+57
          1676.82890	         6.43596e+57
          1677.63520	         7.47931e+57
          1678.44150	         7.38305e+57
          1679.24780	         8.82534e+57
          1680.05410	         8.17962e+57
          1680.86040	         6.14710e+57
          1681.66670	         5.75790e+57
          1682.47300	         7.54440e+57
          1683.27930	         8.57859e+57
          1684.08560	         8.27148e+57
          1684.89190	         7.68199e+57
          1685.69820	         5.27310e+57
          1686.50450	         4.79713e+57
          1687.31080	         6.99839e+57
          1688.11710	         7.58292e+57
          1688.92340	         6.66369e+57
          1689.72970	         7.06241e+57
          1690.53600	         6.50802e+57
          1691.34230	         6.44854e+57
          1692.14860	         7.79157e+57
          1692.95490	         7.03286e+57
          1693.76120	         6.19360e+57
          1694.56750	         6.89725e+57
          1695.37380	         9.19262e+57
          1696.18010	         9.82370e+57
          1696.98640	         9.40754e+57
          1697.79270	         9.32519e+57
          1698.59900	         8.37510e+57
          1699.40530	         8.47866e+57
          1700.21160	         8.56112e+57
          1701.01790	         8.24834e+57
          1701.82420	         7.48642e+57
          1702.63050	         7.86421e+57
          1703.43680	         8.52814e+57
          1704.24310	         8.11669e+57
          1705.04940	         7.74274e+57
          1705.85570	         8.28069e+57
          1706.66200	         1.01343e+58
          1707.46830	         9.29059e+57
          1708.27460	         7.54254e+57
          1709.08090	         5.54476e+57
          1709.88720	         5.46391e+57
          1710.69350	         5.15306e+57
          1711.49980	         7.12579e+57
          1712.30610	         8.44575e+57
          1713.11240	         8.55848e+57
          1713.91870	         7.08722e+57
          1714.72500	         7.20004e+57
          1715.53130	         8.01599e+57
          1716.33760	         8.25176e+57
          1717.14390	         6.61687e+57
          1717.95020	         6.55946e+57
          1718.75650	         7.43811e+57
          1719.56280	         8.32705e+57
          1720.36910	         7.81600e+57
          1721.17540	         6.81704e+57
          1721.98170	         5.56586e+57
          1722.78800	         5.83027e+57
          1723.59430	         7.24209e+57
          1724.40060	         8.39227e+57
          1725.20690	         8.03806e+57
          1726.01320	         7.43495e+57
          1726.81950	         6.53705e+57
          1727.62580	         6.51193e+57
          1728.43210	         7.44280e+57
          1729.23840	         7.60323e+57
          1730.04470	         7.13326e+57
          1730.85100	         8.51473e+57
          1731.65730	         8.43782e+57
          1732.46360	         7.33407e+57
          1733.26990	         7.13249e+57
          1734.07620	         7.11412e+57
          1734.88250	         7.76500e+57
          1735.68880	         9.02815e+57
          1736.49510	         8.60192e+57
          1737.30140	         8.20908e+57
          1738.10770	         7.59767e+57
          1738.91400	         7.23071e+57
          1739.72030	         7.18933e+57
          1740.52660	         5.46737e+57
          1741.33290	         5.51677e+57
          1742.13920	         6.46357e+57
          1742.94550	         6.91507e+57
          1743.75180	         7.02321e+57
          1744.55810	         6.89330e+57
          1745.36440	         6.94385e+57
          1746.17070	         5.66602e+57
          1746.97700	         5.01136e+57
          1747.78330	         6.62301e+57
          1748.58960	         6.85470e+57
          1749.39590	         6.85779e+57
          1750.20220	         7.02271e+57
          1751.00850	         5.80420e+57
          1751.81480	         6.07821e+57
          1752.62110	         7.24693e+57
          1753.42740	         7.22295e+57
          1754.23370	         6.17252e+57
          1755.04000	         6.09963e+57
          1755.84630	         7.48677e+57
          1756.65260	         9.22969e+57
          1757.45890	         1.05967e+58
          1758.26520	         8.22342e+57
          1759.07150	         7.79401e+57
          1759.87780	         8.50071e+57
          1760.68410	         8.37108e+57
          1761.49040	         7.76554e+57
          1762.29670	         6.12654e+57
          1763.10300	         6.78963e+57
          1763.90930	         8.01486e+57
          1764.71560	         8.04612e+57
          1765.52190	         8.60458e+57
          1766.32820	         8.21587e+57
          1767.13450	         8.07127e+57
          1767.94080	         7.65303e+57
          1768.74710	         7.30731e+57
          1769.55340	         6.44094e+57
          1770.35970	         5.90035e+57
          1771.16600	         6.62276e+57
          1771.97230	         8.24862e+57
          1772.77860	         8.05736e+57
          1773.58490	         7.33348e+57
          1774.39120	         6.14053e+57
          1775.19750	         5.79600e+57
          1776.00380	         6.01271e+57
          1776.81010	         6.67880e+57
          1777.61640	         5.74682e+57
          1778.42270	         6.60197e+57
          1779.22900	         6.91417e+57
          1780.03530	         6.52896e+57
          1780.84160	         7.15196e+57
          1781.64790	         7.85825e+57
          1782.45420	         7.64560e+57
          1783.26050	         7.66243e+57
          1784.06680	         6.91947e+57
          1784.87310	         6.59694e+57
          1785.67940	         7.99245e+57
          1786.48570	         6.70112e+57
          1787.29200	         5.77872e+57
          1788.09830	         5.91944e+57
          1788.90460	         6.60756e+57
          1789.71090	         6.44219e+57
          1790.51720	         6.20341e+57
          1791.32350	         7.59304e+57
          1792.12980	         8.49372e+57
          1792.93610	         8.35621e+57
          1793.74240	         7.01579e+57
          1794.54870	         7.93705e+57
          1795.35500	         8.19698e+57
          1796.16130	         8.17333e+57
          1796.96760	         6.97554e+57
          1797.77390	         6.00596e+57
          1798.58020	         6.47364e+57
          1799.38650	         5.93423e+57
          1800.19280	         6.73133e+57
          1800.99910	         7.16966e+57
          1801.80540	         7.36664e+57
          1802.61170	         9.16961e+57
          1803.41800	         9.81785e+57
          1804.22430	         7.70303e+57
          1805.03060	         6.64863e+57
          1805.83690	         7.06729e+57
          1806.64320	         7.02794e+57
          1807.44950	         7.91498e+57
          1808.25580	         7.39921e+57
          1809.06210	         8.44894e+57
          1809.86840	         8.79278e+57
          1810.67470	         8.31152e+57
          1811.48100	         8.49020e+57
          1812.28730	         8.79893e+57
          1813.09360	         7.42917e+57
          1813.89990	         7.59049e+57
          1814.70620	         7.95789e+57
          1815.51250	         8.76904e+57
          1816.31880	         8.53217e+57
          1817.12510	         7.39561e+57
          1817.93140	         6.26528e+57
          1818.73770	         6.81698e+57
          1819.54400	         7.84046e+57
          1820.35030	         9.17925e+57
          1821.15660	         7.13378e+57
          1821.96290	         5.73038e+57
          1822.76920	         6.76945e+57
          1823.57550	         7.40052e+57
          1824.38180	         7.92444e+57
          1825.18810	         7.84565e+57
          1825.99440	         8.31837e+57
          1826.80070	         8.75820e+57
          1827.60700	         8.58766e+57
          1828.41330	         7.32121e+57
          1829.21960	         6.46224e+57
          1830.02590	         6.46430e+57
          1830.83220	         7.59349e+57
          1831.63850	         7.54963e+57
          1832.44480	         6.88284e+57
          1833.25110	         7.33657e+57
          1834.05740	         8.22510e+57
          1834.86370	         7.23078e+57
          1835.67000	         5.83896e+57
          1836.47630	         7.07690e+57
          1837.28260	         8.88540e+57
          1838.08890	         9.20829e+57
          1838.89520	         8.64123e+57
          1839.70150	         7.99071e+57
          1840.50780	         7.24988e+57
          1841.31410	         7.49063e+57
          1842.12040	         7.21810e+57
          1842.92670	         6.41439e+57
          1843.73300	         5.92720e+57
          1844.53930	         6.42819e+57
          1845.34560	         7.33093e+57
          1846.15190	         7.52208e+57
          1846.95820	         7.24622e+57
          1847.76450	         7.02483e+57
          1848.57080	         5.61763e+57
          1849.37710	         5.71731e+57
          1850.18340	         8.00034e+57
          1850.98970	         7.51689e+57
          1851.79600	         7.31627e+57
          1852.60230	         7.81227e+57
          1853.40860	         7.44263e+57
          1854.21490	         6.24912e+57
          1855.02120	         5.48862e+57
          1855.82750	         4.31207e+57
          1856.63380	         6.16545e+57
          1857.44010	         7.92796e+57
          1858.24640	         6.78889e+57
          1859.05270	         6.37384e+57
          1859.85900	         5.53579e+57
          1860.66530	         6.30596e+57
          1861.47160	         7.25916e+57
          1862.27790	         7.46598e+57
          1863.08420	         7.96463e+57
          1863.89050	         8.18467e+57
          1864.69680	         7.48400e+57
          1865.50310	         7.00025e+57
          1866.30940	         6.60636e+57
          1867.11570	         6.92012e+57
          1867.92200	         7.31887e+57
          1868.72830	         6.92702e+57
          1869.53460	         6.94020e+57
          1870.34090	         7.65018e+57
          1871.14720	         7.52554e+57
          1871.95350	         6.93566e+57
          1872.75980	         6.72776e+57
          1873.56610	         5.91974e+57
          1874.37240	         5.48978e+57
          1875.17870	         5.81304e+57
          1875.98500	         7.01184e+57
          1876.79130	         7.66628e+57
          1877.59760	         6.56231e+57
          1878.40390	         5.81757e+57
          1879.21020	         5.91047e+57
          1880.01650	         6.78497e+57
          1880.82280	         7.72196e+57
          1881.62910	         8.76703e+57
          1882.43540	         9.00270e+57
          1883.24170	         7.90638e+57
          1884.04800	         7.74493e+57
          1884.85430	         7.22301e+57
          1885.66060	         8.01122e+57
          1886.46690	         7.81902e+57
          1887.27320	         7.01247e+57
          1888.07950	         6.78096e+57
          1888.88580	         6.86116e+57
          1889.69210	         9.19702e+57
          1890.49840	         9.63109e+57
          1891.30470	         7.95915e+57
          1892.11100	         8.04429e+57
          1892.91730	         8.28734e+57
          1893.72360	         8.09089e+57
          1894.52990	         8.24167e+57
          1895.33620	         8.61506e+57
          1896.14250	         6.57519e+57
          1896.94880	         5.63812e+57
          1897.75510	         4.04962e+57
          1898.56140	         5.27832e+57
          1899.36770	         6.96948e+57
          1900.17400	         6.51944e+57
          1900.98030	         6.44297e+57
          1901.78660	         7.07606e+57
          1902.59290	         7.00387e+57
          1903.39920	         8.88283e+57
          1904.20550	         8.40012e+57
          1905.01180	         8.01314e+57
          1905.81810	         9.44763e+57
          1906.62440	         1.18899e+58
          1907.43070	         1.48137e+58
          1908.23700	         1.56143e+58
          1909.04330	         1.36675e+58
          1909.84960	         1.19452e+58
          1910.65590	         1.01040e+58
          1911.46220	         9.90036e+57
          1912.26850	         8.07048e+57
          1913.07480	         6.42068e+57
          1913.88110	         5.53162e+57
          1914.68740	         5.61626e+57
          1915.49370	         5.18127e+57
          1916.30000	         5.63079e+57
          1917.10630	         6.30973e+57
          1917.91260	         6.66290e+57
          1918.71890	         6.44050e+57
          1919.52520	         5.30394e+57
          1920.33150	         5.29232e+57
          1921.13780	         6.78266e+57
          1921.94410	         7.94068e+57
          1922.75040	         7.69043e+57
          1923.55670	         7.36561e+57
          1924.36300	         7.32292e+57
          1925.16930	         5.62307e+57
          1925.97560	         4.53944e+57
          1926.78190	         4.63964e+57
          1927.58820	         5.89953e+57
          1928.39450	         6.00151e+57
          1929.20080	         5.63999e+57
          1930.00710	         7.05469e+57
          1930.81340	         7.17475e+57
          1931.61970	         7.09034e+57
          1932.42600	         7.69783e+57
          1933.23230	         8.93400e+57
          1934.03860	         8.34692e+57
          1934.84490	         6.86330e+57
          1935.65120	         7.67393e+57
          1936.45750	         8.81352e+57
          1937.26380	         9.06652e+57
          1938.07010	         8.86805e+57
          1938.87640	         7.27138e+57
          1939.68270	         7.91064e+57
          1940.48900	         8.47450e+57
          1941.29530	         8.15295e+57
          1942.10160	         8.26362e+57
          1942.90790	         7.48336e+57
          1943.71420	         6.58580e+57
          1944.52050	         5.34348e+57
          1945.32680	         5.95109e+57
          1946.13310	         7.77838e+57
          1946.93940	         7.40854e+57
          1947.74570	         7.45423e+57
          1948.55200	         6.42518e+57
          1949.35830	         6.77331e+57
          1950.16460	         5.96733e+57
          1950.97090	         6.10857e+57
          1951.77720	         7.05154e+57
          1952.58350	         7.96283e+57
          1953.38980	         6.21125e+57
          1954.19610	         4.44614e+57
          1955.00240	         4.89744e+57
          1955.80870	         5.60120e+57
          1956.61500	         5.68581e+57
          1957.42130	         6.31550e+57
          1958.22760	         7.06743e+57
          1959.03390	         6.84276e+57
          1959.84020	         6.85186e+57
          1960.64650	         8.05840e+57
          1961.45280	         6.57488e+57
          1962.25910	         5.47762e+57
          1963.06540	         6.05351e+57
          1963.87170	         6.43070e+57
          1964.67800	         6.90944e+57
          1965.48430	         6.53661e+57
          1966.29060	         6.32673e+57
          1967.09690	         6.85089e+57
          1967.90320	         7.01221e+57
          1968.70950	         6.45279e+57
          1969.51580	         5.09728e+57
          1970.32210	         6.45511e+57
          1971.12840	         6.11703e+57
          1971.93470	         4.63325e+57
          1972.74100	         4.02356e+57
          1973.54730	         6.22297e+57
          1974.35360	         7.61490e+57
          1975.15990	         7.82410e+57
          1975.96620	         7.96213e+57
          1976.77250	         8.01693e+57
          1977.57880	         8.04008e+57
          1978.38510	         5.60425e+57
          1979.19140	         6.20979e+57
          1979.99770	         7.98434e+57
          1980.80400	         7.36985e+57
          1981.61030	         6.95417e+57
          1982.41660	         5.51633e+57
          1983.22290	         5.74455e+57
          1984.02920	         6.90704e+57
          1984.83550	         5.59638e+57
          1985.64180	         6.29240e+57
          1986.44810	         6.78456e+57
          1987.25440	         6.28829e+57
          1988.06070	         5.61803e+57
          1988.86700	         6.55063e+57
          1989.67330	         6.54840e+57
          1990.47960	         6.45263e+57
          1991.28590	         6.37620e+57
          1992.09220	         5.78237e+57
          1992.89850	         6.61932e+57
          1993.70480	         6.79700e+57
          1994.51110	         4.87998e+57
          1995.31740	         4.72806e+57
          1996.12370	         4.98858e+57
          1996.93000	         6.16290e+57
          1997.73630	         7.33342e+57
          1998.54260	         8.06406e+57
          1999.34890	         7.40066e+57
          2000.15520	         5.85414e+57
          2000.96150	         6.87133e+57
          2001.76780	         6.12845e+57
          2002.57410	         5.54283e+57
          2003.38040	         6.19380e+57
          2004.18670	         6.80592e+57
          2004.99300	         6.17771e+57
          2005.79930	         6.90673e+57
          2006.60560	         7.42089e+57
          2007.41190	         6.73575e+57
          2008.21820	         6.33408e+57
          2009.02450	         6.15043e+57
          2009.83080	         6.21651e+57
          2010.63710	         5.65324e+57
          2011.44340	         6.89141e+57
          2012.24970	         7.98816e+57
          2013.05600	         7.36292e+57
          2013.86230	         7.06225e+57
          2014.66860	         5.09673e+57
          2015.47490	         5.87636e+57
          2016.28120	         5.89676e+57
          2017.08750	         6.83831e+57
          2017.89380	         6.50628e+57
          2018.70010	         6.49922e+57
          2019.50640	         6.10485e+57
          2020.31270	         6.39540e+57
          2021.11900	         7.50541e+57
          2021.92530	         8.25986e+57
          2022.73160	         7.65707e+57
          2023.53790	         6.89616e+57
          2024.34420	         6.02128e+57
          2025.15050	         5.62851e+57
          2025.95680	         5.88061e+57
          2026.76310	         5.50219e+57
          2027.56940	         5.13199e+57
          2028.37570	         5.99371e+57
          2029.18200	         6.40580e+57
          2029.98830	         6.63746e+57
          2030.79460	         6.94491e+57
          2031.60090	         6.69782e+57
          2032.40720	         5.43622e+57
          2033.21350	         5.86179e+57
          2034.01980	         6.32076e+57
          2034.82610	         4.28044e+57
          2035.63240	         4.76561e+57
          2036.43870	         5.81118e+57
          2037.24500	         7.00251e+57
          2038.05130	         6.90780e+57
          2038.85760	         6.44574e+57
          2039.66390	         6.27208e+57
          2040.47020	         5.94486e+57
          2041.27650	         6.38434e+57
          2042.08280	         5.89586e+57
          2042.88910	         4.97712e+57
          2043.69540	         5.18987e+57
          2044.50170	         5.59704e+57
          2045.30800	         3.76325e+57
          2046.11430	         5.09652e+57
          2046.92060	         5.59385e+57
          2047.72690	         5.49904e+57
          2048.53320	         6.04691e+57
          2049.33950	         5.99897e+57
          2050.14580	         7.74591e+57
          2050.95210	         8.12742e+57
          2051.75840	         6.67425e+57
          2052.56470	         5.36877e+57
          2053.37100	         4.25083e+57
          2054.17730	         4.54740e+57
          2054.98360	         4.58487e+57
          2055.78990	         2.30447e+57
          2056.59620	         2.66894e+57
          2057.40250	         5.03170e+57
          2058.20880	         5.37336e+57
          2059.01510	         6.63603e+57
          2059.82140	         7.02130e+57
          2060.62770	         9.84180e+57
          2061.43400	         1.60592e+58
          2062.24030	         1.19593e+58
          2063.04660	         3.90999e+57
          2063.85290	         1.22034e+57
          2064.65920	        -1.32549e+57
          2065.46550	        -6.10640e+57
          2066.27180	        -8.89420e+57
          2067.07810	         1.89298e+57
          2067.88440	         4.33839e+57
          2068.69070	         6.81019e+57
          2069.49700	         6.71532e+57
          2070.30330	         3.91919e+57
          2071.10960	         5.78667e+57
          2071.91590	         5.42044e+57
          2072.72220	         4.63025e+57
          2073.52850	         5.90249e+57
          2074.33480	         5.06255e+57
          2075.14110	         4.95388e+57
          2075.94740	         4.88934e+57
          2076.75370	         5.77916e+57
          2077.56000	         5.31662e+57
          2078.36630	         4.77448e+57
          2079.17260	         4.00456e+57
          2079.97890	         5.20690e+57
          2080.78520	         5.28201e+57
          2081.59150	         4.98639e+57
          2082.39780	         4.43274e+57
          2083.20410	         2.92870e+57
          2084.01040	         1.91422e+57
          2084.81670	         4.37188e+57
          2085.62300	         4.41172e+57
          2086.42930	         3.37905e+57
          2087.23560	         1.85415e+57
          2088.04190	         3.49084e+57
          2088.84820	         4.17705e+57
          2089.65450	         1.97708e+57
          2090.46080	         1.82953e+57
          2091.26710	         2.89203e+57
          2092.07340	         3.25929e+57
          2092.87970	         2.11195e+57
          2093.68600	        -5.06271e+56
          2094.49230	         2.33835e+57
          2095.29860	         5.16837e+57
          2096.10490	         2.82608e+57
          2096.91120	         1.09335e+56
          2097.71750	         4.18595e+56
          2098.52380	         2.37870e+57
          2099.33010	         2.85653e+57
          2100.13640	         2.33599e+57
          2100.94270	         2.15352e+57
          2101.74900	         1.68222e+57
          2102.55530	         1.68244e+57
          2103.36160	         2.42523e+57
          2104.16790	         3.03432e+57
          2104.97420	         1.16921e+57
          2105.78050	         4.62758e+56
          2106.58680	         1.90728e+56
          2107.39310	        -2.15705e+57
          2108.19940	        -5.30439e+56
          2109.00570	        -1.46562e+57
          2109.81200	        -2.69137e+56
          2110.61830	         3.09252e+57
          2111.42460	        -5.56856e+56
          2112.23090	         2.04994e+57
          2113.03720	        -7.42003e+56
          2113.84350	         1.22738e+57
          2114.64980	        -7.81806e+56
          2115.45610	        -6.10153e+56
          2116.26240	        -3.80114e+57
          2117.06870	        -2.75305e+57
          2117.87500	        -2.57881e+57
          2118.68130	        -2.23879e+57
          2119.48760	         2.46720e+57
          2120.29390	         4.10637e+56
          2121.10020	        -7.59483e+57
          2121.90650	        -4.60282e+57
          2122.71280	         3.03312e+57
          2123.51910	         3.28454e+57
          2124.32540	        -2.89758e+57
          2125.13170	        -1.14593e+57
          2125.93800	        -3.27495e+56
          2126.74430	        -2.09975e+57
          2127.55060	        -5.10837e+57
          2128.35690	        -7.04064e+56
          2129.16320	        -5.54108e+57
          2129.96950	        -3.16186e+57
          2130.77580	         2.15382e+57
          2131.58210	        -8.96904e+56
          2132.38840	         4.43870e+56
          2133.19470	        -5.34119e+55
          2134.00100	         2.84446e+57
          2134.80730	        -4.44256e+57
          2135.61360	         3.48085e+57
          2136.41990	         3.18561e+57
          2137.22620	         8.25368e+57
          2138.03250	         7.98905e+57
          2138.83880	        -2.29697e+57
          2139.64510	        -1.45483e+57
          2140.45140	        -4.49019e+57
          2141.25770	        -1.51089e+58
          2142.06400	        -9.04033e+57
          2142.87030	         7.58308e+56
          2143.67660	         6.68316e+57
          2144.48290	         1.17255e+58
          2145.28920	         9.08512e+57
          2146.09550	        -9.20652e+57
          2146.90180	        -5.69483e+57
          2147.70810	        -5.46998e+56
          2148.51440	        -8.46480e+57
          2149.32070	        -5.24599e+57
          2150.12700	        -1.16799e+58
          2150.93330	        -7.63656e+57
          2151.73960	        -5.54171e+57
          2152.54590	         3.02590e+57
          2153.35220	         5.55940e+57
          2154.15850	        -3.66918e+57
          2154.96480	        -5.60171e+57
          2155.77110	        -5.13567e+57
          2156.57740	        -8.36885e+57
          2157.38370	        -3.06717e+57
          2158.19000	         2.09473e+57
          2158.99630	        -1.04184e+58
          2159.80260	        -1.36354e+58
          2160.60890	        -9.19739e+57
          2161.41520	        -4.19168e+57
          2162.22150	        -5.25174e+57
          2163.02780	        -2.43513e+57
          2163.83410	        -9.59114e+57
          2164.64040	        -1.01604e+58
          2165.44670	        -1.29482e+58
          2166.25300	        -1.12576e+58
          2167.05930	        -1.66337e+58
          2167.86560	        -1.24316e+58
          2168.67190	        -5.63646e+57
          2169.47820	        -5.84151e+57
          2170.28450	        -1.25235e+58
          2171.09080	         2.68657e+57
          2171.89710	        -5.55086e+57
          2172.70340	         2.28468e+57
          2173.50970	        -9.43436e+57
          2174.31600	        -9.12390e+57
          2175.12230	        -5.00657e+56
          2175.92860	        -4.49261e+57
          2176.73490	        -9.86457e+57
          2177.54120	        -7.34361e+57
          2178.34750	        -4.23244e+57
          2179.15380	                 nan
          2179.96010	                 nan
          2180.76640	                 nan
          2181.57270	                 nan
          2182.37900	                 nan
          2183.18530	                 nan
          2183.99160	                 nan
          2184.79790	                 nan
          2185.60420	                 nan
          2186.41050	                 nan
          2187.21680	                 nan
          2188.02310	                 nan
          2188.82940	                 nan
          2189.63570	                 nan
          2190.44200	                 nan
          2191.24830	                 nan
          2192.05460	                 nan
          2192.86090	                 nan
          2193.66720	                 nan
          2194.47350	                 nan
          2195.27980	                 nan
          2196.08610	                 nan
          2196.89240	                 nan
          2197.69870	                 nan
          2198.50500	                 nan
          2199.31130	                 nan
          2200.11760	                 nan
          2200.92390	                 nan
          2201.73020	                 nan
          2202.53650	                 nan
          2203.34280	                 nan
          2204.14910	                 nan
          2204.95540	                 nan
          2205.76170	                 nan
          2206.56800	                 nan
          2207.37430	                 nan
          2208.18060	                 nan
          2208.98690	                 nan
          2209.79320	                 nan
          2210.59950	                 nan
          2211.40580	                 nan
          2212.21210	                 nan
          2213.01840	                 nan
          2213.82470	                 nan
          2214.63100	                 nan
          2215.43730	         0.00000e+00
