#sample_131_stacked_spectrum_rest_UV-bands_median_H-alpha_noDC.txt
#median Lum: 1.68606e+42
#Rest-frame wavelength (A) | Luminosity (erg/s/A)
#
          1110.00000	         0.00000e+00
          1110.80630	         1.38528e+59
          1111.61260	         3.30051e+59
          1112.41890	         3.47446e+59
          1113.22520	         3.72480e+59
          1114.03150	        -2.95793e+59
          1114.83780	        -6.01627e+58
          1115.64410	        -5.63328e+58
          1116.45040	         1.02786e+59
          1117.25670	         2.08967e+59
          1118.06300	         2.72759e+59
          1118.86930	         3.71563e+58
          1119.67560	         1.00533e+59
          1120.48190	         5.07488e+58
          1121.28820	        -1.10529e+59
          1122.09450	        -2.85983e+58
          1122.90080	         2.91423e+58
          1123.70710	         1.26245e+59
          1124.51340	         3.66800e+58
          1125.31970	        -2.96150e+58
          1126.12600	         3.38240e+58
          1126.93230	        -2.61077e+58
          1127.73860	        -3.80539e+58
          1128.54490	         3.38899e+58
          1129.35120	         7.41587e+58
          1130.15750	        -1.70914e+58
          1130.96380	         5.05643e+57
          1131.77010	         5.79232e+58
          1132.57640	         4.30353e+58
          1133.38270	         1.30023e+58
          1134.18900	         2.05112e+58
          1134.99530	         5.06546e+57
          1135.80160	         2.43837e+58
          1136.60790	         4.75664e+57
          1137.41420	        -9.08623e+57
          1138.22050	         3.61502e+58
          1139.02680	         3.73290e+58
          1139.83310	         3.09021e+58
          1140.63940	         1.26589e+58
          1141.44570	        -2.12181e+58
          1142.25200	         1.21607e+58
          1143.05830	         1.58117e+58
          1143.86460	         1.96645e+58
          1144.67090	         2.86999e+58
          1145.47720	         1.96914e+58
          1146.28350	         2.25348e+58
          1147.08980	         1.22024e+58
          1147.89610	         2.37262e+58
          1148.70240	         3.58842e+58
          1149.50870	         2.61510e+58
          1150.31500	         2.06659e+58
          1151.12130	         1.56285e+58
          1151.92760	         1.94967e+58
          1152.73390	         1.51368e+58
          1153.54020	         7.82675e+57
          1154.34650	         2.36063e+58
          1155.15280	         2.69951e+58
          1155.95910	         1.44619e+58
          1156.76540	         1.94445e+58
          1157.57170	         6.05497e+57
          1158.37800	        -1.56189e+57
          1159.18430	        -3.57140e+57
          1159.99060	         8.92100e+57
          1160.79690	         1.10611e+58
          1161.60320	         1.38318e+57
          1162.40950	         9.24898e+57
          1163.21580	         2.33796e+58
          1164.02210	         8.52826e+57
          1164.82840	         1.53905e+58
          1165.63470	         2.29151e+58
          1166.44100	         3.05987e+58
          1167.24730	         3.53143e+58
          1168.05360	         1.16636e+58
          1168.85990	         3.90290e+56
          1169.66620	         1.86243e+57
          1170.47250	         3.85621e+56
          1171.27880	         2.50500e+57
          1172.08510	         4.42228e+57
          1172.89140	         5.38976e+57
          1173.69770	         3.13644e+57
          1174.50400	         7.93394e+57
          1175.31030	         1.74020e+58
          1176.11660	         1.81827e+58
          1176.92290	         1.52928e+58
          1177.72920	         9.67069e+57
          1178.53550	         4.73631e+57
          1179.34180	         2.20387e+57
          1180.14810	         2.39584e+57
          1180.95440	         4.89151e+57
          1181.76070	         6.05733e+57
          1182.56700	         6.06002e+57
          1183.37330	         7.32029e+57
          1184.17960	         1.13443e+58
          1184.98590	         1.14933e+58
          1185.79220	         5.56087e+57
          1186.59850	         1.44939e+58
          1187.40480	         1.08219e+58
          1188.21110	         1.64068e+58
          1189.01740	         1.27543e+58
          1189.82370	         1.38871e+58
          1190.63000	         9.63031e+57
          1191.43630	         1.05702e+58
          1192.24260	         7.79247e+57
          1193.04890	         1.16931e+58
          1193.85520	         1.00620e+58
          1194.66150	         8.80381e+57
          1195.46780	         1.55821e+58
          1196.27410	         1.83060e+58
          1197.08040	         9.04044e+57
          1197.88670	         1.14627e+58
          1198.69300	         1.66251e+58
          1199.49930	         1.63540e+58
          1200.30560	         1.23714e+58
          1201.11190	         9.25763e+57
          1201.91820	         8.68453e+57
          1202.72450	         1.04447e+58
          1203.53080	         1.30310e+58
          1204.33710	         1.17609e+58
          1205.14340	         7.58256e+57
          1205.94970	         7.63356e+57
          1206.75600	         8.02773e+57
          1207.56230	         6.26222e+57
          1208.36860	         8.53219e+57
          1209.17490	         3.02703e+57
          1209.98120	         1.43799e+57
          1210.78750	         9.97232e+57
          1211.59380	         1.75405e+58
          1212.40010	         2.05570e+58
          1213.20640	         2.02092e+58
          1214.01270	         1.91962e+58
          1214.81900	         2.49544e+58
          1215.62530	         4.57140e+58
          1216.43160	         8.90844e+58
          1217.23790	         1.49538e+59
          1218.04420	         1.15772e+59
          1218.85050	         8.94894e+58
          1219.65680	         6.23138e+58
          1220.46310	         3.64418e+58
          1221.26940	         2.37620e+58
          1222.07570	         1.28937e+58
          1222.88200	         7.66192e+57
          1223.68830	         8.40501e+57
          1224.49460	         7.79045e+57
          1225.30090	         7.31329e+57
          1226.10720	         6.57292e+57
          1226.91350	         7.19451e+57
          1227.71980	         6.57149e+57
          1228.52610	         1.06020e+58
          1229.33240	         1.01640e+58
          1230.13870	         7.23775e+57
          1230.94500	         6.77753e+57
          1231.75130	         6.29613e+57
          1232.55760	         9.96247e+57
          1233.36390	         1.02870e+58
          1234.17020	         1.06233e+58
          1234.97650	         8.07041e+57
          1235.78280	         5.46314e+57
          1236.58910	         8.71882e+57
          1237.39540	         1.07531e+58
          1238.20170	         1.02891e+58
          1239.00800	         1.32384e+58
          1239.81430	         1.31421e+58
          1240.62060	         9.23123e+57
          1241.42690	         9.38704e+57
          1242.23320	         1.16894e+58
          1243.03950	         7.94284e+57
          1243.84580	         8.66338e+57
          1244.65210	         9.51899e+57
          1245.45840	         8.25766e+57
          1246.26470	         9.91528e+57
          1247.07100	         8.38960e+57
          1247.87730	         5.54944e+57
          1248.68360	         6.18362e+57
          1249.48990	         5.46951e+57
          1250.29620	         9.70830e+57
          1251.10250	         6.77535e+57
          1251.90880	         4.57653e+57
          1252.71510	         6.36600e+57
          1253.52140	         9.09714e+57
          1254.32770	         9.88251e+57
          1255.13400	         1.18767e+58
          1255.94030	         1.27584e+58
          1256.74660	         1.10067e+58
          1257.55290	         1.10765e+58
          1258.35920	         8.54575e+57
          1259.16550	         5.13988e+57
          1259.97180	         5.36403e+57
          1260.77810	         9.67907e+57
          1261.58440	         1.06275e+58
          1262.39070	         9.45472e+57
          1263.19700	         8.47927e+57
          1264.00330	         1.11083e+58
          1264.80960	         1.28380e+58
          1265.61590	         1.13628e+58
          1266.42220	         1.29481e+58
          1267.22850	         1.20305e+58
          1268.03480	         1.34407e+58
          1268.84110	         1.61803e+58
          1269.64740	         1.42666e+58
          1270.45370	         1.26166e+58
          1271.26000	         8.66480e+57
          1272.06630	         1.03016e+58
          1272.87260	         1.28157e+58
          1273.67890	         1.08615e+58
          1274.48520	         1.18831e+58
          1275.29150	         1.10789e+58
          1276.09780	         8.48811e+57
          1276.90410	         1.44347e+58
          1277.71040	         1.40442e+58
          1278.51670	         1.22798e+58
          1279.32300	         1.43798e+58
          1280.12930	         1.44334e+58
          1280.93560	         1.43432e+58
          1281.74190	         1.50758e+58
          1282.54820	         1.43463e+58
          1283.35450	         1.16402e+58
          1284.16080	         1.17632e+58
          1284.96710	         1.46911e+58
          1285.77340	         1.27145e+58
          1286.57970	         1.00996e+58
          1287.38600	         1.48915e+58
          1288.19230	         1.74056e+58
          1288.99860	         1.39574e+58
          1289.80490	         9.13253e+57
          1290.61120	         1.14745e+58
          1291.41750	         1.42110e+58
          1292.22380	         1.33277e+58
          1293.03010	         1.19435e+58
          1293.83640	         1.29344e+58
          1294.64270	         1.14552e+58
          1295.44900	         6.94173e+57
          1296.25530	         6.28321e+57
          1297.06160	         9.97981e+57
          1297.86790	         8.23784e+57
          1298.67420	         7.56423e+57
          1299.48050	         8.73365e+57
          1300.28680	         1.03806e+58
          1301.09310	         8.72246e+57
          1301.89940	         4.38305e+57
          1302.70570	         6.83669e+57
          1303.51200	         8.59279e+57
          1304.31830	         1.06861e+58
          1305.12460	         1.26242e+58
          1305.93090	         1.24025e+58
          1306.73720	         1.29499e+58
          1307.54350	         1.43895e+58
          1308.34980	         1.57183e+58
          1309.15610	         1.66384e+58
          1309.96240	         1.57034e+58
          1310.76870	         1.42190e+58
          1311.57500	         1.37845e+58
          1312.38130	         1.28435e+58
          1313.18760	         1.40939e+58
          1313.99390	         1.55995e+58
          1314.80020	         1.52704e+58
          1315.60650	         1.61327e+58
          1316.41280	         1.24085e+58
          1317.21910	         7.49051e+57
          1318.02540	         8.43675e+57
          1318.83170	         1.13092e+58
          1319.63800	         1.18126e+58
          1320.44430	         1.07698e+58
          1321.25060	         1.26147e+58
          1322.05690	         1.29106e+58
          1322.86320	         1.16238e+58
          1323.66950	         1.03063e+58
          1324.47580	         9.56158e+57
          1325.28210	         9.57390e+57
          1326.08840	         1.03854e+58
          1326.89470	         1.10730e+58
          1327.70100	         1.01750e+58
          1328.50730	         8.71809e+57
          1329.31360	         1.04307e+58
          1330.11990	         1.04146e+58
          1330.92620	         9.27224e+57
          1331.73250	         1.13572e+58
          1332.53880	         9.78232e+57
          1333.34510	         8.46968e+57
          1334.15140	         9.47649e+57
          1334.95770	         1.04625e+58
          1335.76400	         1.04715e+58
          1336.57030	         1.02445e+58
          1337.37660	         1.00729e+58
          1338.18290	         1.08058e+58
          1338.98920	         1.18064e+58
          1339.79550	         1.16516e+58
          1340.60180	         1.29180e+58
          1341.40810	         1.46031e+58
          1342.21440	         1.43521e+58
          1343.02070	         1.17253e+58
          1343.82700	         1.33334e+58
          1344.63330	         1.30867e+58
          1345.43960	         1.25155e+58
          1346.24590	         1.04410e+58
          1347.05220	         1.10995e+58
          1347.85850	         1.03131e+58
          1348.66480	         1.20799e+58
          1349.47110	         1.27463e+58
          1350.27740	         1.10046e+58
          1351.08370	         1.01884e+58
          1351.89000	         1.08224e+58
          1352.69630	         1.03347e+58
          1353.50260	         1.04268e+58
          1354.30890	         1.12013e+58
          1355.11520	         1.12195e+58
          1355.92150	         1.02233e+58
          1356.72780	         1.02118e+58
          1357.53410	         1.02315e+58
          1358.34040	         8.97663e+57
          1359.14670	         8.15719e+57
          1359.95300	         8.93993e+57
          1360.75930	         1.06029e+58
          1361.56560	         9.97044e+57
          1362.37190	         1.02640e+58
          1363.17820	         1.07586e+58
          1363.98450	         1.05751e+58
          1364.79080	         1.08128e+58
          1365.59710	         1.28427e+58
          1366.40340	         1.16513e+58
          1367.20970	         9.44651e+57
          1368.01600	         8.28188e+57
          1368.82230	         8.45195e+57
          1369.62860	         1.00894e+58
          1370.43490	         8.38150e+57
          1371.24120	         8.88850e+57
          1372.04750	         7.14252e+57
          1372.85380	         8.97606e+57
          1373.66010	         1.12986e+58
          1374.46640	         1.13784e+58
          1375.27270	         1.16601e+58
          1376.07900	         8.46622e+57
          1376.88530	         7.98316e+57
          1377.69160	         9.13049e+57
          1378.49790	         7.47075e+57
          1379.30420	         6.67962e+57
          1380.11050	         8.65818e+57
          1380.91680	         9.02845e+57
          1381.72310	         9.02727e+57
          1382.52940	         8.31787e+57
          1383.33570	         7.88746e+57
          1384.14200	         9.46082e+57
          1384.94830	         1.03027e+58
          1385.75460	         9.21183e+57
          1386.56090	         9.51932e+57
          1387.36720	         1.00941e+58
          1388.17350	         1.27293e+58
          1388.97980	         1.01079e+58
          1389.78610	         7.95766e+57
          1390.59240	         8.93077e+57
          1391.39870	         7.44980e+57
          1392.20500	         6.76474e+57
          1393.01130	         6.54043e+57
          1393.81760	         7.69613e+57
          1394.62390	         7.24067e+57
          1395.43020	         6.71813e+57
          1396.23650	         6.97254e+57
          1397.04280	         7.59688e+57
          1397.84910	         8.53201e+57
          1398.65540	         9.26365e+57
          1399.46170	         9.62922e+57
          1400.26800	         8.48943e+57
          1401.07430	         7.24548e+57
          1401.88060	         7.37659e+57
          1402.68690	         8.26707e+57
          1403.49320	         8.93745e+57
          1404.29950	         9.48183e+57
          1405.10580	         1.03895e+58
          1405.91210	         1.14973e+58
          1406.71840	         1.11347e+58
          1407.52470	         1.04916e+58
          1408.33100	         9.98532e+57
          1409.13730	         1.14229e+58
          1409.94360	         1.14964e+58
          1410.74990	         1.01645e+58
          1411.55620	         1.05100e+58
          1412.36250	         9.85922e+57
          1413.16880	         8.95685e+57
          1413.97510	         8.16139e+57
          1414.78140	         8.26056e+57
          1415.58770	         9.70455e+57
          1416.39400	         1.03385e+58
          1417.20030	         9.47634e+57
          1418.00660	         8.10566e+57
          1418.81290	         9.65949e+57
          1419.61920	         9.44448e+57
          1420.42550	         1.17985e+58
          1421.23180	         1.44943e+58
          1422.03810	         1.26799e+58
          1422.84440	         1.27449e+58
          1423.65070	         1.42884e+58
          1424.45700	         1.23799e+58
          1425.26330	         1.06013e+58
          1426.06960	         9.95618e+57
          1426.87590	         1.07084e+58
          1427.68220	         1.02557e+58
          1428.48850	         1.16669e+58
          1429.29480	         1.22519e+58
          1430.10110	         1.00817e+58
          1430.90740	         8.02275e+57
          1431.71370	         8.07090e+57
          1432.52000	         7.96546e+57
          1433.32630	         7.79045e+57
          1434.13260	         8.29967e+57
          1434.93890	         8.52387e+57
          1435.74520	         9.81963e+57
          1436.55150	         9.76069e+57
          1437.35780	         8.91959e+57
          1438.16410	         9.74388e+57
          1438.97040	         8.92184e+57
          1439.77670	         8.99385e+57
          1440.58300	         9.80553e+57
          1441.38930	         1.00850e+58
          1442.19560	         9.21758e+57
          1443.00190	         8.96208e+57
          1443.80820	         9.80615e+57
          1444.61450	         8.42041e+57
          1445.42080	         7.30340e+57
          1446.22710	         8.59424e+57
          1447.03340	         9.59433e+57
          1447.83970	         1.14479e+58
          1448.64600	         1.12225e+58
          1449.45230	         9.88666e+57
          1450.25860	         1.08263e+58
          1451.06490	         9.77589e+57
          1451.87120	         8.26002e+57
          1452.67750	         7.79409e+57
          1453.48380	         8.51528e+57
          1454.29010	         8.01388e+57
          1455.09640	         7.71578e+57
          1455.90270	         8.89636e+57
          1456.70900	         8.59891e+57
          1457.51530	         9.91891e+57
          1458.32160	         1.20547e+58
          1459.12790	         1.20606e+58
          1459.93420	         1.10788e+58
          1460.74050	         8.18187e+57
          1461.54680	         7.04127e+57
          1462.35310	         7.60697e+57
          1463.15940	         9.37350e+57
          1463.96570	         1.22315e+58
          1464.77200	         1.25925e+58
          1465.57830	         1.12691e+58
          1466.38460	         8.71049e+57
          1467.19090	         7.13193e+57
          1467.99720	         8.11516e+57
          1468.80350	         9.33398e+57
          1469.60980	         1.08256e+58
          1470.41610	         1.24844e+58
          1471.22240	         1.06805e+58
          1472.02870	         1.00597e+58
          1472.83500	         1.07829e+58
          1473.64130	         9.89664e+57
          1474.44760	         1.02866e+58
          1475.25390	         9.53873e+57
          1476.06020	         8.59669e+57
          1476.86650	         7.45941e+57
          1477.67280	         6.55502e+57
          1478.47910	         7.32187e+57
          1479.28540	         8.15815e+57
          1480.09170	         8.84179e+57
          1480.89800	         8.25281e+57
          1481.70430	         7.91982e+57
          1482.51060	         8.38175e+57
          1483.31690	         7.96711e+57
          1484.12320	         7.75646e+57
          1484.92950	         7.20567e+57
          1485.73580	         7.47337e+57
          1486.54210	         9.13896e+57
          1487.34840	         9.51466e+57
          1488.15470	         9.19809e+57
          1488.96100	         9.74068e+57
          1489.76730	         1.05732e+58
          1490.57360	         8.79317e+57
          1491.37990	         7.29926e+57
          1492.18620	         8.11321e+57
          1492.99250	         8.36573e+57
          1493.79880	         8.42193e+57
          1494.60510	         8.30570e+57
          1495.41140	         7.81941e+57
          1496.21770	         8.63285e+57
          1497.02400	         1.01633e+58
          1497.83030	         8.38811e+57
          1498.63660	         6.85776e+57
          1499.44290	         6.24200e+57
          1500.24920	         7.22929e+57
          1501.05550	         8.56656e+57
          1501.86180	         8.25353e+57
          1502.66810	         9.04689e+57
          1503.47440	         9.19836e+57
          1504.28070	         8.35083e+57
          1505.08700	         9.24668e+57
          1505.89330	         8.95635e+57
          1506.69960	         9.07922e+57
          1507.50590	         8.97489e+57
          1508.31220	         8.93586e+57
          1509.11850	         9.32757e+57
          1509.92480	         8.92783e+57
          1510.73110	         9.15365e+57
          1511.53740	         8.57452e+57
          1512.34370	         7.32187e+57
          1513.15000	         7.93003e+57
          1513.95630	         1.03529e+58
          1514.76260	         9.31827e+57
          1515.56890	         8.37921e+57
          1516.37520	         8.43813e+57
          1517.18150	         8.32754e+57
          1517.98780	         7.08820e+57
          1518.79410	         7.22072e+57
          1519.60040	         8.66353e+57
          1520.40670	         1.06311e+58
          1521.21300	         9.72075e+57
          1522.01930	         7.86250e+57
          1522.82560	         9.23296e+57
          1523.63190	         1.05679e+58
          1524.43820	         8.17464e+57
          1525.24450	         6.62580e+57
          1526.05080	         6.88907e+57
          1526.85710	         6.75734e+57
          1527.66340	         6.41378e+57
          1528.46970	         7.73837e+57
          1529.27600	         7.55912e+57
          1530.08230	         7.12931e+57
          1530.88860	         8.56519e+57
          1531.69490	         8.89130e+57
          1532.50120	         9.21054e+57
          1533.30750	         9.59211e+57
          1534.11380	         8.50550e+57
          1534.92010	         8.55642e+57
          1535.72640	         1.00190e+58
          1536.53270	         9.73406e+57
          1537.33900	         8.66372e+57
          1538.14530	         8.70171e+57
          1538.95160	         9.60705e+57
          1539.75790	         9.19075e+57
          1540.56420	         8.84580e+57
          1541.37050	         8.34387e+57
          1542.17680	         7.48470e+57
          1542.98310	         7.92183e+57
          1543.78940	         7.69078e+57
          1544.59570	         6.12598e+57
          1545.40200	         7.25484e+57
          1546.20830	         9.10373e+57
          1547.01460	         1.03375e+58
          1547.82090	         1.16458e+58
          1548.62720	         1.15399e+58
          1549.43350	         1.11403e+58
          1550.23980	         1.09352e+58
          1551.04610	         1.15818e+58
          1551.85240	         1.19540e+58
          1552.65870	         1.20814e+58
          1553.46500	         1.01901e+58
          1554.27130	         9.57817e+57
          1555.07760	         1.01594e+58
          1555.88390	         8.91722e+57
          1556.69020	         8.64396e+57
          1557.49650	         8.61309e+57
          1558.30280	         8.15133e+57
          1559.10910	         9.08316e+57
          1559.91540	         9.11699e+57
          1560.72170	         8.15708e+57
          1561.52800	         8.23291e+57
          1562.33430	         8.29109e+57
          1563.14060	         9.03114e+57
          1563.94690	         9.17078e+57
          1564.75320	         8.19427e+57
          1565.55950	         6.76696e+57
          1566.36580	         6.70183e+57
          1567.17210	         8.96939e+57
          1567.97840	         9.34133e+57
          1568.78470	         8.67605e+57
          1569.59100	         8.98060e+57
          1570.39730	         8.48998e+57
          1571.20360	         6.57669e+57
          1572.00990	         7.08267e+57
          1572.81620	         8.86668e+57
          1573.62250	         1.04430e+58
          1574.42880	         9.09058e+57
          1575.23510	         7.91211e+57
          1576.04140	         8.63607e+57
          1576.84770	         9.28095e+57
          1577.65400	         8.87306e+57
          1578.46030	         1.00721e+58
          1579.26660	         1.02844e+58
          1580.07290	         9.44965e+57
          1580.87920	         7.83705e+57
          1581.68550	         6.93902e+57
          1582.49180	         7.55909e+57
          1583.29810	         8.06140e+57
          1584.10440	         9.04727e+57
          1584.91070	         9.14734e+57
          1585.71700	         9.26142e+57
          1586.52330	         9.81626e+57
          1587.32960	         9.32074e+57
          1588.13590	         9.41184e+57
          1588.94220	         9.13783e+57
          1589.74850	         8.97966e+57
          1590.55480	         9.07248e+57
          1591.36110	         8.56895e+57
          1592.16740	         8.38595e+57
          1592.97370	         8.30255e+57
          1593.78000	         8.73169e+57
          1594.58630	         9.73493e+57
          1595.39260	         8.85952e+57
          1596.19890	         8.67259e+57
          1597.00520	         9.13251e+57
          1597.81150	         9.29405e+57
          1598.61780	         7.89676e+57
          1599.42410	         7.28896e+57
          1600.23040	         6.53557e+57
          1601.03670	         6.91019e+57
          1601.84300	         7.36820e+57
          1602.64930	         8.55134e+57
          1603.45560	         8.81212e+57
          1604.26190	         7.59498e+57
          1605.06820	         7.76280e+57
          1605.87450	         7.15461e+57
          1606.68080	         7.12714e+57
          1607.48710	         6.68793e+57
          1608.29340	         7.15075e+57
          1609.09970	         8.22452e+57
          1609.90600	         8.08895e+57
          1610.71230	         6.73301e+57
          1611.51860	         5.76263e+57
          1612.32490	         6.87343e+57
          1613.13120	         8.60100e+57
          1613.93750	         8.64829e+57
          1614.74380	         8.08470e+57
          1615.55010	         8.46857e+57
          1616.35640	         8.57128e+57
          1617.16270	         9.39371e+57
          1617.96900	         9.94224e+57
          1618.77530	         9.05556e+57
          1619.58160	         8.61901e+57
          1620.38790	         8.19408e+57
          1621.19420	         8.71994e+57
          1622.00050	         7.89568e+57
          1622.80680	         8.39546e+57
          1623.61310	         8.61944e+57
          1624.41940	         7.85673e+57
          1625.22570	         8.49145e+57
          1626.03200	         9.37210e+57
          1626.83830	         8.15440e+57
          1627.64460	         7.20936e+57
          1628.45090	         7.34311e+57
          1629.25720	         8.58278e+57
          1630.06350	         1.01298e+58
          1630.86980	         7.06036e+57
          1631.67610	         7.30488e+57
          1632.48240	         9.25590e+57
          1633.28870	         8.59344e+57
          1634.09500	         9.00084e+57
          1634.90130	         1.10176e+58
          1635.70760	         1.02296e+58
          1636.51390	         8.21783e+57
          1637.32020	         7.48028e+57
          1638.12650	         8.59702e+57
          1638.93280	         9.17758e+57
          1639.73910	         9.87199e+57
          1640.54540	         1.06143e+58
          1641.35170	         8.27035e+57
          1642.15800	         8.18752e+57
          1642.96430	         9.38090e+57
          1643.77060	         9.12251e+57
          1644.57690	         9.12905e+57
          1645.38320	         8.25713e+57
          1646.18950	         6.70642e+57
          1646.99580	         7.81217e+57
          1647.80210	         7.15705e+57
          1648.60840	         7.59548e+57
          1649.41470	         7.90702e+57
          1650.22100	         7.14775e+57
          1651.02730	         6.51152e+57
          1651.83360	         6.50391e+57
          1652.63990	         7.54489e+57
          1653.44620	         9.32416e+57
          1654.25250	         7.88676e+57
          1655.05880	         7.05154e+57
          1655.86510	         8.66812e+57
          1656.67140	         8.68775e+57
          1657.47770	         9.17248e+57
          1658.28400	         8.54940e+57
          1659.09030	         8.21727e+57
          1659.89660	         8.55643e+57
          1660.70290	         9.81857e+57
          1661.50920	         9.54188e+57
          1662.31550	         8.10600e+57
          1663.12180	         8.38462e+57
          1663.92810	         9.71373e+57
          1664.73440	         1.12846e+58
          1665.54070	         1.22015e+58
          1666.34700	         1.23111e+58
          1667.15330	         1.13474e+58
          1667.95960	         9.08490e+57
          1668.76590	         8.31497e+57
          1669.57220	         7.42640e+57
          1670.37850	         7.51767e+57
          1671.18480	         7.60362e+57
          1671.99110	         7.36380e+57
          1672.79740	         6.97606e+57
          1673.60370	         5.73078e+57
          1674.41000	         6.83340e+57
          1675.21630	         7.21656e+57
          1676.02260	         6.49879e+57
          1676.82890	         6.85415e+57
          1677.63520	         7.12288e+57
          1678.44150	         8.30162e+57
          1679.24780	         9.34947e+57
          1680.05410	         8.20940e+57
          1680.86040	         6.49267e+57
          1681.66670	         7.19494e+57
          1682.47300	         7.75240e+57
          1683.27930	         8.20420e+57
          1684.08560	         8.48632e+57
          1684.89190	         7.60866e+57
          1685.69820	         5.01615e+57
          1686.50450	         4.69887e+57
          1687.31080	         6.45336e+57
          1688.11710	         6.89988e+57
          1688.92340	         5.92430e+57
          1689.72970	         6.22236e+57
          1690.53600	         6.17392e+57
          1691.34230	         6.57914e+57
          1692.14860	         7.46734e+57
          1692.95490	         7.80186e+57
          1693.76120	         7.07472e+57
          1694.56750	         6.73456e+57
          1695.37380	         8.53241e+57
          1696.18010	         8.65226e+57
          1696.98640	         8.35348e+57
          1697.79270	         7.88354e+57
          1698.59900	         7.45991e+57
          1699.40530	         7.95352e+57
          1700.21160	         8.34107e+57
          1701.01790	         8.56079e+57
          1701.82420	         7.82175e+57
          1702.63050	         7.23740e+57
          1703.43680	         7.32725e+57
          1704.24310	         8.67214e+57
          1705.04940	         8.68806e+57
          1705.85570	         7.60725e+57
          1706.66200	         7.90955e+57
          1707.46830	         7.15311e+57
          1708.27460	         7.33376e+57
          1709.08090	         7.29166e+57
          1709.88720	         6.70444e+57
          1710.69350	         6.78413e+57
          1711.49980	         7.23365e+57
          1712.30610	         6.73020e+57
          1713.11240	         8.20010e+57
          1713.91870	         7.89535e+57
          1714.72500	         7.89141e+57
          1715.53130	         9.47592e+57
          1716.33760	         9.47342e+57
          1717.14390	         7.37875e+57
          1717.95020	         7.50897e+57
          1718.75650	         8.49741e+57
          1719.56280	         7.81830e+57
          1720.36910	         6.78004e+57
          1721.17540	         6.16341e+57
          1721.98170	         6.26086e+57
          1722.78800	         6.76568e+57
          1723.59430	         6.86731e+57
          1724.40060	         7.70883e+57
          1725.20690	         8.09405e+57
          1726.01320	         7.80494e+57
          1726.81950	         7.74361e+57
          1727.62580	         6.96923e+57
          1728.43210	         6.61932e+57
          1729.23840	         7.43299e+57
          1730.04470	         8.28131e+57
          1730.85100	         8.16937e+57
          1731.65730	         7.84328e+57
          1732.46360	         8.07310e+57
          1733.26990	         7.24841e+57
          1734.07620	         6.88245e+57
          1734.88250	         7.07776e+57
          1735.68880	         7.27857e+57
          1736.49510	         8.12210e+57
          1737.30140	         8.75154e+57
          1738.10770	         7.53867e+57
          1738.91400	         7.44463e+57
          1739.72030	         7.84945e+57
          1740.52660	         6.16084e+57
          1741.33290	         6.46809e+57
          1742.13920	         6.82786e+57
          1742.94550	         6.23409e+57
          1743.75180	         7.16669e+57
          1744.55810	         7.68795e+57
          1745.36440	         8.34110e+57
          1746.17070	         6.36872e+57
          1746.97700	         6.09542e+57
          1747.78330	         7.60457e+57
          1748.58960	         7.71115e+57
          1749.39590	         6.89917e+57
          1750.20220	         6.59255e+57
          1751.00850	         5.09404e+57
          1751.81480	         6.50138e+57
          1752.62110	         7.94505e+57
          1753.42740	         7.60321e+57
          1754.23370	         6.26501e+57
          1755.04000	         6.89783e+57
          1755.84630	         6.91721e+57
          1756.65260	         7.27476e+57
          1757.45890	         8.43658e+57
          1758.26520	         7.97240e+57
          1759.07150	         9.20037e+57
          1759.87780	         9.30313e+57
          1760.68410	         8.65975e+57
          1761.49040	         8.38013e+57
          1762.29670	         6.63543e+57
          1763.10300	         7.41385e+57
          1763.90930	         8.05852e+57
          1764.71560	         7.36458e+57
          1765.52190	         7.26588e+57
          1766.32820	         9.11577e+57
          1767.13450	         9.08516e+57
          1767.94080	         7.03806e+57
          1768.74710	         7.36946e+57
          1769.55340	         7.59459e+57
          1770.35970	         6.39067e+57
          1771.16600	         6.79659e+57
          1771.97230	         8.63642e+57
          1772.77860	         8.07672e+57
          1773.58490	         7.22841e+57
          1774.39120	         5.78303e+57
          1775.19750	         5.97502e+57
          1776.00380	         6.89517e+57
          1776.81010	         7.08701e+57
          1777.61640	         7.15603e+57
          1778.42270	         7.40273e+57
          1779.22900	         6.68355e+57
          1780.03530	         7.20055e+57
          1780.84160	         8.31906e+57
          1781.64790	         7.72237e+57
          1782.45420	         6.96285e+57
          1783.26050	         6.66963e+57
          1784.06680	         6.73418e+57
          1784.87310	         7.75363e+57
          1785.67940	         8.50166e+57
          1786.48570	         7.09468e+57
          1787.29200	         6.08802e+57
          1788.09830	         6.22007e+57
          1788.90460	         5.49958e+57
          1789.71090	         5.08332e+57
          1790.51720	         5.46126e+57
          1791.32350	         6.73563e+57
          1792.12980	         8.55861e+57
          1792.93610	         8.13768e+57
          1793.74240	         6.53381e+57
          1794.54870	         7.49428e+57
          1795.35500	         8.51387e+57
          1796.16130	         8.16987e+57
          1796.96760	         6.52330e+57
          1797.77390	         6.78534e+57
          1798.58020	         8.15708e+57
          1799.38650	         6.61936e+57
          1800.19280	         5.93825e+57
          1800.99910	         7.43414e+57
          1801.80540	         7.37976e+57
          1802.61170	         8.23148e+57
          1803.41800	         9.26321e+57
          1804.22430	         7.59181e+57
          1805.03060	         5.67299e+57
          1805.83690	         6.59689e+57
          1806.64320	         8.00053e+57
          1807.44950	         7.17796e+57
          1808.25580	         6.87790e+57
          1809.06210	         6.73099e+57
          1809.86840	         6.86413e+57
          1810.67470	         7.37502e+57
          1811.48100	         8.63262e+57
          1812.28730	         7.74993e+57
          1813.09360	         8.19888e+57
          1813.89990	         7.06548e+57
          1814.70620	         7.59632e+57
          1815.51250	         8.79736e+57
          1816.31880	         9.01497e+57
          1817.12510	         7.92122e+57
          1817.93140	         7.19078e+57
          1818.73770	         6.80693e+57
          1819.54400	         8.53816e+57
          1820.35030	         9.36927e+57
          1821.15660	         6.49250e+57
          1821.96290	         6.01033e+57
          1822.76920	         7.69661e+57
          1823.57550	         7.85015e+57
          1824.38180	         7.68057e+57
          1825.18810	         7.28134e+57
          1825.99440	         8.29712e+57
          1826.80070	         8.46769e+57
          1827.60700	         6.82518e+57
          1828.41330	         5.48474e+57
          1829.21960	         5.87907e+57
          1830.02590	         5.84956e+57
          1830.83220	         6.86230e+57
          1831.63850	         6.82479e+57
          1832.44480	         6.85454e+57
          1833.25110	         8.35846e+57
          1834.05740	         9.20501e+57
          1834.86370	         7.23339e+57
          1835.67000	         6.01568e+57
          1836.47630	         8.15465e+57
          1837.28260	         1.00376e+58
          1838.08890	         9.21018e+57
          1838.89520	         8.68833e+57
          1839.70150	         7.96668e+57
          1840.50780	         7.35454e+57
          1841.31410	         7.44468e+57
          1842.12040	         6.68206e+57
          1842.92670	         7.15604e+57
          1843.73300	         6.17057e+57
          1844.53930	         5.82870e+57
          1845.34560	         7.13294e+57
          1846.15190	         7.71331e+57
          1846.95820	         8.22554e+57
          1847.76450	         7.70392e+57
          1848.57080	         5.58923e+57
          1849.37710	         4.95851e+57
          1850.18340	         6.83262e+57
          1850.98970	         7.64421e+57
          1851.79600	         7.68816e+57
          1852.60230	         6.26119e+57
          1853.40860	         5.37764e+57
          1854.21490	         6.37038e+57
          1855.02120	         6.58980e+57
          1855.82750	         5.53268e+57
          1856.63380	         6.25655e+57
          1857.44010	         7.28817e+57
          1858.24640	         7.09029e+57
          1859.05270	         7.38089e+57
          1859.85900	         7.17218e+57
          1860.66530	         5.81134e+57
          1861.47160	         6.05667e+57
          1862.27790	         6.27364e+57
          1863.08420	         6.24527e+57
          1863.89050	         7.54158e+57
          1864.69680	         7.23665e+57
          1865.50310	         6.45811e+57
          1866.30940	         4.88113e+57
          1867.11570	         5.65751e+57
          1867.92200	         7.78775e+57
          1868.72830	         7.94567e+57
          1869.53460	         7.16207e+57
          1870.34090	         7.14616e+57
          1871.14720	         7.63756e+57
          1871.95350	         7.57074e+57
          1872.75980	         6.81510e+57
          1873.56610	         6.76239e+57
          1874.37240	         6.42927e+57
          1875.17870	         6.02745e+57
          1875.98500	         7.29205e+57
          1876.79130	         7.85256e+57
          1877.59760	         6.74964e+57
          1878.40390	         5.67561e+57
          1879.21020	         5.50077e+57
          1880.01650	         6.93774e+57
          1880.82280	         7.41999e+57
          1881.62910	         8.27937e+57
          1882.43540	         9.11738e+57
          1883.24170	         7.97405e+57
          1884.04800	         6.61406e+57
          1884.85430	         7.31765e+57
          1885.66060	         8.33196e+57
          1886.46690	         8.85517e+57
          1887.27320	         7.76664e+57
          1888.07950	         5.83957e+57
          1888.88580	         6.15173e+57
          1889.69210	         8.28182e+57
          1890.49840	         8.46176e+57
          1891.30470	         6.87726e+57
          1892.11100	         6.93693e+57
          1892.91730	         6.59316e+57
          1893.72360	         6.38208e+57
          1894.52990	         7.07226e+57
          1895.33620	         8.33083e+57
          1896.14250	         7.89248e+57
          1896.94880	         5.89772e+57
          1897.75510	         4.26324e+57
          1898.56140	         5.42458e+57
          1899.36770	         7.08843e+57
          1900.17400	         6.47456e+57
          1900.98030	         6.72230e+57
          1901.78660	         6.92503e+57
          1902.59290	         7.34537e+57
          1903.39920	         8.48014e+57
          1904.20550	         8.89807e+57
          1905.01180	         8.96567e+57
          1905.81810	         9.88999e+57
          1906.62440	         1.24313e+58
          1907.43070	         1.45493e+58
          1908.23700	         1.45041e+58
          1909.04330	         1.29667e+58
          1909.84960	         1.11016e+58
          1910.65590	         9.61097e+57
          1911.46220	         9.47529e+57
          1912.26850	         7.12605e+57
          1913.07480	         5.52911e+57
          1913.88110	         6.01456e+57
          1914.68740	         5.78079e+57
          1915.49370	         5.34656e+57
          1916.30000	         5.97573e+57
          1917.10630	         6.45817e+57
          1917.91260	         5.78690e+57
          1918.71890	         5.57330e+57
          1919.52520	         5.33803e+57
          1920.33150	         5.81716e+57
          1921.13780	         7.18587e+57
          1921.94410	         6.92056e+57
          1922.75040	         6.79192e+57
          1923.55670	         7.49233e+57
          1924.36300	         7.91763e+57
          1925.16930	         6.34160e+57
          1925.97560	         4.88725e+57
          1926.78190	         5.21229e+57
          1927.58820	         6.48683e+57
          1928.39450	         5.62688e+57
          1929.20080	         5.44152e+57
          1930.00710	         6.44455e+57
          1930.81340	         7.65496e+57
          1931.61970	         7.28811e+57
          1932.42600	         8.15787e+57
          1933.23230	         8.28860e+57
          1934.03860	         7.06831e+57
          1934.84490	         6.11476e+57
          1935.65120	         7.48701e+57
          1936.45750	         8.41447e+57
          1937.26380	         6.98740e+57
          1938.07010	         6.87846e+57
          1938.87640	         7.19069e+57
          1939.68270	         7.88599e+57
          1940.48900	         8.45992e+57
          1941.29530	         8.28130e+57
          1942.10160	         7.65070e+57
          1942.90790	         7.01536e+57
          1943.71420	         6.51820e+57
          1944.52050	         6.74344e+57
          1945.32680	         6.06732e+57
          1946.13310	         7.47865e+57
          1946.93940	         7.62230e+57
          1947.74570	         7.48397e+57
          1948.55200	         6.38452e+57
          1949.35830	         6.08531e+57
          1950.16460	         5.68316e+57
          1950.97090	         6.62215e+57
          1951.77720	         7.72916e+57
          1952.58350	         8.37244e+57
          1953.38980	         6.48269e+57
          1954.19610	         5.28958e+57
          1955.00240	         5.91428e+57
          1955.80870	         5.86113e+57
          1956.61500	         5.47404e+57
          1957.42130	         4.77975e+57
          1958.22760	         5.99372e+57
          1959.03390	         6.61484e+57
          1959.84020	         8.19291e+57
          1960.64650	         7.97099e+57
          1961.45280	         6.34568e+57
          1962.25910	         5.49670e+57
          1963.06540	         5.35176e+57
          1963.87170	         4.81647e+57
          1964.67800	         6.65630e+57
          1965.48430	         6.49458e+57
          1966.29060	         6.31013e+57
          1967.09690	         7.33777e+57
          1967.90320	         7.12311e+57
          1968.70950	         6.63407e+57
          1969.51580	         6.93511e+57
          1970.32210	         7.59739e+57
          1971.12840	         6.79187e+57
          1971.93470	         5.12334e+57
          1972.74100	         4.54770e+57
          1973.54730	         6.22511e+57
          1974.35360	         7.99748e+57
          1975.15990	         8.43997e+57
          1975.96620	         7.01937e+57
          1976.77250	         7.74624e+57
          1977.57880	         8.21166e+57
          1978.38510	         7.69513e+57
          1979.19140	         6.96886e+57
          1979.99770	         7.92981e+57
          1980.80400	         8.28924e+57
          1981.61030	         7.06854e+57
          1982.41660	         5.43424e+57
          1983.22290	         5.01080e+57
          1984.02920	         5.94513e+57
          1984.83550	         5.77939e+57
          1985.64180	         6.23346e+57
          1986.44810	         6.30495e+57
          1987.25440	         6.12653e+57
          1988.06070	         5.62943e+57
          1988.86700	         6.08971e+57
          1989.67330	         7.40356e+57
          1990.47960	         6.68767e+57
          1991.28590	         6.71099e+57
          1992.09220	         6.15453e+57
          1992.89850	         5.66752e+57
          1993.70480	         5.72607e+57
          1994.51110	         4.70717e+57
          1995.31740	         4.03377e+57
          1996.12370	         3.98370e+57
          1996.93000	         6.09915e+57
          1997.73630	         6.69091e+57
          1998.54260	         7.65981e+57
          1999.34890	         8.36260e+57
          2000.15520	         6.43215e+57
          2000.96150	         7.25604e+57
          2001.76780	         6.10932e+57
          2002.57410	         4.17006e+57
          2003.38040	         6.66444e+57
          2004.18670	         6.29628e+57
          2004.99300	         5.20740e+57
          2005.79930	         6.71925e+57
          2006.60560	         7.45790e+57
          2007.41190	         6.16526e+57
          2008.21820	         4.93109e+57
          2009.02450	         4.75586e+57
          2009.83080	         5.02433e+57
          2010.63710	         5.68991e+57
          2011.44340	         7.32187e+57
          2012.24970	         7.46206e+57
          2013.05600	         6.47804e+57
          2013.86230	         6.69773e+57
          2014.66860	         5.39001e+57
          2015.47490	         6.72896e+57
          2016.28120	         5.37078e+57
          2017.08750	         5.21570e+57
          2017.89380	         5.92371e+57
          2018.70010	         6.90529e+57
          2019.50640	         6.74458e+57
          2020.31270	         6.55122e+57
          2021.11900	         7.91343e+57
          2021.92530	         6.28616e+57
          2022.73160	         7.13181e+57
          2023.53790	         6.72229e+57
          2024.34420	         5.77220e+57
          2025.15050	         6.27382e+57
          2025.95680	         6.31973e+57
          2026.76310	         7.20604e+57
          2027.56940	         7.10701e+57
          2028.37570	         7.33447e+57
          2029.18200	         7.17842e+57
          2029.98830	         6.69069e+57
          2030.79460	         6.26172e+57
          2031.60090	         6.43312e+57
          2032.40720	         5.06462e+57
          2033.21350	         4.94385e+57
          2034.01980	         4.84826e+57
          2034.82610	         3.95303e+57
          2035.63240	         5.29235e+57
          2036.43870	         5.73694e+57
          2037.24500	         6.64029e+57
          2038.05130	         6.74780e+57
          2038.85760	         5.36973e+57
          2039.66390	         5.25041e+57
          2040.47020	         6.03225e+57
          2041.27650	         5.97060e+57
          2042.08280	         6.12086e+57
          2042.88910	         6.78211e+57
          2043.69540	         5.87188e+57
          2044.50170	         6.52376e+57
          2045.30800	         6.30810e+57
          2046.11430	         4.75596e+57
          2046.92060	         4.53942e+57
          2047.72690	         6.47543e+57
          2048.53320	         6.18861e+57
          2049.33950	         4.98204e+57
          2050.14580	         6.36206e+57
          2050.95210	         6.68015e+57
          2051.75840	         6.00343e+57
          2052.56470	         6.11482e+57
          2053.37100	         3.93309e+57
          2054.17730	         4.53047e+57
          2054.98360	         5.68188e+57
          2055.78990	         4.07399e+57
          2056.59620	         2.89603e+57
          2057.40250	         4.72725e+57
          2058.20880	         6.21867e+57
          2059.01510	         6.55746e+57
          2059.82140	         7.30379e+57
          2060.62770	         1.01542e+58
          2061.43400	         1.52830e+58
          2062.24030	         9.33231e+57
          2063.04660	         6.96410e+56
          2063.85290	        -4.15823e+54
          2064.65920	        -1.11909e+57
          2065.46550	        -7.22127e+57
          2066.27180	        -7.85109e+57
          2067.07810	         4.18098e+57
          2067.88440	         5.52673e+57
          2068.69070	         6.04146e+57
          2069.49700	         4.97814e+57
          2070.30330	         3.57362e+57
          2071.10960	         4.70700e+57
          2071.91590	         5.07758e+57
          2072.72220	         4.02470e+57
          2073.52850	         4.21674e+57
          2074.33480	         4.99799e+57
          2075.14110	         5.79351e+57
          2075.94740	         4.58425e+57
          2076.75370	         3.40894e+57
          2077.56000	         5.59226e+57
          2078.36630	         5.98938e+57
          2079.17260	         4.52287e+57
          2079.97890	         5.08306e+57
          2080.78520	         6.33447e+57
          2081.59150	         4.92062e+57
          2082.39780	         5.03318e+57
          2083.20410	         2.30674e+57
          2084.01040	         1.44094e+57
          2084.81670	         3.39281e+57
          2085.62300	         3.64703e+57
          2086.42930	         2.82344e+57
          2087.23560	         2.49147e+57
          2088.04190	         3.23307e+57
          2088.84820	         3.37625e+57
          2089.65450	         3.09365e+57
          2090.46080	         2.61597e+57
          2091.26710	         2.72794e+57
          2092.07340	         3.06465e+57
          2092.87970	         2.69679e+57
          2093.68600	         1.38534e+57
          2094.49230	         2.24921e+57
          2095.29860	         6.09780e+57
          2096.10490	         3.09014e+57
          2096.91120	         1.05836e+57
          2097.71750	         2.10784e+57
          2098.52380	         8.35644e+56
          2099.33010	         2.83024e+57
          2100.13640	         2.96813e+57
          2100.94270	         2.46883e+57
          2101.74900	         2.57295e+57
          2102.55530	         2.65808e+57
          2103.36160	         1.30544e+57
          2104.16790	         2.18108e+57
          2104.97420	         2.22525e+57
          2105.78050	         1.09272e+57
          2106.58680	        -1.15559e+57
          2107.39310	        -3.39623e+57
          2108.19940	        -3.18652e+56
          2109.00570	         4.80219e+56
          2109.81200	        -1.77575e+57
          2110.61830	         8.05903e+56
          2111.42460	         1.47190e+57
          2112.23090	         6.58501e+56
          2113.03720	        -2.83798e+57
          2113.84350	         3.38679e+56
          2114.64980	         1.89455e+57
          2115.45610	        -1.63060e+57
          2116.26240	        -3.16035e+57
          2117.06870	        -1.19491e+57
          2117.87500	        -1.59221e+57
          2118.68130	        -2.29422e+57
          2119.48760	         1.61065e+57
          2120.29390	        -2.77727e+57
          2121.10020	        -4.95360e+57
          2121.90650	        -3.24019e+57
          2122.71280	         5.98863e+56
          2123.51910	         1.82586e+57
          2124.32540	         1.04872e+57
          2125.13170	         1.26229e+57
          2125.93800	        -1.73744e+57
          2126.74430	        -8.33696e+57
          2127.55060	        -7.57548e+57
          2128.35690	        -5.06358e+57
          2129.16320	        -3.75775e+57
          2129.96950	        -9.48000e+56
          2130.77580	         1.81511e+57
          2131.58210	        -9.82072e+55
          2132.38840	         4.81056e+57
          2133.19470	         2.39401e+57
          2134.00100	         2.33967e+57
          2134.80730	        -6.55419e+57
          2135.61360	        -3.54903e+57
          2136.41990	         6.36097e+57
          2137.22620	         3.27755e+57
          2138.03250	         2.56099e+57
          2138.83880	        -7.98994e+57
          2139.64510	         2.44280e+57
          2140.45140	        -4.78079e+57
          2141.25770	        -1.38489e+58
          2142.06400	        -1.03981e+55
          2142.87030	         4.09196e+57
          2143.67660	         9.35553e+57
          2144.48290	         4.88269e+57
          2145.28920	         1.58573e+58
          2146.09550	        -1.13517e+57
          2146.90180	        -1.12581e+58
          2147.70810	        -4.14309e+57
          2148.51440	        -7.83399e+57
          2149.32070	        -1.29969e+58
          2150.12700	        -2.17486e+58
          2150.93330	        -1.76464e+57
          2151.73960	        -4.61924e+56
          2152.54590	        -1.06864e+57
          2153.35220	        -4.45171e+57
          2154.15850	         9.05290e+56
          2154.96480	         4.16841e+57
          2155.77110	        -1.08054e+58
          2156.57740	        -1.22559e+58
          2157.38370	         9.71375e+56
          2158.19000	         1.67000e+56
          2158.99630	         7.34497e+57
          2159.80260	        -1.17324e+58
          2160.60890	        -1.36527e+58
          2161.41520	        -5.72509e+57
          2162.22150	        -1.05685e+58
          2163.02780	        -6.86634e+57
          2163.83410	        -9.08381e+57
          2164.64040	        -8.40762e+57
          2165.44670	        -1.04098e+58
          2166.25300	        -1.68317e+58
          2167.05930	        -1.67296e+58
          2167.86560	        -7.60776e+57
          2168.67190	        -1.02329e+58
          2169.47820	        -1.89129e+58
          2170.28450	        -1.29411e+58
          2171.09080	         5.20933e+57
          2171.89710	         6.24811e+57
          2172.70340	        -1.05889e+58
          2173.50970	        -8.87286e+57
          2174.31600	        -4.50461e+57
          2175.12230	        -3.79768e+57
          2175.92860	        -6.13696e+57
          2176.73490	        -4.92598e+57
          2177.54120	        -6.08478e+57
          2178.34750	        -2.27118e+56
          2179.15380	                 nan
          2179.96010	                 nan
          2180.76640	                 nan
          2181.57270	                 nan
          2182.37900	                 nan
          2183.18530	                 nan
          2183.99160	                 nan
          2184.79790	                 nan
          2185.60420	                 nan
          2186.41050	                 nan
          2187.21680	                 nan
          2188.02310	                 nan
          2188.82940	                 nan
          2189.63570	                 nan
          2190.44200	                 nan
          2191.24830	                 nan
          2192.05460	                 nan
          2192.86090	                 nan
          2193.66720	                 nan
          2194.47350	                 nan
          2195.27980	                 nan
          2196.08610	                 nan
          2196.89240	                 nan
          2197.69870	                 nan
          2198.50500	                 nan
          2199.31130	                 nan
          2200.11760	                 nan
          2200.92390	                 nan
          2201.73020	                 nan
          2202.53650	                 nan
          2203.34280	                 nan
          2204.14910	                 nan
          2204.95540	                 nan
          2205.76170	                 nan
          2206.56800	                 nan
          2207.37430	                 nan
          2208.18060	                 nan
          2208.98690	                 nan
          2209.79320	                 nan
          2210.59950	                 nan
          2211.40580	                 nan
          2212.21210	                 nan
          2213.01840	                 nan
          2213.82470	                 nan
          2214.63100	                 nan
          2215.43730	         0.00000e+00
