#sample_194_stacked_spectrum_rest_UV-bands_median_H-alpha_noDC.txt
#median Lum: 1.70174e+42
#Rest-frame wavelength (A) | Luminosity (erg/s/A)
#
          1110.00000	         0.00000e+00
          1110.80630	         2.22238e+59
          1111.61260	         1.73366e+59
          1112.41890	         1.83386e+58
          1113.22520	         1.53058e+58
          1114.03150	        -8.53092e+58
          1114.83780	         1.86845e+59
          1115.64410	         1.17431e+58
          1116.45040	        -2.22285e+59
          1117.25670	         1.10887e+59
          1118.06300	         2.17722e+59
          1118.86930	         1.31232e+58
          1119.67560	         2.04592e+59
          1120.48190	         1.85307e+57
          1121.28820	        -1.57618e+59
          1122.09450	        -3.43692e+58
          1122.90080	        -2.90770e+58
          1123.70710	         2.96543e+58
          1124.51340	         8.17928e+58
          1125.31970	        -2.83161e+58
          1126.12600	         3.79905e+57
          1126.93230	        -3.06014e+58
          1127.73860	        -4.01297e+58
          1128.54490	         1.50934e+58
          1129.35120	         2.02740e+58
          1130.15750	        -5.31493e+58
          1130.96380	        -6.97270e+57
          1131.77010	         7.11975e+58
          1132.57640	         4.40939e+58
          1133.38270	         3.66801e+58
          1134.18900	         2.09460e+58
          1134.99530	         1.78458e+58
          1135.80160	         7.92939e+57
          1136.60790	         1.18267e+58
          1137.41420	         1.16653e+58
          1138.22050	         5.83256e+58
          1139.02680	         3.20982e+58
          1139.83310	         2.84577e+58
          1140.63940	         2.96985e+58
          1141.44570	         9.37923e+57
          1142.25200	        -8.96206e+57
          1143.05830	         1.25455e+58
          1143.86460	         3.58844e+58
          1144.67090	         3.95560e+58
          1145.47720	         1.66064e+58
          1146.28350	         7.30235e+57
          1147.08980	         9.56177e+57
          1147.89610	         2.08904e+58
          1148.70240	         2.55301e+58
          1149.50870	         2.09498e+58
          1150.31500	         1.45968e+58
          1151.12130	         9.24542e+57
          1151.92760	         3.03943e+57
          1152.73390	         1.11955e+58
          1153.54020	        -4.34653e+57
          1154.34650	         1.85517e+58
          1155.15280	         1.78932e+58
          1155.95910	         1.03846e+58
          1156.76540	         1.56609e+58
          1157.57170	         3.20591e+57
          1158.37800	        -4.32992e+57
          1159.18430	         7.44345e+56
          1159.99060	         1.51959e+57
          1160.79690	         5.95629e+57
          1161.60320	         1.40537e+58
          1162.40950	         2.07426e+58
          1163.21580	         6.06447e+57
          1164.02210	         1.41428e+58
          1164.82840	         1.74110e+58
          1165.63470	         2.46950e+58
          1166.44100	         2.80471e+58
          1167.24730	         2.60579e+58
          1168.05360	         8.65686e+57
          1168.85990	         2.59924e+57
          1169.66620	         1.38907e+57
          1170.47250	         2.71812e+57
          1171.27880	         5.51163e+56
          1172.08510	         3.36541e+57
          1172.89140	         1.27936e+58
          1173.69770	         1.35232e+58
          1174.50400	         1.59456e+58
          1175.31030	         1.64895e+58
          1176.11660	         1.79897e+58
          1176.92290	         1.69895e+58
          1177.72920	         1.44660e+58
          1178.53550	         1.17637e+58
          1179.34180	         1.05460e+58
          1180.14810	         1.07656e+58
          1180.95440	         1.08743e+58
          1181.76070	         7.79643e+57
          1182.56700	         8.49893e+57
          1183.37330	         9.15430e+57
          1184.17960	         1.38559e+58
          1184.98590	         9.41016e+57
          1185.79220	         3.20314e+57
          1186.59850	         5.89086e+57
          1187.40480	         1.12041e+58
          1188.21110	         1.40872e+58
          1189.01740	         7.39133e+57
          1189.82370	         5.20941e+57
          1190.63000	         1.51353e+58
          1191.43630	         1.87611e+58
          1192.24260	         1.06693e+58
          1193.04890	         1.00801e+58
          1193.85520	         9.55636e+57
          1194.66150	         5.14569e+57
          1195.46780	         1.03595e+58
          1196.27410	         1.74628e+58
          1197.08040	         9.35535e+57
          1197.88670	         1.51598e+58
          1198.69300	         1.89097e+58
          1199.49930	         1.58669e+58
          1200.30560	         1.21003e+58
          1201.11190	         1.33822e+58
          1201.91820	         1.22880e+58
          1202.72450	         6.55948e+57
          1203.53080	         1.44059e+58
          1204.33710	         8.04042e+57
          1205.14340	         7.00835e+57
          1205.94970	         8.52848e+57
          1206.75600	         8.89409e+57
          1207.56230	         6.64480e+57
          1208.36860	         1.16683e+58
          1209.17490	         6.33344e+57
          1209.98120	         6.26050e+57
          1210.78750	         1.09143e+58
          1211.59380	         1.37582e+58
          1212.40010	         1.85494e+58
          1213.20640	         2.00488e+58
          1214.01270	         2.12079e+58
          1214.81900	         2.30898e+58
          1215.62530	         4.29749e+58
          1216.43160	         8.88945e+58
          1217.23790	         1.50838e+59
          1218.04420	         1.16153e+59
          1218.85050	         8.85446e+58
          1219.65680	         6.01987e+58
          1220.46310	         3.68759e+58
          1221.26940	         2.55785e+58
          1222.07570	         1.92057e+58
          1222.88200	         1.46514e+58
          1223.68830	         1.17614e+58
          1224.49460	         8.59516e+57
          1225.30090	         8.07618e+57
          1226.10720	         6.80236e+57
          1226.91350	         5.74774e+57
          1227.71980	         1.20097e+58
          1228.52610	         1.21071e+58
          1229.33240	         1.07850e+58
          1230.13870	         8.97890e+57
          1230.94500	         9.49919e+57
          1231.75130	         5.33390e+57
          1232.55760	         8.01483e+57
          1233.36390	         9.99266e+57
          1234.17020	         9.04061e+57
          1234.97650	         6.70249e+57
          1235.78280	         5.93967e+57
          1236.58910	         8.70334e+57
          1237.39540	         1.13966e+58
          1238.20170	         9.71122e+57
          1239.00800	         1.24683e+58
          1239.81430	         1.53337e+58
          1240.62060	         1.17116e+58
          1241.42690	         1.12814e+58
          1242.23320	         1.20912e+58
          1243.03950	         6.82054e+57
          1243.84580	         7.15101e+57
          1244.65210	         1.27539e+58
          1245.45840	         1.18028e+58
          1246.26470	         8.52027e+57
          1247.07100	         7.17704e+57
          1247.87730	         6.11028e+57
          1248.68360	         3.80093e+57
          1249.48990	         8.34848e+57
          1250.29620	         1.14123e+58
          1251.10250	         7.09788e+57
          1251.90880	         4.23897e+57
          1252.71510	         5.75825e+57
          1253.52140	         5.84961e+57
          1254.32770	         1.07096e+58
          1255.13400	         1.31080e+58
          1255.94030	         1.15977e+58
          1256.74660	         9.92091e+57
          1257.55290	         1.01344e+58
          1258.35920	         7.46634e+57
          1259.16550	         4.70344e+57
          1259.97180	         6.53466e+57
          1260.77810	         9.26958e+57
          1261.58440	         1.01944e+58
          1262.39070	         7.58872e+57
          1263.19700	         7.09275e+57
          1264.00330	         1.05337e+58
          1264.80960	         1.06158e+58
          1265.61590	         1.19805e+58
          1266.42220	         1.25120e+58
          1267.22850	         1.05590e+58
          1268.03480	         1.34957e+58
          1268.84110	         1.47318e+58
          1269.64740	         1.27839e+58
          1270.45370	         1.18372e+58
          1271.26000	         1.22502e+58
          1272.06630	         1.24533e+58
          1272.87260	         1.26585e+58
          1273.67890	         1.35265e+58
          1274.48520	         1.30967e+58
          1275.29150	         1.44545e+58
          1276.09780	         1.48013e+58
          1276.90410	         1.65698e+58
          1277.71040	         1.26067e+58
          1278.51670	         1.13925e+58
          1279.32300	         1.45430e+58
          1280.12930	         1.24823e+58
          1280.93560	         1.10373e+58
          1281.74190	         1.23479e+58
          1282.54820	         1.35920e+58
          1283.35450	         1.08935e+58
          1284.16080	         1.00891e+58
          1284.96710	         1.19816e+58
          1285.77340	         8.17063e+57
          1286.57970	         8.21514e+57
          1287.38600	         1.38832e+58
          1288.19230	         1.69605e+58
          1288.99860	         1.56585e+58
          1289.80490	         1.15284e+58
          1290.61120	         1.41001e+58
          1291.41750	         1.41566e+58
          1292.22380	         1.20588e+58
          1293.03010	         1.08555e+58
          1293.83640	         1.19359e+58
          1294.64270	         1.23521e+58
          1295.44900	         7.98523e+57
          1296.25530	         8.33738e+57
          1297.06160	         1.11952e+58
          1297.86790	         1.03274e+58
          1298.67420	         8.47232e+57
          1299.48050	         9.38767e+57
          1300.28680	         9.85228e+57
          1301.09310	         7.25215e+57
          1301.89940	         3.47255e+57
          1302.70570	         5.57601e+57
          1303.51200	         8.20925e+57
          1304.31830	         9.98626e+57
          1305.12460	         1.15819e+58
          1305.93090	         1.11352e+58
          1306.73720	         1.05682e+58
          1307.54350	         1.32086e+58
          1308.34980	         1.47296e+58
          1309.15610	         1.39372e+58
          1309.96240	         1.39769e+58
          1310.76870	         1.21638e+58
          1311.57500	         1.02904e+58
          1312.38130	         1.07990e+58
          1313.18760	         1.32182e+58
          1313.99390	         1.58241e+58
          1314.80020	         1.54828e+58
          1315.60650	         1.43662e+58
          1316.41280	         1.01940e+58
          1317.21910	         8.25422e+57
          1318.02540	         1.09585e+58
          1318.83170	         1.34786e+58
          1319.63800	         1.18362e+58
          1320.44430	         1.04169e+58
          1321.25060	         1.30632e+58
          1322.05690	         1.34384e+58
          1322.86320	         1.16637e+58
          1323.66950	         9.91596e+57
          1324.47580	         9.04567e+57
          1325.28210	         9.82525e+57
          1326.08840	         1.22970e+58
          1326.89470	         1.51575e+58
          1327.70100	         1.16901e+58
          1328.50730	         7.35351e+57
          1329.31360	         8.39233e+57
          1330.11990	         9.72843e+57
          1330.92620	         9.23344e+57
          1331.73250	         1.03578e+58
          1332.53880	         9.87884e+57
          1333.34510	         9.65081e+57
          1334.15140	         9.47277e+57
          1334.95770	         9.13738e+57
          1335.76400	         9.25286e+57
          1336.57030	         8.70800e+57
          1337.37660	         9.66732e+57
          1338.18290	         1.06705e+58
          1338.98920	         1.09873e+58
          1339.79550	         1.14981e+58
          1340.60180	         1.16517e+58
          1341.40810	         1.22844e+58
          1342.21440	         1.23192e+58
          1343.02070	         1.15319e+58
          1343.82700	         1.30322e+58
          1344.63330	         1.20567e+58
          1345.43960	         1.37003e+58
          1346.24590	         1.14133e+58
          1347.05220	         1.07711e+58
          1347.85850	         1.10536e+58
          1348.66480	         1.09449e+58
          1349.47110	         1.19270e+58
          1350.27740	         1.21222e+58
          1351.08370	         1.12967e+58
          1351.89000	         1.17824e+58
          1352.69630	         1.27906e+58
          1353.50260	         1.25823e+58
          1354.30890	         1.24637e+58
          1355.11520	         1.15566e+58
          1355.92150	         1.08857e+58
          1356.72780	         1.17816e+58
          1357.53410	         1.08856e+58
          1358.34040	         1.03145e+58
          1359.14670	         9.98374e+57
          1359.95300	         1.07909e+58
          1360.75930	         1.11991e+58
          1361.56560	         1.10766e+58
          1362.37190	         1.10996e+58
          1363.17820	         1.02269e+58
          1363.98450	         1.02196e+58
          1364.79080	         1.26122e+58
          1365.59710	         1.20674e+58
          1366.40340	         1.12831e+58
          1367.20970	         1.07655e+58
          1368.01600	         9.56395e+57
          1368.82230	         9.78760e+57
          1369.62860	         1.06784e+58
          1370.43490	         9.58465e+57
          1371.24120	         9.11782e+57
          1372.04750	         9.20657e+57
          1372.85380	         1.04810e+58
          1373.66010	         1.09443e+58
          1374.46640	         1.03272e+58
          1375.27270	         9.91580e+57
          1376.07900	         9.70697e+57
          1376.88530	         9.25197e+57
          1377.69160	         8.26698e+57
          1378.49790	         7.57818e+57
          1379.30420	         8.16569e+57
          1380.11050	         9.85018e+57
          1380.91680	         8.67877e+57
          1381.72310	         7.23911e+57
          1382.52940	         7.77285e+57
          1383.33570	         8.89838e+57
          1384.14200	         1.01178e+58
          1384.94830	         1.15180e+58
          1385.75460	         1.20596e+58
          1386.56090	         1.19350e+58
          1387.36720	         1.13886e+58
          1388.17350	         1.24184e+58
          1388.97980	         1.11947e+58
          1389.78610	         1.00929e+58
          1390.59240	         8.30808e+57
          1391.39870	         7.90256e+57
          1392.20500	         8.70819e+57
          1393.01130	         6.91469e+57
          1393.81760	         5.79195e+57
          1394.62390	         7.05398e+57
          1395.43020	         5.79804e+57
          1396.23650	         6.41420e+57
          1397.04280	         7.80926e+57
          1397.84910	         7.97548e+57
          1398.65540	         8.61880e+57
          1399.46170	         1.04558e+58
          1400.26800	         8.07444e+57
          1401.07430	         7.67561e+57
          1401.88060	         7.67777e+57
          1402.68690	         8.01762e+57
          1403.49320	         8.94084e+57
          1404.29950	         9.51788e+57
          1405.10580	         1.05171e+58
          1405.91210	         1.03395e+58
          1406.71840	         9.69116e+57
          1407.52470	         1.01646e+58
          1408.33100	         1.08709e+58
          1409.13730	         1.17646e+58
          1409.94360	         1.13282e+58
          1410.74990	         1.17133e+58
          1411.55620	         1.13322e+58
          1412.36250	         8.71313e+57
          1413.16880	         8.28047e+57
          1413.97510	         9.37963e+57
          1414.78140	         8.76547e+57
          1415.58770	         1.03655e+58
          1416.39400	         1.10347e+58
          1417.20030	         1.13476e+58
          1418.00660	         1.10153e+58
          1418.81290	         1.01170e+58
          1419.61920	         8.85261e+57
          1420.42550	         1.16381e+58
          1421.23180	         1.41775e+58
          1422.03810	         1.24579e+58
          1422.84440	         9.92196e+57
          1423.65070	         1.07059e+58
          1424.45700	         1.11018e+58
          1425.26330	         9.39374e+57
          1426.06960	         8.71694e+57
          1426.87590	         9.61160e+57
          1427.68220	         9.87852e+57
          1428.48850	         1.09322e+58
          1429.29480	         1.13335e+58
          1430.10110	         1.06787e+58
          1430.90740	         8.31706e+57
          1431.71370	         8.47593e+57
          1432.52000	         9.89573e+57
          1433.32630	         7.76055e+57
          1434.13260	         7.26747e+57
          1434.93890	         7.99908e+57
          1435.74520	         8.29201e+57
          1436.55150	         9.08686e+57
          1437.35780	         9.27907e+57
          1438.16410	         9.47217e+57
          1438.97040	         8.94299e+57
          1439.77670	         8.66158e+57
          1440.58300	         9.26716e+57
          1441.38930	         8.61571e+57
          1442.19560	         8.46413e+57
          1443.00190	         1.05694e+58
          1443.80820	         1.16956e+58
          1444.61450	         9.45782e+57
          1445.42080	         8.16155e+57
          1446.22710	         9.56990e+57
          1447.03340	         1.01938e+58
          1447.83970	         1.04152e+58
          1448.64600	         1.13621e+58
          1449.45230	         1.11425e+58
          1450.25860	         1.03077e+58
          1451.06490	         8.73057e+57
          1451.87120	         8.18807e+57
          1452.67750	         7.57014e+57
          1453.48380	         9.63418e+57
          1454.29010	         8.65475e+57
          1455.09640	         7.28515e+57
          1455.90270	         8.82409e+57
          1456.70900	         8.71637e+57
          1457.51530	         8.98987e+57
          1458.32160	         1.17996e+58
          1459.12790	         1.24847e+58
          1459.93420	         9.90006e+57
          1460.74050	         6.76808e+57
          1461.54680	         6.76849e+57
          1462.35310	         6.92658e+57
          1463.15940	         8.71142e+57
          1463.96570	         1.05607e+58
          1464.77200	         1.11410e+58
          1465.57830	         1.11118e+58
          1466.38460	         1.03637e+58
          1467.19090	         8.92460e+57
          1467.99720	         9.50728e+57
          1468.80350	         9.06413e+57
          1469.60980	         9.02564e+57
          1470.41610	         1.06683e+58
          1471.22240	         9.48298e+57
          1472.02870	         9.10009e+57
          1472.83500	         1.04550e+58
          1473.64130	         9.61748e+57
          1474.44760	         9.42071e+57
          1475.25390	         9.61869e+57
          1476.06020	         8.80182e+57
          1476.86650	         8.25021e+57
          1477.67280	         8.04016e+57
          1478.47910	         7.06783e+57
          1479.28540	         6.60402e+57
          1480.09170	         8.04120e+57
          1480.89800	         8.11965e+57
          1481.70430	         8.23375e+57
          1482.51060	         8.72875e+57
          1483.31690	         7.78374e+57
          1484.12320	         7.25829e+57
          1484.92950	         6.80265e+57
          1485.73580	         7.44781e+57
          1486.54210	         8.48566e+57
          1487.34840	         9.32066e+57
          1488.15470	         8.09405e+57
          1488.96100	         8.06542e+57
          1489.76730	         8.84484e+57
          1490.57360	         8.48706e+57
          1491.37990	         8.13029e+57
          1492.18620	         8.18929e+57
          1492.99250	         8.04610e+57
          1493.79880	         8.02909e+57
          1494.60510	         8.37215e+57
          1495.41140	         7.22454e+57
          1496.21770	         8.18964e+57
          1497.02400	         1.04055e+58
          1497.83030	         8.72669e+57
          1498.63660	         7.37492e+57
          1499.44290	         6.48902e+57
          1500.24920	         6.92186e+57
          1501.05550	         7.91487e+57
          1501.86180	         7.98697e+57
          1502.66810	         9.59585e+57
          1503.47440	         9.47196e+57
          1504.28070	         9.24839e+57
          1505.08700	         1.04990e+58
          1505.89330	         9.91322e+57
          1506.69960	         8.89172e+57
          1507.50590	         8.64385e+57
          1508.31220	         9.68565e+57
          1509.11850	         9.42751e+57
          1509.92480	         8.65607e+57
          1510.73110	         8.64337e+57
          1511.53740	         6.85999e+57
          1512.34370	         7.48776e+57
          1513.15000	         9.80652e+57
          1513.95630	         1.05648e+58
          1514.76260	         9.39644e+57
          1515.56890	         8.98396e+57
          1516.37520	         8.87141e+57
          1517.18150	         8.68453e+57
          1517.98780	         7.79213e+57
          1518.79410	         7.22622e+57
          1519.60040	         7.23969e+57
          1520.40670	         8.81283e+57
          1521.21300	         9.04624e+57
          1522.01930	         7.51380e+57
          1522.82560	         8.17709e+57
          1523.63190	         9.76264e+57
          1524.43820	         8.52578e+57
          1525.24450	         5.50053e+57
          1526.05080	         5.02304e+57
          1526.85710	         5.39343e+57
          1527.66340	         6.97070e+57
          1528.46970	         8.74403e+57
          1529.27600	         7.84096e+57
          1530.08230	         6.69824e+57
          1530.88860	         6.92134e+57
          1531.69490	         8.89877e+57
          1532.50120	         9.43814e+57
          1533.30750	         1.00019e+58
          1534.11380	         1.08490e+58
          1534.92010	         1.00748e+58
          1535.72640	         9.65219e+57
          1536.53270	         8.93448e+57
          1537.33900	         8.88888e+57
          1538.14530	         8.66035e+57
          1538.95160	         9.42820e+57
          1539.75790	         9.10493e+57
          1540.56420	         7.38239e+57
          1541.37050	         6.90201e+57
          1542.17680	         7.32415e+57
          1542.98310	         7.36667e+57
          1543.78940	         7.12711e+57
          1544.59570	         7.74107e+57
          1545.40200	         7.31158e+57
          1546.20830	         8.10441e+57
          1547.01460	         1.00761e+58
          1547.82090	         1.17555e+58
          1548.62720	         1.22611e+58
          1549.43350	         1.22402e+58
          1550.23980	         1.13581e+58
          1551.04610	         1.23134e+58
          1551.85240	         1.26948e+58
          1552.65870	         1.21606e+58
          1553.46500	         1.01280e+58
          1554.27130	         9.73906e+57
          1555.07760	         9.42892e+57
          1555.88390	         8.47045e+57
          1556.69020	         8.57096e+57
          1557.49650	         8.43482e+57
          1558.30280	         8.63922e+57
          1559.10910	         8.83478e+57
          1559.91540	         9.30394e+57
          1560.72170	         9.07649e+57
          1561.52800	         8.46194e+57
          1562.33430	         8.55485e+57
          1563.14060	         8.38967e+57
          1563.94690	         9.17968e+57
          1564.75320	         8.59524e+57
          1565.55950	         7.02675e+57
          1566.36580	         6.58944e+57
          1567.17210	         8.04449e+57
          1567.97840	         8.98290e+57
          1568.78470	         8.18625e+57
          1569.59100	         8.80837e+57
          1570.39730	         8.22486e+57
          1571.20360	         7.06214e+57
          1572.00990	         7.33713e+57
          1572.81620	         8.43525e+57
          1573.62250	         9.96775e+57
          1574.42880	         9.67058e+57
          1575.23510	         7.93455e+57
          1576.04140	         8.75388e+57
          1576.84770	         8.90990e+57
          1577.65400	         8.42223e+57
          1578.46030	         9.58772e+57
          1579.26660	         9.78840e+57
          1580.07290	         8.96608e+57
          1580.87920	         8.28465e+57
          1581.68550	         7.90057e+57
          1582.49180	         7.95589e+57
          1583.29810	         6.96984e+57
          1584.10440	         7.36608e+57
          1584.91070	         8.81590e+57
          1585.71700	         8.63492e+57
          1586.52330	         8.81571e+57
          1587.32960	         8.93022e+57
          1588.13590	         8.42177e+57
          1588.94220	         7.89462e+57
          1589.74850	         8.88864e+57
          1590.55480	         9.44499e+57
          1591.36110	         8.63689e+57
          1592.16740	         8.56935e+57
          1592.97370	         8.43961e+57
          1593.78000	         8.65864e+57
          1594.58630	         9.03215e+57
          1595.39260	         8.95529e+57
          1596.19890	         8.59732e+57
          1597.00520	         8.16567e+57
          1597.81150	         8.91725e+57
          1598.61780	         8.00938e+57
          1599.42410	         6.73856e+57
          1600.23040	         6.18102e+57
          1601.03670	         7.44149e+57
          1601.84300	         7.10291e+57
          1602.64930	         8.45287e+57
          1603.45560	         8.62039e+57
          1604.26190	         7.48412e+57
          1605.06820	         7.69606e+57
          1605.87450	         7.68979e+57
          1606.68080	         7.03711e+57
          1607.48710	         6.57724e+57
          1608.29340	         6.04454e+57
          1609.09970	         6.21936e+57
          1609.90600	         6.89624e+57
          1610.71230	         6.79901e+57
          1611.51860	         6.29673e+57
          1612.32490	         5.85887e+57
          1613.13120	         7.05085e+57
          1613.93750	         7.73089e+57
          1614.74380	         8.87690e+57
          1615.55010	         9.18742e+57
          1616.35640	         8.72497e+57
          1617.16270	         9.32824e+57
          1617.96900	         9.86836e+57
          1618.77530	         8.55150e+57
          1619.58160	         8.64323e+57
          1620.38790	         7.85526e+57
          1621.19420	         8.55858e+57
          1622.00050	         8.85074e+57
          1622.80680	         8.56854e+57
          1623.61310	         8.42102e+57
          1624.41940	         7.50628e+57
          1625.22570	         8.24686e+57
          1626.03200	         8.18980e+57
          1626.83830	         7.15686e+57
          1627.64460	         7.27720e+57
          1628.45090	         6.95959e+57
          1629.25720	         8.43129e+57
          1630.06350	         9.17068e+57
          1630.86980	         6.81507e+57
          1631.67610	         7.99447e+57
          1632.48240	         8.66661e+57
          1633.28870	         8.46227e+57
          1634.09500	         9.94139e+57
          1634.90130	         9.53769e+57
          1635.70760	         7.18411e+57
          1636.51390	         8.57740e+57
          1637.32020	         8.34649e+57
          1638.12650	         8.96086e+57
          1638.93280	         8.66197e+57
          1639.73910	         9.19540e+57
          1640.54540	         9.53456e+57
          1641.35170	         9.16542e+57
          1642.15800	         9.07589e+57
          1642.96430	         7.89761e+57
          1643.77060	         8.33794e+57
          1644.57690	         7.55606e+57
          1645.38320	         7.73587e+57
          1646.18950	         7.39823e+57
          1646.99580	         8.49596e+57
          1647.80210	         7.62740e+57
          1648.60840	         6.85735e+57
          1649.41470	         8.09689e+57
          1650.22100	         7.33749e+57
          1651.02730	         7.10212e+57
          1651.83360	         7.12035e+57
          1652.63990	         7.43115e+57
          1653.44620	         8.59069e+57
          1654.25250	         8.00414e+57
          1655.05880	         7.17836e+57
          1655.86510	         7.85591e+57
          1656.67140	         7.80073e+57
          1657.47770	         7.60239e+57
          1658.28400	         7.99281e+57
          1659.09030	         8.57027e+57
          1659.89660	         9.38255e+57
          1660.70290	         1.02630e+58
          1661.50920	         9.52589e+57
          1662.31550	         8.10819e+57
          1663.12180	         7.81068e+57
          1663.92810	         9.25191e+57
          1664.73440	         1.05838e+58
          1665.54070	         1.21315e+58
          1666.34700	         1.20121e+58
          1667.15330	         1.15799e+58
          1667.95960	         9.58791e+57
          1668.76590	         7.31188e+57
          1669.57220	         6.56660e+57
          1670.37850	         7.90915e+57
          1671.18480	         8.16141e+57
          1671.99110	         8.70101e+57
          1672.79740	         8.30283e+57
          1673.60370	         6.85041e+57
          1674.41000	         6.84883e+57
          1675.21630	         6.62588e+57
          1676.02260	         5.23463e+57
          1676.82890	         6.59071e+57
          1677.63520	         6.80375e+57
          1678.44150	         7.44513e+57
          1679.24780	         9.93984e+57
          1680.05410	         8.41675e+57
          1680.86040	         6.16097e+57
          1681.66670	         6.28662e+57
          1682.47300	         7.39533e+57
          1683.27930	         8.64899e+57
          1684.08560	         8.68343e+57
          1684.89190	         6.90035e+57
          1685.69820	         5.25211e+57
          1686.50450	         4.80525e+57
          1687.31080	         6.14850e+57
          1688.11710	         7.67298e+57
          1688.92340	         6.39244e+57
          1689.72970	         6.35411e+57
          1690.53600	         6.58591e+57
          1691.34230	         6.91243e+57
          1692.14860	         7.47156e+57
          1692.95490	         7.50179e+57
          1693.76120	         7.05160e+57
          1694.56750	         7.12099e+57
          1695.37380	         8.15484e+57
          1696.18010	         8.14563e+57
          1696.98640	         8.14311e+57
          1697.79270	         8.29413e+57
          1698.59900	         8.79603e+57
          1699.40530	         7.45562e+57
          1700.21160	         7.16274e+57
          1701.01790	         8.66669e+57
          1701.82420	         7.41128e+57
          1702.63050	         7.60334e+57
          1703.43680	         8.60063e+57
          1704.24310	         9.06012e+57
          1705.04940	         9.13450e+57
          1705.85570	         8.35202e+57
          1706.66200	         8.52858e+57
          1707.46830	         7.82830e+57
          1708.27460	         7.46744e+57
          1709.08090	         6.31768e+57
          1709.88720	         6.83351e+57
          1710.69350	         6.28711e+57
          1711.49980	         5.47372e+57
          1712.30610	         6.71243e+57
          1713.11240	         8.99752e+57
          1713.91870	         8.06729e+57
          1714.72500	         7.56425e+57
          1715.53130	         8.01589e+57
          1716.33760	         7.57307e+57
          1717.14390	         6.87344e+57
          1717.95020	         8.00514e+57
          1718.75650	         7.83428e+57
          1719.56280	         8.49649e+57
          1720.36910	         7.21258e+57
          1721.17540	         6.49214e+57
          1721.98170	         5.86644e+57
          1722.78800	         6.23700e+57
          1723.59430	         6.88349e+57
          1724.40060	         8.56851e+57
          1725.20690	         9.03939e+57
          1726.01320	         7.87105e+57
          1726.81950	         7.22564e+57
          1727.62580	         7.05906e+57
          1728.43210	         7.37135e+57
          1729.23840	         7.73223e+57
          1730.04470	         7.97694e+57
          1730.85100	         8.53227e+57
          1731.65730	         8.69948e+57
          1732.46360	         8.46912e+57
          1733.26990	         7.41306e+57
          1734.07620	         7.14276e+57
          1734.88250	         8.17891e+57
          1735.68880	         8.16498e+57
          1736.49510	         7.90837e+57
          1737.30140	         7.35653e+57
          1738.10770	         6.70928e+57
          1738.91400	         8.18758e+57
          1739.72030	         8.58509e+57
          1740.52660	         6.95663e+57
          1741.33290	         5.26839e+57
          1742.13920	         5.27720e+57
          1742.94550	         7.78628e+57
          1743.75180	         8.48737e+57
          1744.55810	         7.84707e+57
          1745.36440	         6.96885e+57
          1746.17070	         5.64786e+57
          1746.97700	         4.81366e+57
          1747.78330	         6.57984e+57
          1748.58960	         7.66192e+57
          1749.39590	         7.16587e+57
          1750.20220	         6.57520e+57
          1751.00850	         6.53257e+57
          1751.81480	         7.48941e+57
          1752.62110	         7.87316e+57
          1753.42740	         7.86450e+57
          1754.23370	         7.06518e+57
          1755.04000	         6.92675e+57
          1755.84630	         7.96108e+57
          1756.65260	         9.45262e+57
          1757.45890	         8.95856e+57
          1758.26520	         7.61943e+57
          1759.07150	         8.51951e+57
          1759.87780	         7.74238e+57
          1760.68410	         7.73339e+57
          1761.49040	         8.46241e+57
          1762.29670	         6.71357e+57
          1763.10300	         7.34236e+57
          1763.90930	         7.88561e+57
          1764.71560	         7.99107e+57
          1765.52190	         7.78169e+57
          1766.32820	         8.11310e+57
          1767.13450	         8.87862e+57
          1767.94080	         8.00616e+57
          1768.74710	         6.77521e+57
          1769.55340	         6.49529e+57
          1770.35970	         6.07888e+57
          1771.16600	         7.20250e+57
          1771.97230	         8.77041e+57
          1772.77860	         8.86198e+57
          1773.58490	         7.93954e+57
          1774.39120	         5.31264e+57
          1775.19750	         5.87582e+57
          1776.00380	         6.68033e+57
          1776.81010	         7.25213e+57
          1777.61640	         7.35863e+57
          1778.42270	         7.77175e+57
          1779.22900	         7.44829e+57
          1780.03530	         6.11071e+57
          1780.84160	         6.64209e+57
          1781.64790	         8.16127e+57
          1782.45420	         7.53773e+57
          1783.26050	         7.05030e+57
          1784.06680	         7.01953e+57
          1784.87310	         7.06227e+57
          1785.67940	         7.44589e+57
          1786.48570	         7.39873e+57
          1787.29200	         6.96292e+57
          1788.09830	         7.14439e+57
          1788.90460	         5.84157e+57
          1789.71090	         5.36754e+57
          1790.51720	         5.27372e+57
          1791.32350	         7.15026e+57
          1792.12980	         9.08527e+57
          1792.93610	         8.43256e+57
          1793.74240	         7.05831e+57
          1794.54870	         8.32703e+57
          1795.35500	         8.37876e+57
          1796.16130	         6.60199e+57
          1796.96760	         6.92806e+57
          1797.77390	         6.67087e+57
          1798.58020	         7.39553e+57
          1799.38650	         6.57606e+57
          1800.19280	         6.36543e+57
          1800.99910	         7.82892e+57
          1801.80540	         6.93984e+57
          1802.61170	         7.65088e+57
          1803.41800	         8.12367e+57
          1804.22430	         7.68737e+57
          1805.03060	         7.59646e+57
          1805.83690	         7.35700e+57
          1806.64320	         7.63961e+57
          1807.44950	         6.89086e+57
          1808.25580	         7.56908e+57
          1809.06210	         8.92655e+57
          1809.86840	         7.18289e+57
          1810.67470	         6.95670e+57
          1811.48100	         8.51077e+57
          1812.28730	         9.17908e+57
          1813.09360	         8.55514e+57
          1813.89990	         8.20358e+57
          1814.70620	         6.81566e+57
          1815.51250	         8.61736e+57
          1816.31880	         8.92514e+57
          1817.12510	         7.90740e+57
          1817.93140	         6.55344e+57
          1818.73770	         6.66142e+57
          1819.54400	         8.53300e+57
          1820.35030	         8.64716e+57
          1821.15660	         6.09050e+57
          1821.96290	         6.35373e+57
          1822.76920	         7.60149e+57
          1823.57550	         8.04255e+57
          1824.38180	         8.12732e+57
          1825.18810	         7.55917e+57
          1825.99440	         8.25109e+57
          1826.80070	         7.72617e+57
          1827.60700	         6.02595e+57
          1828.41330	         5.64576e+57
          1829.21960	         5.51581e+57
          1830.02590	         6.99611e+57
          1830.83220	         8.79241e+57
          1831.63850	         7.97718e+57
          1832.44480	         7.51315e+57
          1833.25110	         8.39199e+57
          1834.05740	         8.52324e+57
          1834.86370	         6.97588e+57
          1835.67000	         6.41817e+57
          1836.47630	         7.32752e+57
          1837.28260	         8.73984e+57
          1838.08890	         8.51520e+57
          1838.89520	         7.98904e+57
          1839.70150	         7.76743e+57
          1840.50780	         7.15029e+57
          1841.31410	         7.38898e+57
          1842.12040	         6.81576e+57
          1842.92670	         7.18909e+57
          1843.73300	         6.14733e+57
          1844.53930	         6.50140e+57
          1845.34560	         7.34976e+57
          1846.15190	         8.15796e+57
          1846.95820	         7.77248e+57
          1847.76450	         6.93081e+57
          1848.57080	         5.18622e+57
          1849.37710	         6.58488e+57
          1850.18340	         7.97579e+57
          1850.98970	         8.31491e+57
          1851.79600	         8.81352e+57
          1852.60230	         6.56995e+57
          1853.40860	         6.42351e+57
          1854.21490	         7.85329e+57
          1855.02120	         6.11915e+57
          1855.82750	         4.06559e+57
          1856.63380	         6.12536e+57
          1857.44010	         7.68597e+57
          1858.24640	         7.79964e+57
          1859.05270	         7.26153e+57
          1859.85900	         5.62409e+57
          1860.66530	         5.44612e+57
          1861.47160	         6.39064e+57
          1862.27790	         7.50038e+57
          1863.08420	         7.86953e+57
          1863.89050	         8.60354e+57
          1864.69680	         7.36421e+57
          1865.50310	         7.90904e+57
          1866.30940	         7.02160e+57
          1867.11570	         5.55657e+57
          1867.92200	         6.39681e+57
          1868.72830	         6.65564e+57
          1869.53460	         6.38917e+57
          1870.34090	         6.72675e+57
          1871.14720	         6.80479e+57
          1871.95350	         7.55554e+57
          1872.75980	         7.79317e+57
          1873.56610	         7.06487e+57
          1874.37240	         6.13792e+57
          1875.17870	         5.98971e+57
          1875.98500	         7.67312e+57
          1876.79130	         8.14287e+57
          1877.59760	         6.65382e+57
          1878.40390	         6.27679e+57
          1879.21020	         7.15056e+57
          1880.01650	         6.69204e+57
          1880.82280	         7.61469e+57
          1881.62910	         9.10439e+57
          1882.43540	         1.03276e+58
          1883.24170	         8.78528e+57
          1884.04800	         6.54737e+57
          1884.85430	         8.15051e+57
          1885.66060	         9.17807e+57
          1886.46690	         8.50931e+57
          1887.27320	         7.86328e+57
          1888.07950	         5.25726e+57
          1888.88580	         5.42782e+57
          1889.69210	         8.81428e+57
          1890.49840	         8.06909e+57
          1891.30470	         8.01525e+57
          1892.11100	         8.77197e+57
          1892.91730	         8.02564e+57
          1893.72360	         7.45650e+57
          1894.52990	         6.87020e+57
          1895.33620	         6.63551e+57
          1896.14250	         7.28145e+57
          1896.94880	         6.70586e+57
          1897.75510	         5.15726e+57
          1898.56140	         6.53208e+57
          1899.36770	         7.78103e+57
          1900.17400	         6.67740e+57
          1900.98030	         7.04928e+57
          1901.78660	         7.26605e+57
          1902.59290	         7.17294e+57
          1903.39920	         8.29116e+57
          1904.20550	         9.50714e+57
          1905.01180	         1.02203e+58
          1905.81810	         1.08942e+58
          1906.62440	         1.25066e+58
          1907.43070	         1.49453e+58
          1908.23700	         1.61557e+58
          1909.04330	         1.35498e+58
          1909.84960	         1.11462e+58
          1910.65590	         9.29853e+57
          1911.46220	         8.96846e+57
          1912.26850	         7.71482e+57
          1913.07480	         6.16340e+57
          1913.88110	         5.78106e+57
          1914.68740	         5.85076e+57
          1915.49370	         6.03684e+57
          1916.30000	         6.11677e+57
          1917.10630	         6.63479e+57
          1917.91260	         6.77999e+57
          1918.71890	         6.11803e+57
          1919.52520	         5.83615e+57
          1920.33150	         6.16026e+57
          1921.13780	         7.25092e+57
          1921.94410	         8.87455e+57
          1922.75040	         8.77236e+57
          1923.55670	         7.47844e+57
          1924.36300	         7.36848e+57
          1925.16930	         5.37070e+57
          1925.97560	         3.73824e+57
          1926.78190	         4.74386e+57
          1927.58820	         5.93472e+57
          1928.39450	         5.00856e+57
          1929.20080	         4.20591e+57
          1930.00710	         6.48421e+57
          1930.81340	         6.32577e+57
          1931.61970	         5.25214e+57
          1932.42600	         6.94255e+57
          1933.23230	         8.28190e+57
          1934.03860	         7.40287e+57
          1934.84490	         6.04288e+57
          1935.65120	         8.06621e+57
          1936.45750	         9.83599e+57
          1937.26380	         6.50378e+57
          1938.07010	         6.50875e+57
          1938.87640	         6.59090e+57
          1939.68270	         7.53893e+57
          1940.48900	         8.68151e+57
          1941.29530	         8.22981e+57
          1942.10160	         7.71838e+57
          1942.90790	         7.21507e+57
          1943.71420	         6.29985e+57
          1944.52050	         5.36754e+57
          1945.32680	         4.71273e+57
          1946.13310	         6.42536e+57
          1946.93940	         8.19694e+57
          1947.74570	         8.29705e+57
          1948.55200	         7.13956e+57
          1949.35830	         6.95011e+57
          1950.16460	         6.51685e+57
          1950.97090	         6.61188e+57
          1951.77720	         8.46959e+57
          1952.58350	         8.40357e+57
          1953.38980	         6.40282e+57
          1954.19610	         5.27292e+57
          1955.00240	         5.48540e+57
          1955.80870	         6.24460e+57
          1956.61500	         5.99378e+57
          1957.42130	         6.20786e+57
          1958.22760	         7.03885e+57
          1959.03390	         7.01248e+57
          1959.84020	         7.31037e+57
          1960.64650	         6.52040e+57
          1961.45280	         5.22301e+57
          1962.25910	         5.01060e+57
          1963.06540	         6.25912e+57
          1963.87170	         6.04728e+57
          1964.67800	         7.22212e+57
          1965.48430	         6.87501e+57
          1966.29060	         6.54244e+57
          1967.09690	         6.61164e+57
          1967.90320	         6.87429e+57
          1968.70950	         7.14791e+57
          1969.51580	         6.74284e+57
          1970.32210	         6.64836e+57
          1971.12840	         6.08554e+57
          1971.93470	         4.70982e+57
          1972.74100	         4.51167e+57
          1973.54730	         6.43927e+57
          1974.35360	         7.53499e+57
          1975.15990	         7.08857e+57
          1975.96620	         7.93049e+57
          1976.77250	         8.39430e+57
          1977.57880	         7.76514e+57
          1978.38510	         6.39234e+57
          1979.19140	         6.37984e+57
          1979.99770	         7.71869e+57
          1980.80400	         6.71789e+57
          1981.61030	         6.90439e+57
          1982.41660	         6.90222e+57
          1983.22290	         6.93186e+57
          1984.02920	         6.06625e+57
          1984.83550	         6.09960e+57
          1985.64180	         8.09064e+57
          1986.44810	         7.05885e+57
          1987.25440	         6.20947e+57
          1988.06070	         5.29448e+57
          1988.86700	         7.35785e+57
          1989.67330	         6.94608e+57
          1990.47960	         6.15171e+57
          1991.28590	         5.72061e+57
          1992.09220	         6.06576e+57
          1992.89850	         5.77260e+57
          1993.70480	         5.92367e+57
          1994.51110	         4.00320e+57
          1995.31740	         4.38708e+57
          1996.12370	         5.41811e+57
          1996.93000	         6.11573e+57
          1997.73630	         8.09831e+57
          1998.54260	         8.05254e+57
          1999.34890	         7.94558e+57
          2000.15520	         7.28261e+57
          2000.96150	         7.00036e+57
          2001.76780	         7.34499e+57
          2002.57410	         5.52575e+57
          2003.38040	         6.18669e+57
          2004.18670	         6.82923e+57
          2004.99300	         7.20473e+57
          2005.79930	         7.29316e+57
          2006.60560	         7.30730e+57
          2007.41190	         6.56333e+57
          2008.21820	         6.27455e+57
          2009.02450	         5.94639e+57
          2009.83080	         5.96597e+57
          2010.63710	         6.79467e+57
          2011.44340	         7.50726e+57
          2012.24970	         7.38934e+57
          2013.05600	         6.72872e+57
          2013.86230	         5.42307e+57
          2014.66860	         5.39752e+57
          2015.47490	         5.89307e+57
          2016.28120	         5.89913e+57
          2017.08750	         6.15276e+57
          2017.89380	         6.04988e+57
          2018.70010	         5.97679e+57
          2019.50640	         5.78727e+57
          2020.31270	         6.48602e+57
          2021.11900	         7.24106e+57
          2021.92530	         7.49583e+57
          2022.73160	         7.44998e+57
          2023.53790	         6.46409e+57
          2024.34420	         5.57224e+57
          2025.15050	         5.04328e+57
          2025.95680	         5.53558e+57
          2026.76310	         6.16338e+57
          2027.56940	         6.51827e+57
          2028.37570	         7.31151e+57
          2029.18200	         6.42305e+57
          2029.98830	         6.51435e+57
          2030.79460	         6.31581e+57
          2031.60090	         6.47101e+57
          2032.40720	         5.61870e+57
          2033.21350	         5.32925e+57
          2034.01980	         6.22227e+57
          2034.82610	         5.11832e+57
          2035.63240	         4.22100e+57
          2036.43870	         6.16015e+57
          2037.24500	         5.64720e+57
          2038.05130	         6.22961e+57
          2038.85760	         6.24342e+57
          2039.66390	         6.38363e+57
          2040.47020	         6.72884e+57
          2041.27650	         6.07129e+57
          2042.08280	         5.27493e+57
          2042.88910	         5.40802e+57
          2043.69540	         5.83333e+57
          2044.50170	         6.76728e+57
          2045.30800	         5.22271e+57
          2046.11430	         3.41092e+57
          2046.92060	         5.54183e+57
          2047.72690	         6.38624e+57
          2048.53320	         5.99647e+57
          2049.33950	         4.99338e+57
          2050.14580	         5.55135e+57
          2050.95210	         5.65246e+57
          2051.75840	         8.17747e+57
          2052.56470	         6.03118e+57
          2053.37100	         4.29666e+57
          2054.17730	         4.83084e+57
          2054.98360	         5.24654e+57
          2055.78990	         4.16392e+57
          2056.59620	         1.89845e+57
          2057.40250	         4.09514e+57
          2058.20880	         6.26458e+57
          2059.01510	         6.44296e+57
          2059.82140	         7.74488e+57
          2060.62770	         1.02873e+58
          2061.43400	         1.63931e+58
          2062.24030	         1.19766e+58
          2063.04660	         5.41224e+57
          2063.85290	         2.00636e+57
          2064.65920	        -1.66980e+57
          2065.46550	        -1.02441e+58
          2066.27180	        -8.09196e+57
          2067.07810	         2.37262e+57
          2067.88440	         5.57117e+57
          2068.69070	         5.58328e+57
          2069.49700	         6.39995e+57
          2070.30330	         4.87099e+57
          2071.10960	         5.88348e+57
          2071.91590	         7.78329e+57
          2072.72220	         4.53541e+57
          2073.52850	         4.50938e+57
          2074.33480	         5.28963e+57
          2075.14110	         5.57242e+57
          2075.94740	         5.69153e+57
          2076.75370	         4.72434e+57
          2077.56000	         5.29211e+57
          2078.36630	         5.22003e+57
          2079.17260	         4.27659e+57
          2079.97890	         6.08913e+57
          2080.78520	         6.33949e+57
          2081.59150	         4.94975e+57
          2082.39780	         4.95115e+57
          2083.20410	         2.85894e+57
          2084.01040	         2.28104e+57
          2084.81670	         4.12469e+57
          2085.62300	         5.46112e+57
          2086.42930	         5.20052e+57
          2087.23560	         3.64895e+57
          2088.04190	         3.19966e+57
          2088.84820	         2.22383e+57
          2089.65450	         3.29045e+57
          2090.46080	         1.88488e+57
          2091.26710	         3.47066e+57
          2092.07340	         3.90855e+57
          2092.87970	         2.17850e+57
          2093.68600	        -1.73839e+57
          2094.49230	         1.10940e+57
          2095.29860	         5.85090e+57
          2096.10490	         1.55444e+57
          2096.91120	        -1.94625e+56
          2097.71750	         6.16576e+56
          2098.52380	         1.72710e+56
          2099.33010	         5.93294e+56
          2100.13640	         1.23356e+57
          2100.94270	         2.54984e+57
          2101.74900	         4.11748e+57
          2102.55530	         1.37273e+57
          2103.36160	         1.30999e+56
          2104.16790	         7.41093e+56
          2104.97420	         1.57160e+57
          2105.78050	         1.50244e+57
          2106.58680	         2.86423e+56
          2107.39310	        -5.38785e+56
          2108.19940	         2.19285e+56
          2109.00570	        -1.73130e+57
          2109.81200	        -4.87398e+56
          2110.61830	         7.64452e+56
          2111.42460	         5.85139e+56
          2112.23090	         1.77095e+57
          2113.03720	         2.67302e+57
          2113.84350	         3.43111e+57
          2114.64980	         5.39638e+57
          2115.45610	         2.74577e+57
          2116.26240	        -3.15885e+56
          2117.06870	        -9.35340e+55
          2117.87500	         3.47813e+57
          2118.68130	         2.31569e+56
          2119.48760	         2.43232e+57
          2120.29390	         8.17228e+56
          2121.10020	        -4.29779e+57
          2121.90650	         8.27118e+56
          2122.71280	        -4.84492e+56
          2123.51910	         1.74562e+57
          2124.32540	         3.54323e+57
          2125.13170	         1.33659e+57
          2125.93800	         4.70243e+57
          2126.74430	        -2.26344e+57
          2127.55060	        -6.21818e+57
          2128.35690	        -3.21715e+57
          2129.16320	        -5.73365e+57
          2129.96950	        -1.03519e+58
          2130.77580	        -1.03521e+58
          2131.58210	        -2.65000e+57
          2132.38840	         4.02201e+57
          2133.19470	        -3.64062e+57
          2134.00100	         1.59791e+57
          2134.80730	        -9.82757e+57
          2135.61360	        -5.06716e+57
          2136.41990	        -5.03774e+55
          2137.22620	         4.50831e+57
          2138.03250	         4.75443e+56
          2138.83880	        -6.59499e+57
          2139.64510	        -7.19019e+57
          2140.45140	        -7.29491e+57
          2141.25770	        -1.30931e+58
          2142.06400	        -1.18208e+58
          2142.87030	         3.71702e+57
          2143.67660	        -4.44942e+56
          2144.48290	         1.18557e+57
          2145.28920	         1.71076e+57
          2146.09550	        -2.93177e+57
          2146.90180	        -6.13391e+57
          2147.70810	        -2.97730e+57
          2148.51440	        -3.51890e+57
          2149.32070	        -9.54801e+57
          2150.12700	        -3.16673e+57
          2150.93330	         1.68775e+57
          2151.73960	        -4.79970e+57
          2152.54590	         5.56690e+57
          2153.35220	        -1.08957e+57
          2154.15850	        -7.28604e+57
          2154.96480	         6.36450e+56
          2155.77110	        -8.34088e+57
          2156.57740	        -3.90233e+57
          2157.38370	        -3.42558e+57
          2158.19000	         5.16920e+57
          2158.99630	         2.21790e+57
          2159.80260	        -9.44163e+57
          2160.60890	        -8.05110e+57
          2161.41520	        -5.17428e+57
          2162.22150	        -4.51191e+57
          2163.02780	        -8.05197e+56
          2163.83410	        -1.38578e+58
          2164.64040	        -1.35828e+58
          2165.44670	        -1.06349e+58
          2166.25300	        -1.97524e+58
          2167.05930	        -1.84230e+58
          2167.86560	        -9.83100e+57
          2168.67190	        -6.11535e+56
          2169.47820	        -3.48206e+57
          2170.28450	        -1.17794e+57
          2171.09080	         6.22070e+56
          2171.89710	        -4.17039e+56
          2172.70340	         1.23311e+57
          2173.50970	        -5.65580e+57
          2174.31600	        -7.29984e+57
          2175.12230	         1.70240e+57
          2175.92860	        -3.24047e+57
          2176.73490	        -1.12805e+58
          2177.54120	        -7.41810e+57
          2178.34750	        -4.51780e+57
          2179.15380	                 nan
          2179.96010	                 nan
          2180.76640	                 nan
          2181.57270	                 nan
          2182.37900	                 nan
          2183.18530	                 nan
          2183.99160	                 nan
          2184.79790	                 nan
          2185.60420	                 nan
          2186.41050	                 nan
          2187.21680	                 nan
          2188.02310	                 nan
          2188.82940	                 nan
          2189.63570	                 nan
          2190.44200	                 nan
          2191.24830	                 nan
          2192.05460	                 nan
          2192.86090	                 nan
          2193.66720	                 nan
          2194.47350	                 nan
          2195.27980	                 nan
          2196.08610	                 nan
          2196.89240	                 nan
          2197.69870	                 nan
          2198.50500	                 nan
          2199.31130	                 nan
          2200.11760	                 nan
          2200.92390	                 nan
          2201.73020	                 nan
          2202.53650	                 nan
          2203.34280	                 nan
          2204.14910	                 nan
          2204.95540	                 nan
          2205.76170	                 nan
          2206.56800	                 nan
          2207.37430	                 nan
          2208.18060	                 nan
          2208.98690	                 nan
          2209.79320	                 nan
          2210.59950	                 nan
          2211.40580	                 nan
          2212.21210	                 nan
          2213.01840	                 nan
          2213.82470	                 nan
          2214.63100	                 nan
          2215.43730	         0.00000e+00
