#sample_456_stacked_spectrum_rest_UV-bands_median_H-alpha_noDC.txt
#median Lum: 1.69082e+42
#Rest-frame wavelength (A) | Luminosity (erg/s/A)
#
          1110.00000	         0.00000e+00
          1110.80630	        -2.37033e+59
          1111.61260	        -1.88015e+59
          1112.41890	        -8.31130e+58
          1113.22520	         9.24068e+58
          1114.03150	         7.16302e+58
          1114.83780	         1.95107e+59
          1115.64410	         7.13308e+58
          1116.45040	         1.25146e+59
          1117.25670	        -3.84255e+57
          1118.06300	         1.28546e+59
          1118.86930	         1.08465e+59
          1119.67560	         1.34869e+59
          1120.48190	         1.56604e+58
          1121.28820	        -6.58388e+58
          1122.09450	         8.37405e+58
          1122.90080	         6.46152e+58
          1123.70710	         1.04063e+59
          1124.51340	         1.20543e+59
          1125.31970	        -6.23594e+58
          1126.12600	        -4.09168e+58
          1126.93230	        -3.33574e+58
          1127.73860	        -4.55311e+58
          1128.54490	        -2.56291e+57
          1129.35120	         1.23236e+58
          1130.15750	        -1.50973e+57
          1130.96380	        -2.51058e+58
          1131.77010	         3.60652e+58
          1132.57640	         2.82210e+58
          1133.38270	        -1.37015e+58
          1134.18900	         8.70691e+57
          1134.99530	        -1.47305e+58
          1135.80160	         3.46285e+58
          1136.60790	         2.79909e+58
          1137.41420	        -9.83432e+57
          1138.22050	         2.12237e+58
          1139.02680	         1.85447e+58
          1139.83310	         1.23969e+58
          1140.63940	         1.89245e+57
          1141.44570	        -2.47759e+58
          1142.25200	        -1.84773e+58
          1143.05830	         8.63835e+57
          1143.86460	         2.04524e+58
          1144.67090	         6.05286e+57
          1145.47720	         5.40837e+57
          1146.28350	         1.99999e+58
          1147.08980	         2.10514e+58
          1147.89610	         5.68359e+57
          1148.70240	         9.27830e+57
          1149.50870	         2.46807e+58
          1150.31500	         2.16671e+58
          1151.12130	         1.36230e+58
          1151.92760	         2.46343e+55
          1152.73390	         1.37122e+58
          1153.54020	         8.28738e+57
          1154.34650	         2.34453e+58
          1155.15280	         1.79535e+58
          1155.95910	         1.06991e+58
          1156.76540	         5.70891e+57
          1157.57170	         6.14250e+57
          1158.37800	         1.21479e+57
          1159.18430	        -5.70400e+57
          1159.99060	         3.48922e+57
          1160.79690	         6.84867e+57
          1161.60320	         1.28082e+58
          1162.40950	         1.30219e+58
          1163.21580	         1.73559e+58
          1164.02210	         6.01459e+57
          1164.82840	         1.29747e+58
          1165.63470	         1.36802e+58
          1166.44100	         2.65835e+58
          1167.24730	         2.43987e+58
          1168.05360	         1.40420e+58
          1168.85990	         6.04134e+57
          1169.66620	         7.58440e+57
          1170.47250	         1.08110e+58
          1171.27880	         1.41698e+58
          1172.08510	         2.12423e+58
          1172.89140	         1.77406e+58
          1173.69770	         9.39367e+57
          1174.50400	         3.93221e+57
          1175.31030	         1.51122e+58
          1176.11660	         1.78068e+58
          1176.92290	         1.32464e+58
          1177.72920	         1.34792e+58
          1178.53550	         7.13126e+57
          1179.34180	         2.43309e+57
          1180.14810	         6.40678e+57
          1180.95440	         1.15176e+58
          1181.76070	         8.76950e+57
          1182.56700	         8.01621e+57
          1183.37330	         5.49619e+57
          1184.17960	         1.06459e+58
          1184.98590	         1.25233e+58
          1185.79220	         1.06936e+58
          1186.59850	         7.89122e+57
          1187.40480	         1.04394e+58
          1188.21110	         1.81131e+58
          1189.01740	         1.25622e+58
          1189.82370	         1.41425e+58
          1190.63000	         1.67547e+58
          1191.43630	         1.63950e+58
          1192.24260	         1.31698e+58
          1193.04890	         1.36562e+58
          1193.85520	         1.12625e+58
          1194.66150	         4.94964e+57
          1195.46780	         6.16690e+57
          1196.27410	         9.33460e+57
          1197.08040	         9.63499e+57
          1197.88670	         1.41853e+58
          1198.69300	         1.46506e+58
          1199.49930	         1.19760e+58
          1200.30560	         1.07165e+58
          1201.11190	         1.39286e+58
          1201.91820	         1.01946e+58
          1202.72450	         8.90419e+57
          1203.53080	         1.38281e+58
          1204.33710	         6.15125e+57
          1205.14340	         3.62501e+57
          1205.94970	         4.73913e+57
          1206.75600	         6.83727e+57
          1207.56230	         3.34898e+57
          1208.36860	         6.02800e+57
          1209.17490	         3.21373e+57
          1209.98120	         5.21222e+57
          1210.78750	         9.08297e+57
          1211.59380	         1.31166e+58
          1212.40010	         1.98200e+58
          1213.20640	         2.27129e+58
          1214.01270	         2.28992e+58
          1214.81900	         2.73989e+58
          1215.62530	         4.87207e+58
          1216.43160	         9.66134e+58
          1217.23790	         1.51880e+59
          1218.04420	         1.14461e+59
          1218.85050	         8.84018e+58
          1219.65680	         6.09985e+58
          1220.46310	         3.78042e+58
          1221.26940	         2.28584e+58
          1222.07570	         1.35381e+58
          1222.88200	         1.16295e+58
          1223.68830	         9.20460e+57
          1224.49460	         1.06897e+58
          1225.30090	         6.10839e+57
          1226.10720	         3.97660e+57
          1226.91350	         6.10740e+57
          1227.71980	         1.00535e+58
          1228.52610	         1.33360e+58
          1229.33240	         1.13031e+58
          1230.13870	         1.36640e+58
          1230.94500	         1.25770e+58
          1231.75130	         6.17655e+57
          1232.55760	         9.28024e+57
          1233.36390	         7.94801e+57
          1234.17020	         7.62772e+57
          1234.97650	         7.58535e+57
          1235.78280	         7.26522e+57
          1236.58910	         7.78962e+57
          1237.39540	         9.89122e+57
          1238.20170	         1.08965e+58
          1239.00800	         1.24762e+58
          1239.81430	         1.42117e+58
          1240.62060	         9.07979e+57
          1241.42690	         8.22147e+57
          1242.23320	         1.00654e+58
          1243.03950	         7.42887e+57
          1243.84580	         9.01473e+57
          1244.65210	         1.13947e+58
          1245.45840	         1.07491e+58
          1246.26470	         9.20220e+57
          1247.07100	         6.96294e+57
          1247.87730	         4.70651e+57
          1248.68360	         4.86540e+57
          1249.48990	         8.99624e+57
          1250.29620	         1.16333e+58
          1251.10250	         8.48513e+57
          1251.90880	         4.27058e+57
          1252.71510	         6.47590e+57
          1253.52140	         8.10072e+57
          1254.32770	         1.11779e+58
          1255.13400	         1.34762e+58
          1255.94030	         1.21806e+58
          1256.74660	         9.80376e+57
          1257.55290	         9.53590e+57
          1258.35920	         9.40845e+57
          1259.16550	         4.28604e+57
          1259.97180	         3.71915e+57
          1260.77810	         6.79785e+57
          1261.58440	         9.23623e+57
          1262.39070	         8.53572e+57
          1263.19700	         1.05529e+58
          1264.00330	         1.02065e+58
          1264.80960	         8.80353e+57
          1265.61590	         1.04023e+58
          1266.42220	         1.23718e+58
          1267.22850	         1.03496e+58
          1268.03480	         1.16343e+58
          1268.84110	         1.59613e+58
          1269.64740	         1.41103e+58
          1270.45370	         1.17951e+58
          1271.26000	         1.05302e+58
          1272.06630	         1.00268e+58
          1272.87260	         1.13927e+58
          1273.67890	         1.12820e+58
          1274.48520	         1.11710e+58
          1275.29150	         1.07035e+58
          1276.09780	         9.20953e+57
          1276.90410	         1.41970e+58
          1277.71040	         1.40506e+58
          1278.51670	         1.20491e+58
          1279.32300	         1.24658e+58
          1280.12930	         1.27022e+58
          1280.93560	         1.28007e+58
          1281.74190	         1.36617e+58
          1282.54820	         1.49182e+58
          1283.35450	         1.11092e+58
          1284.16080	         1.07247e+58
          1284.96710	         1.39182e+58
          1285.77340	         1.14781e+58
          1286.57970	         9.92662e+57
          1287.38600	         1.53934e+58
          1288.19230	         1.85801e+58
          1288.99860	         1.34431e+58
          1289.80490	         1.06902e+58
          1290.61120	         1.34074e+58
          1291.41750	         1.58307e+58
          1292.22380	         1.25346e+58
          1293.03010	         1.04807e+58
          1293.83640	         1.11320e+58
          1294.64270	         1.01450e+58
          1295.44900	         5.06371e+57
          1296.25530	         5.59590e+57
          1297.06160	         1.00346e+58
          1297.86790	         1.26508e+58
          1298.67420	         1.11681e+58
          1299.48050	         1.01432e+58
          1300.28680	         9.13295e+57
          1301.09310	         6.85336e+57
          1301.89940	         4.55373e+57
          1302.70570	         6.11409e+57
          1303.51200	         7.24348e+57
          1304.31830	         8.74969e+57
          1305.12460	         1.02057e+58
          1305.93090	         1.10287e+58
          1306.73720	         1.31788e+58
          1307.54350	         1.54785e+58
          1308.34980	         1.52012e+58
          1309.15610	         1.60050e+58
          1309.96240	         1.81940e+58
          1310.76870	         1.67447e+58
          1311.57500	         1.37834e+58
          1312.38130	         1.33960e+58
          1313.18760	         1.36208e+58
          1313.99390	         1.54836e+58
          1314.80020	         1.56313e+58
          1315.60650	         1.25344e+58
          1316.41280	         1.09366e+58
          1317.21910	         1.22417e+58
          1318.02540	         1.35261e+58
          1318.83170	         1.31606e+58
          1319.63800	         1.12478e+58
          1320.44430	         1.15888e+58
          1321.25060	         1.30765e+58
          1322.05690	         1.20785e+58
          1322.86320	         1.12843e+58
          1323.66950	         1.01124e+58
          1324.47580	         8.69968e+57
          1325.28210	         9.82085e+57
          1326.08840	         1.19147e+58
          1326.89470	         1.17082e+58
          1327.70100	         9.46823e+57
          1328.50730	         9.17896e+57
          1329.31360	         1.03165e+58
          1330.11990	         1.02057e+58
          1330.92620	         8.61543e+57
          1331.73250	         1.05447e+58
          1332.53880	         1.04864e+58
          1333.34510	         8.64509e+57
          1334.15140	         8.68083e+57
          1334.95770	         8.80375e+57
          1335.76400	         1.06706e+58
          1336.57030	         1.16386e+58
          1337.37660	         1.03415e+58
          1338.18290	         9.82505e+57
          1338.98920	         1.09753e+58
          1339.79550	         1.05723e+58
          1340.60180	         1.05873e+58
          1341.40810	         1.30861e+58
          1342.21440	         1.28294e+58
          1343.02070	         1.11803e+58
          1343.82700	         1.42226e+58
          1344.63330	         1.22097e+58
          1345.43960	         1.10662e+58
          1346.24590	         1.09406e+58
          1347.05220	         1.16533e+58
          1347.85850	         9.85843e+57
          1348.66480	         1.19315e+58
          1349.47110	         1.27463e+58
          1350.27740	         1.25606e+58
          1351.08370	         1.23266e+58
          1351.89000	         1.19670e+58
          1352.69630	         1.21394e+58
          1353.50260	         1.19282e+58
          1354.30890	         1.18867e+58
          1355.11520	         1.16687e+58
          1355.92150	         9.90676e+57
          1356.72780	         1.00576e+58
          1357.53410	         1.00991e+58
          1358.34040	         1.01536e+58
          1359.14670	         9.11425e+57
          1359.95300	         1.02989e+58
          1360.75930	         1.27433e+58
          1361.56560	         1.23541e+58
          1362.37190	         1.19239e+58
          1363.17820	         1.20130e+58
          1363.98450	         1.12072e+58
          1364.79080	         1.14155e+58
          1365.59710	         1.22374e+58
          1366.40340	         1.14063e+58
          1367.20970	         1.01527e+58
          1368.01600	         9.71543e+57
          1368.82230	         8.98599e+57
          1369.62860	         1.05796e+58
          1370.43490	         1.04309e+58
          1371.24120	         9.51313e+57
          1372.04750	         7.43312e+57
          1372.85380	         9.78009e+57
          1373.66010	         1.05365e+58
          1374.46640	         1.00109e+58
          1375.27270	         1.16608e+58
          1376.07900	         9.65496e+57
          1376.88530	         7.45498e+57
          1377.69160	         8.71358e+57
          1378.49790	         8.41210e+57
          1379.30420	         8.20468e+57
          1380.11050	         7.71883e+57
          1380.91680	         6.78655e+57
          1381.72310	         6.77954e+57
          1382.52940	         8.12548e+57
          1383.33570	         8.36351e+57
          1384.14200	         8.93296e+57
          1384.94830	         9.73130e+57
          1385.75460	         1.01578e+58
          1386.56090	         1.20091e+58
          1387.36720	         1.11699e+58
          1388.17350	         1.17753e+58
          1388.97980	         9.84249e+57
          1389.78610	         7.81096e+57
          1390.59240	         7.85989e+57
          1391.39870	         8.62085e+57
          1392.20500	         8.68381e+57
          1393.01130	         7.50008e+57
          1393.81760	         7.45421e+57
          1394.62390	         8.24341e+57
          1395.43020	         7.37143e+57
          1396.23650	         7.86719e+57
          1397.04280	         7.92883e+57
          1397.84910	         8.55174e+57
          1398.65540	         8.94463e+57
          1399.46170	         9.26035e+57
          1400.26800	         7.57975e+57
          1401.07430	         6.06846e+57
          1401.88060	         7.45476e+57
          1402.68690	         9.10706e+57
          1403.49320	         9.17015e+57
          1404.29950	         9.06713e+57
          1405.10580	         9.51891e+57
          1405.91210	         1.08052e+58
          1406.71840	         1.23361e+58
          1407.52470	         1.12452e+58
          1408.33100	         1.04472e+58
          1409.13730	         1.16132e+58
          1409.94360	         1.08979e+58
          1410.74990	         9.11797e+57
          1411.55620	         9.23876e+57
          1412.36250	         8.80490e+57
          1413.16880	         8.26567e+57
          1413.97510	         7.49175e+57
          1414.78140	         7.85115e+57
          1415.58770	         9.64000e+57
          1416.39400	         9.16663e+57
          1417.20030	         9.19057e+57
          1418.00660	         9.62510e+57
          1418.81290	         9.14173e+57
          1419.61920	         1.03870e+58
          1420.42550	         1.31537e+58
          1421.23180	         1.31125e+58
          1422.03810	         1.22009e+58
          1422.84440	         1.22537e+58
          1423.65070	         1.29125e+58
          1424.45700	         1.11124e+58
          1425.26330	         8.07353e+57
          1426.06960	         8.71189e+57
          1426.87590	         1.00921e+58
          1427.68220	         9.61045e+57
          1428.48850	         1.05994e+58
          1429.29480	         1.03599e+58
          1430.10110	         1.02143e+58
          1430.90740	         9.19324e+57
          1431.71370	         9.06251e+57
          1432.52000	         9.11185e+57
          1433.32630	         9.01060e+57
          1434.13260	         8.99976e+57
          1434.93890	         8.81063e+57
          1435.74520	         8.87184e+57
          1436.55150	         9.90998e+57
          1437.35780	         9.75204e+57
          1438.16410	         9.75682e+57
          1438.97040	         9.15911e+57
          1439.77670	         9.27592e+57
          1440.58300	         9.53985e+57
          1441.38930	         9.30476e+57
          1442.19560	         8.74984e+57
          1443.00190	         8.85452e+57
          1443.80820	         9.83401e+57
          1444.61450	         9.05175e+57
          1445.42080	         8.89140e+57
          1446.22710	         1.03821e+58
          1447.03340	         9.29238e+57
          1447.83970	         9.05681e+57
          1448.64600	         9.72102e+57
          1449.45230	         1.04227e+58
          1450.25860	         1.05389e+58
          1451.06490	         9.56985e+57
          1451.87120	         8.30851e+57
          1452.67750	         7.76913e+57
          1453.48380	         8.90377e+57
          1454.29010	         8.56579e+57
          1455.09640	         7.42471e+57
          1455.90270	         8.34952e+57
          1456.70900	         8.97058e+57
          1457.51530	         9.66740e+57
          1458.32160	         1.18117e+58
          1459.12790	         1.15142e+58
          1459.93420	         9.66857e+57
          1460.74050	         7.45109e+57
          1461.54680	         7.96844e+57
          1462.35310	         7.67497e+57
          1463.15940	         8.00403e+57
          1463.96570	         1.09398e+58
          1464.77200	         1.24497e+58
          1465.57830	         1.08881e+58
          1466.38460	         9.58837e+57
          1467.19090	         8.89674e+57
          1467.99720	         8.74349e+57
          1468.80350	         9.38196e+57
          1469.60980	         1.01720e+58
          1470.41610	         1.08246e+58
          1471.22240	         1.02453e+58
          1472.02870	         1.05679e+58
          1472.83500	         1.11381e+58
          1473.64130	         1.02918e+58
          1474.44760	         8.83349e+57
          1475.25390	         8.87625e+57
          1476.06020	         8.79243e+57
          1476.86650	         8.68940e+57
          1477.67280	         8.12476e+57
          1478.47910	         7.29110e+57
          1479.28540	         7.11676e+57
          1480.09170	         8.34701e+57
          1480.89800	         9.21284e+57
          1481.70430	         8.51347e+57
          1482.51060	         7.51114e+57
          1483.31690	         7.54438e+57
          1484.12320	         8.52176e+57
          1484.92950	         8.57107e+57
          1485.73580	         8.27313e+57
          1486.54210	         8.80841e+57
          1487.34840	         8.41753e+57
          1488.15470	         7.63091e+57
          1488.96100	         8.59411e+57
          1489.76730	         9.17406e+57
          1490.57360	         7.91363e+57
          1491.37990	         6.74020e+57
          1492.18620	         7.78027e+57
          1492.99250	         8.51865e+57
          1493.79880	         8.12275e+57
          1494.60510	         7.81321e+57
          1495.41140	         6.90663e+57
          1496.21770	         7.99674e+57
          1497.02400	         1.10343e+58
          1497.83030	         8.98751e+57
          1498.63660	         6.29498e+57
          1499.44290	         6.93434e+57
          1500.24920	         7.97067e+57
          1501.05550	         8.45446e+57
          1501.86180	         8.93263e+57
          1502.66810	         9.06020e+57
          1503.47440	         7.83632e+57
          1504.28070	         7.76188e+57
          1505.08700	         8.26793e+57
          1505.89330	         8.11983e+57
          1506.69960	         8.26006e+57
          1507.50590	         9.05750e+57
          1508.31220	         8.32602e+57
          1509.11850	         7.86989e+57
          1509.92480	         8.91160e+57
          1510.73110	         8.89476e+57
          1511.53740	         7.98274e+57
          1512.34370	         7.45274e+57
          1513.15000	         9.34728e+57
          1513.95630	         9.96158e+57
          1514.76260	         8.21911e+57
          1515.56890	         7.97984e+57
          1516.37520	         9.19042e+57
          1517.18150	         9.32271e+57
          1517.98780	         8.09651e+57
          1518.79410	         7.60923e+57
          1519.60040	         7.77738e+57
          1520.40670	         9.27797e+57
          1521.21300	         1.01869e+58
          1522.01930	         8.32857e+57
          1522.82560	         9.08537e+57
          1523.63190	         9.60732e+57
          1524.43820	         8.22644e+57
          1525.24450	         6.65698e+57
          1526.05080	         7.42649e+57
          1526.85710	         7.24864e+57
          1527.66340	         7.14129e+57
          1528.46970	         8.44019e+57
          1529.27600	         7.40880e+57
          1530.08230	         7.54810e+57
          1530.88860	         8.88957e+57
          1531.69490	         9.40573e+57
          1532.50120	         8.25487e+57
          1533.30750	         7.96084e+57
          1534.11380	         8.73636e+57
          1534.92010	         9.04411e+57
          1535.72640	         9.49532e+57
          1536.53270	         9.02604e+57
          1537.33900	         8.26208e+57
          1538.14530	         8.92606e+57
          1538.95160	         8.76196e+57
          1539.75790	         8.35474e+57
          1540.56420	         8.78084e+57
          1541.37050	         8.16032e+57
          1542.17680	         7.18064e+57
          1542.98310	         7.66173e+57
          1543.78940	         7.53822e+57
          1544.59570	         6.70406e+57
          1545.40200	         8.42395e+57
          1546.20830	         9.93460e+57
          1547.01460	         1.01497e+58
          1547.82090	         1.16541e+58
          1548.62720	         1.22744e+58
          1549.43350	         1.16939e+58
          1550.23980	         1.02512e+58
          1551.04610	         1.12552e+58
          1551.85240	         1.29982e+58
          1552.65870	         1.14839e+58
          1553.46500	         9.69519e+57
          1554.27130	         1.02505e+58
          1555.07760	         1.00249e+58
          1555.88390	         8.66973e+57
          1556.69020	         8.68055e+57
          1557.49650	         8.98212e+57
          1558.30280	         9.37157e+57
          1559.10910	         8.90684e+57
          1559.91540	         8.59044e+57
          1560.72170	         8.18037e+57
          1561.52800	         9.18479e+57
          1562.33430	         8.79408e+57
          1563.14060	         7.40225e+57
          1563.94690	         8.69573e+57
          1564.75320	         8.87521e+57
          1565.55950	         6.77705e+57
          1566.36580	         7.41220e+57
          1567.17210	         9.85607e+57
          1567.97840	         9.94933e+57
          1568.78470	         8.88417e+57
          1569.59100	         9.85630e+57
          1570.39730	         9.04399e+57
          1571.20360	         6.94761e+57
          1572.00990	         6.74241e+57
          1572.81620	         8.43001e+57
          1573.62250	         1.04433e+58
          1574.42880	         9.46918e+57
          1575.23510	         7.76257e+57
          1576.04140	         7.53357e+57
          1576.84770	         8.10278e+57
          1577.65400	         8.81635e+57
          1578.46030	         9.46441e+57
          1579.26660	         1.00076e+58
          1580.07290	         9.50413e+57
          1580.87920	         8.00217e+57
          1581.68550	         7.64572e+57
          1582.49180	         8.15643e+57
          1583.29810	         7.65458e+57
          1584.10440	         8.37337e+57
          1584.91070	         8.87128e+57
          1585.71700	         8.86438e+57
          1586.52330	         9.04467e+57
          1587.32960	         8.22331e+57
          1588.13590	         8.27489e+57
          1588.94220	         7.72112e+57
          1589.74850	         8.89888e+57
          1590.55480	         9.87804e+57
          1591.36110	         8.74104e+57
          1592.16740	         8.32305e+57
          1592.97370	         7.90584e+57
          1593.78000	         8.72694e+57
          1594.58630	         9.14633e+57
          1595.39260	         8.23748e+57
          1596.19890	         8.46019e+57
          1597.00520	         9.31615e+57
          1597.81150	         8.24195e+57
          1598.61780	         7.11523e+57
          1599.42410	         6.76840e+57
          1600.23040	         6.58311e+57
          1601.03670	         7.27913e+57
          1601.84300	         8.01101e+57
          1602.64930	         8.70832e+57
          1603.45560	         8.92028e+57
          1604.26190	         7.99377e+57
          1605.06820	         7.60973e+57
          1605.87450	         7.02016e+57
          1606.68080	         7.27556e+57
          1607.48710	         6.47162e+57
          1608.29340	         6.06888e+57
          1609.09970	         7.55530e+57
          1609.90600	         8.56862e+57
          1610.71230	         7.29132e+57
          1611.51860	         6.43166e+57
          1612.32490	         6.99372e+57
          1613.13120	         8.20161e+57
          1613.93750	         7.85316e+57
          1614.74380	         7.43353e+57
          1615.55010	         9.37495e+57
          1616.35640	         1.02579e+58
          1617.16270	         9.40310e+57
          1617.96900	         9.96423e+57
          1618.77530	         8.77193e+57
          1619.58160	         7.92214e+57
          1620.38790	         7.23969e+57
          1621.19420	         8.72268e+57
          1622.00050	         7.61124e+57
          1622.80680	         8.18421e+57
          1623.61310	         9.04678e+57
          1624.41940	         8.38299e+57
          1625.22570	         8.27032e+57
          1626.03200	         8.25540e+57
          1626.83830	         8.37588e+57
          1627.64460	         6.94097e+57
          1628.45090	         6.00131e+57
          1629.25720	         8.05655e+57
          1630.06350	         8.82018e+57
          1630.86980	         5.93039e+57
          1631.67610	         8.08056e+57
          1632.48240	         9.84327e+57
          1633.28870	         1.00594e+58
          1634.09500	         1.00371e+58
          1634.90130	         1.06962e+58
          1635.70760	         1.06181e+58
          1636.51390	         8.90078e+57
          1637.32020	         7.76889e+57
          1638.12650	         9.47898e+57
          1638.93280	         9.54770e+57
          1639.73910	         1.15192e+58
          1640.54540	         1.16187e+58
          1641.35170	         9.18764e+57
          1642.15800	         9.43310e+57
          1642.96430	         8.03937e+57
          1643.77060	         8.36487e+57
          1644.57690	         7.96895e+57
          1645.38320	         8.15852e+57
          1646.18950	         7.04031e+57
          1646.99580	         8.28197e+57
          1647.80210	         8.43085e+57
          1648.60840	         7.63446e+57
          1649.41470	         7.55430e+57
          1650.22100	         7.04072e+57
          1651.02730	         7.43420e+57
          1651.83360	         7.97123e+57
          1652.63990	         7.96552e+57
          1653.44620	         8.85337e+57
          1654.25250	         8.89063e+57
          1655.05880	         8.07665e+57
          1655.86510	         7.93233e+57
          1656.67140	         8.26488e+57
          1657.47770	         7.29488e+57
          1658.28400	         7.52838e+57
          1659.09030	         9.45404e+57
          1659.89660	         9.41456e+57
          1660.70290	         9.07280e+57
          1661.50920	         8.77720e+57
          1662.31550	         8.59543e+57
          1663.12180	         9.17176e+57
          1663.92810	         9.68729e+57
          1664.73440	         1.04666e+58
          1665.54070	         1.18042e+58
          1666.34700	         1.25210e+58
          1667.15330	         1.15552e+58
          1667.95960	         9.19790e+57
          1668.76590	         6.71923e+57
          1669.57220	         5.94749e+57
          1670.37850	         7.74003e+57
          1671.18480	         8.32351e+57
          1671.99110	         8.26790e+57
          1672.79740	         6.50533e+57
          1673.60370	         5.94227e+57
          1674.41000	         7.16128e+57
          1675.21630	         7.97601e+57
          1676.02260	         8.09723e+57
          1676.82890	         6.77150e+57
          1677.63520	         5.84354e+57
          1678.44150	         6.15895e+57
          1679.24780	         8.50114e+57
          1680.05410	         7.77936e+57
          1680.86040	         6.32652e+57
          1681.66670	         7.01662e+57
          1682.47300	         7.95483e+57
          1683.27930	         8.00228e+57
          1684.08560	         8.07345e+57
          1684.89190	         6.85802e+57
          1685.69820	         5.07977e+57
          1686.50450	         5.47326e+57
          1687.31080	         6.44117e+57
          1688.11710	         6.99514e+57
          1688.92340	         6.27148e+57
          1689.72970	         6.47484e+57
          1690.53600	         7.09332e+57
          1691.34230	         7.71044e+57
          1692.14860	         8.50877e+57
          1692.95490	         9.31454e+57
          1693.76120	         8.86191e+57
          1694.56750	         7.04731e+57
          1695.37380	         7.81026e+57
          1696.18010	         8.79445e+57
          1696.98640	         9.36590e+57
          1697.79270	         8.87994e+57
          1698.59900	         8.52049e+57
          1699.40530	         8.49500e+57
          1700.21160	         7.44424e+57
          1701.01790	         7.50793e+57
          1701.82420	         5.69577e+57
          1702.63050	         6.16983e+57
          1703.43680	         7.85902e+57
          1704.24310	         8.30430e+57
          1705.04940	         8.85163e+57
          1705.85570	         7.66391e+57
          1706.66200	         8.36600e+57
          1707.46830	         8.08555e+57
          1708.27460	         7.89686e+57
          1709.08090	         7.14362e+57
          1709.88720	         6.07334e+57
          1710.69350	         6.07622e+57
          1711.49980	         7.59778e+57
          1712.30610	         8.29480e+57
          1713.11240	         8.11844e+57
          1713.91870	         7.24972e+57
          1714.72500	         7.78078e+57
          1715.53130	         8.13102e+57
          1716.33760	         7.16526e+57
          1717.14390	         7.25324e+57
          1717.95020	         7.74193e+57
          1718.75650	         8.62709e+57
          1719.56280	         9.25296e+57
          1720.36910	         7.71838e+57
          1721.17540	         7.27550e+57
          1721.98170	         6.30023e+57
          1722.78800	         5.78622e+57
          1723.59430	         6.70628e+57
          1724.40060	         8.33385e+57
          1725.20690	         8.35405e+57
          1726.01320	         8.00807e+57
          1726.81950	         7.78512e+57
          1727.62580	         7.80248e+57
          1728.43210	         7.53631e+57
          1729.23840	         7.93515e+57
          1730.04470	         8.26786e+57
          1730.85100	         7.70379e+57
          1731.65730	         7.32038e+57
          1732.46360	         7.10260e+57
          1733.26990	         7.45387e+57
          1734.07620	         6.74863e+57
          1734.88250	         6.96065e+57
          1735.68880	         8.13679e+57
          1736.49510	         8.00052e+57
          1737.30140	         7.84851e+57
          1738.10770	         7.27141e+57
          1738.91400	         7.20009e+57
          1739.72030	         7.55492e+57
          1740.52660	         6.99048e+57
          1741.33290	         6.84239e+57
          1742.13920	         6.41616e+57
          1742.94550	         7.55458e+57
          1743.75180	         8.12967e+57
          1744.55810	         7.38620e+57
          1745.36440	         7.45369e+57
          1746.17070	         6.41837e+57
          1746.97700	         4.83202e+57
          1747.78330	         5.72428e+57
          1748.58960	         7.27310e+57
          1749.39590	         7.07536e+57
          1750.20220	         6.42097e+57
          1751.00850	         6.83175e+57
          1751.81480	         6.57897e+57
          1752.62110	         6.56377e+57
          1753.42740	         7.50670e+57
          1754.23370	         6.64807e+57
          1755.04000	         5.99951e+57
          1755.84630	         7.18515e+57
          1756.65260	         8.84801e+57
          1757.45890	         8.07691e+57
          1758.26520	         6.80277e+57
          1759.07150	         8.53554e+57
          1759.87780	         8.67259e+57
          1760.68410	         7.34252e+57
          1761.49040	         7.72743e+57
          1762.29670	         6.45099e+57
          1763.10300	         6.98945e+57
          1763.90930	         7.24883e+57
          1764.71560	         7.30803e+57
          1765.52190	         7.57299e+57
          1766.32820	         8.67128e+57
          1767.13450	         7.63755e+57
          1767.94080	         6.57304e+57
          1768.74710	         6.04589e+57
          1769.55340	         6.47055e+57
          1770.35970	         6.79156e+57
          1771.16600	         7.98061e+57
          1771.97230	         8.19313e+57
          1772.77860	         8.83581e+57
          1773.58490	         8.40538e+57
          1774.39120	         7.00293e+57
          1775.19750	         6.02545e+57
          1776.00380	         5.96893e+57
          1776.81010	         7.06527e+57
          1777.61640	         6.39221e+57
          1778.42270	         6.99685e+57
          1779.22900	         6.78520e+57
          1780.03530	         6.86477e+57
          1780.84160	         7.15489e+57
          1781.64790	         7.32137e+57
          1782.45420	         6.75273e+57
          1783.26050	         7.09489e+57
          1784.06680	         7.36817e+57
          1784.87310	         7.12632e+57
          1785.67940	         7.76102e+57
          1786.48570	         6.79884e+57
          1787.29200	         6.37853e+57
          1788.09830	         5.84910e+57
          1788.90460	         5.53511e+57
          1789.71090	         5.88836e+57
          1790.51720	         5.81423e+57
          1791.32350	         7.01637e+57
          1792.12980	         8.50563e+57
          1792.93610	         8.08212e+57
          1793.74240	         7.30141e+57
          1794.54870	         7.96507e+57
          1795.35500	         8.64993e+57
          1796.16130	         8.49682e+57
          1796.96760	         7.16594e+57
          1797.77390	         6.81771e+57
          1798.58020	         7.04080e+57
          1799.38650	         5.95449e+57
          1800.19280	         5.52190e+57
          1800.99910	         7.40353e+57
          1801.80540	         8.83065e+57
          1802.61170	         8.97939e+57
          1803.41800	         7.72332e+57
          1804.22430	         6.60125e+57
          1805.03060	         6.18550e+57
          1805.83690	         7.50034e+57
          1806.64320	         7.85513e+57
          1807.44950	         6.68311e+57
          1808.25580	         6.06974e+57
          1809.06210	         7.05780e+57
          1809.86840	         5.77740e+57
          1810.67470	         6.18834e+57
          1811.48100	         7.99253e+57
          1812.28730	         9.06575e+57
          1813.09360	         8.05434e+57
          1813.89990	         8.65400e+57
          1814.70620	         7.66634e+57
          1815.51250	         7.56041e+57
          1816.31880	         6.97307e+57
          1817.12510	         6.36321e+57
          1817.93140	         6.06775e+57
          1818.73770	         6.56660e+57
          1819.54400	         7.83067e+57
          1820.35030	         7.97486e+57
          1821.15660	         6.69460e+57
          1821.96290	         6.79795e+57
          1822.76920	         7.25114e+57
          1823.57550	         6.92671e+57
          1824.38180	         6.67790e+57
          1825.18810	         6.88568e+57
          1825.99440	         7.83869e+57
          1826.80070	         7.04275e+57
          1827.60700	         6.78071e+57
          1828.41330	         6.04140e+57
          1829.21960	         5.91822e+57
          1830.02590	         7.08898e+57
          1830.83220	         7.69235e+57
          1831.63850	         6.98616e+57
          1832.44480	         7.41836e+57
          1833.25110	         8.58730e+57
          1834.05740	         8.39392e+57
          1834.86370	         6.78291e+57
          1835.67000	         5.85658e+57
          1836.47630	         7.07403e+57
          1837.28260	         7.93772e+57
          1838.08890	         8.23478e+57
          1838.89520	         8.27242e+57
          1839.70150	         7.68259e+57
          1840.50780	         7.19187e+57
          1841.31410	         7.17530e+57
          1842.12040	         6.29417e+57
          1842.92670	         6.15601e+57
          1843.73300	         5.50204e+57
          1844.53930	         5.88058e+57
          1845.34560	         7.19081e+57
          1846.15190	         7.77507e+57
          1846.95820	         7.92534e+57
          1847.76450	         7.38378e+57
          1848.57080	         6.02218e+57
          1849.37710	         6.22718e+57
          1850.18340	         6.96535e+57
          1850.98970	         7.78733e+57
          1851.79600	         7.29847e+57
          1852.60230	         7.33245e+57
          1853.40860	         7.13074e+57
          1854.21490	         6.45702e+57
          1855.02120	         6.85679e+57
          1855.82750	         5.07127e+57
          1856.63380	         4.68948e+57
          1857.44010	         6.43510e+57
          1858.24640	         8.19345e+57
          1859.05270	         7.23199e+57
          1859.85900	         5.73433e+57
          1860.66530	         5.88341e+57
          1861.47160	         7.08683e+57
          1862.27790	         7.91425e+57
          1863.08420	         7.85236e+57
          1863.89050	         7.76649e+57
          1864.69680	         7.04896e+57
          1865.50310	         7.29435e+57
          1866.30940	         6.27619e+57
          1867.11570	         5.52554e+57
          1867.92200	         7.25982e+57
          1868.72830	         7.86500e+57
          1869.53460	         6.86477e+57
          1870.34090	         6.72466e+57
          1871.14720	         7.95705e+57
          1871.95350	         7.54367e+57
          1872.75980	         7.67921e+57
          1873.56610	         6.45433e+57
          1874.37240	         5.11955e+57
          1875.17870	         6.11010e+57
          1875.98500	         7.27110e+57
          1876.79130	         7.21752e+57
          1877.59760	         6.51254e+57
          1878.40390	         4.87013e+57
          1879.21020	         5.03110e+57
          1880.01650	         5.99935e+57
          1880.82280	         7.78732e+57
          1881.62910	         9.18688e+57
          1882.43540	         9.14264e+57
          1883.24170	         7.20535e+57
          1884.04800	         6.34356e+57
          1884.85430	         7.51859e+57
          1885.66060	         8.63372e+57
          1886.46690	         8.83692e+57
          1887.27320	         7.27543e+57
          1888.07950	         5.52960e+57
          1888.88580	         6.50064e+57
          1889.69210	         8.81917e+57
          1890.49840	         8.82527e+57
          1891.30470	         8.28733e+57
          1892.11100	         8.57233e+57
          1892.91730	         7.44340e+57
          1893.72360	         6.06488e+57
          1894.52990	         6.49604e+57
          1895.33620	         7.45602e+57
          1896.14250	         6.48190e+57
          1896.94880	         6.35296e+57
          1897.75510	         4.92503e+57
          1898.56140	         6.38518e+57
          1899.36770	         8.30237e+57
          1900.17400	         6.07974e+57
          1900.98030	         5.88235e+57
          1901.78660	         7.04323e+57
          1902.59290	         7.06662e+57
          1903.39920	         8.61266e+57
          1904.20550	         9.86107e+57
          1905.01180	         9.14132e+57
          1905.81810	         9.20908e+57
          1906.62440	         1.19924e+58
          1907.43070	         1.63675e+58
          1908.23700	         1.56404e+58
          1909.04330	         1.30559e+58
          1909.84960	         1.09458e+58
          1910.65590	         9.57508e+57
          1911.46220	         8.48818e+57
          1912.26850	         7.13614e+57
          1913.07480	         6.20659e+57
          1913.88110	         5.64978e+57
          1914.68740	         5.27297e+57
          1915.49370	         6.26938e+57
          1916.30000	         6.53848e+57
          1917.10630	         6.24746e+57
          1917.91260	         6.84411e+57
          1918.71890	         6.19388e+57
          1919.52520	         5.93394e+57
          1920.33150	         6.26052e+57
          1921.13780	         7.01799e+57
          1921.94410	         8.33464e+57
          1922.75040	         7.51187e+57
          1923.55670	         8.05890e+57
          1924.36300	         7.26736e+57
          1925.16930	         5.42285e+57
          1925.97560	         5.92528e+57
          1926.78190	         5.32911e+57
          1927.58820	         5.50523e+57
          1928.39450	         4.90698e+57
          1929.20080	         4.76911e+57
          1930.00710	         7.43451e+57
          1930.81340	         8.88567e+57
          1931.61970	         6.17214e+57
          1932.42600	         5.75840e+57
          1933.23230	         8.05708e+57
          1934.03860	         7.09106e+57
          1934.84490	         5.90399e+57
          1935.65120	         7.21066e+57
          1936.45750	         9.39475e+57
          1937.26380	         8.08717e+57
          1938.07010	         6.46895e+57
          1938.87640	         6.08023e+57
          1939.68270	         7.12705e+57
          1940.48900	         7.74405e+57
          1941.29530	         8.72826e+57
          1942.10160	         8.59143e+57
          1942.90790	         7.04972e+57
          1943.71420	         6.09718e+57
          1944.52050	         6.10543e+57
          1945.32680	         5.63884e+57
          1946.13310	         7.19021e+57
          1946.93940	         7.89860e+57
          1947.74570	         6.23494e+57
          1948.55200	         6.36221e+57
          1949.35830	         6.43300e+57
          1950.16460	         5.91304e+57
          1950.97090	         5.34283e+57
          1951.77720	         6.16766e+57
          1952.58350	         7.16562e+57
          1953.38980	         6.37147e+57
          1954.19610	         4.28300e+57
          1955.00240	         4.23006e+57
          1955.80870	         5.51891e+57
          1956.61500	         6.14446e+57
          1957.42130	         5.68861e+57
          1958.22760	         5.81113e+57
          1959.03390	         7.25293e+57
          1959.84020	         7.06916e+57
          1960.64650	         6.58241e+57
          1961.45280	         5.93866e+57
          1962.25910	         5.89751e+57
          1963.06540	         5.93220e+57
          1963.87170	         5.25107e+57
          1964.67800	         7.21572e+57
          1965.48430	         7.87040e+57
          1966.29060	         6.35327e+57
          1967.09690	         7.33661e+57
          1967.90320	         8.11516e+57
          1968.70950	         8.03890e+57
          1969.51580	         6.19256e+57
          1970.32210	         7.20244e+57
          1971.12840	         7.07002e+57
          1971.93470	         5.72820e+57
          1972.74100	         4.36884e+57
          1973.54730	         6.25858e+57
          1974.35360	         7.91122e+57
          1975.15990	         7.80145e+57
          1975.96620	         7.00955e+57
          1976.77250	         7.78319e+57
          1977.57880	         7.22689e+57
          1978.38510	         5.68194e+57
          1979.19140	         6.12095e+57
          1979.99770	         7.91814e+57
          1980.80400	         8.11208e+57
          1981.61030	         6.91374e+57
          1982.41660	         6.11938e+57
          1983.22290	         6.56761e+57
          1984.02920	         5.87726e+57
          1984.83550	         5.46518e+57
          1985.64180	         5.81955e+57
          1986.44810	         6.23842e+57
          1987.25440	         6.32727e+57
          1988.06070	         6.53266e+57
          1988.86700	         7.46053e+57
          1989.67330	         7.25401e+57
          1990.47960	         6.72464e+57
          1991.28590	         7.30315e+57
          1992.09220	         6.62114e+57
          1992.89850	         5.52251e+57
          1993.70480	         5.89130e+57
          1994.51110	         5.40410e+57
          1995.31740	         3.33322e+57
          1996.12370	         3.62828e+57
          1996.93000	         5.68775e+57
          1997.73630	         7.05948e+57
          1998.54260	         8.18245e+57
          1999.34890	         7.70029e+57
          2000.15520	         7.31728e+57
          2000.96150	         6.17077e+57
          2001.76780	         6.01491e+57
          2002.57410	         4.10311e+57
          2003.38040	         4.88833e+57
          2004.18670	         5.45500e+57
          2004.99300	         4.93298e+57
          2005.79930	         6.61911e+57
          2006.60560	         6.66839e+57
          2007.41190	         6.20081e+57
          2008.21820	         6.93410e+57
          2009.02450	         6.76775e+57
          2009.83080	         5.05388e+57
          2010.63710	         6.04986e+57
          2011.44340	         6.58366e+57
          2012.24970	         6.91362e+57
          2013.05600	         6.33987e+57
          2013.86230	         6.16959e+57
          2014.66860	         6.31478e+57
          2015.47490	         6.55707e+57
          2016.28120	         6.32450e+57
          2017.08750	         5.34058e+57
          2017.89380	         6.45906e+57
          2018.70010	         7.08587e+57
          2019.50640	         5.68810e+57
          2020.31270	         5.97028e+57
          2021.11900	         7.36954e+57
          2021.92530	         6.88270e+57
          2022.73160	         6.79871e+57
          2023.53790	         7.43723e+57
          2024.34420	         6.77513e+57
          2025.15050	         5.69778e+57
          2025.95680	         6.28308e+57
          2026.76310	         6.41027e+57
          2027.56940	         5.81649e+57
          2028.37570	         6.56981e+57
          2029.18200	         5.57169e+57
          2029.98830	         5.55207e+57
          2030.79460	         6.17706e+57
          2031.60090	         6.27102e+57
          2032.40720	         6.69488e+57
          2033.21350	         5.55513e+57
          2034.01980	         4.85042e+57
          2034.82610	         3.64441e+57
          2035.63240	         4.63527e+57
          2036.43870	         6.25259e+57
          2037.24500	         6.44154e+57
          2038.05130	         6.45740e+57
          2038.85760	         6.24821e+57
          2039.66390	         6.38097e+57
          2040.47020	         6.07139e+57
          2041.27650	         6.37452e+57
          2042.08280	         4.56803e+57
          2042.88910	         6.41391e+57
          2043.69540	         6.81445e+57
          2044.50170	         6.07286e+57
          2045.30800	         5.97795e+57
          2046.11430	         5.36734e+57
          2046.92060	         4.49375e+57
          2047.72690	         6.30341e+57
          2048.53320	         6.34796e+57
          2049.33950	         4.88119e+57
          2050.14580	         5.84840e+57
          2050.95210	         7.23086e+57
          2051.75840	         6.75716e+57
          2052.56470	         5.96625e+57
          2053.37100	         5.79507e+57
          2054.17730	         5.13315e+57
          2054.98360	         4.99840e+57
          2055.78990	         4.15800e+57
          2056.59620	         3.87500e+57
          2057.40250	         5.54495e+57
          2058.20880	         7.92093e+57
          2059.01510	         6.83459e+57
          2059.82140	         6.76146e+57
          2060.62770	         1.02333e+58
          2061.43400	         1.63641e+58
          2062.24030	         1.10714e+58
          2063.04660	         6.59383e+57
          2063.85290	         2.92837e+57
          2064.65920	        -2.22662e+57
          2065.46550	        -1.08523e+58
          2066.27180	        -9.81033e+57
          2067.07810	         4.97523e+57
          2067.88440	         5.80647e+57
          2068.69070	         6.47758e+57
          2069.49700	         5.80168e+57
          2070.30330	         4.56649e+57
          2071.10960	         6.02284e+57
          2071.91590	         5.52532e+57
          2072.72220	         4.35381e+57
          2073.52850	         5.39908e+57
          2074.33480	         4.56060e+57
          2075.14110	         5.23761e+57
          2075.94740	         4.73738e+57
          2076.75370	         4.15163e+57
          2077.56000	         4.29633e+57
          2078.36630	         4.84780e+57
          2079.17260	         4.17432e+57
          2079.97890	         5.61856e+57
          2080.78520	         5.49118e+57
          2081.59150	         5.17625e+57
          2082.39780	         4.71578e+57
          2083.20410	         3.37893e+57
          2084.01040	         3.39670e+57
          2084.81670	         5.67785e+57
          2085.62300	         4.67754e+57
          2086.42930	         2.91658e+57
          2087.23560	         4.47527e+57
          2088.04190	         2.99016e+57
          2088.84820	         4.13393e+57
          2089.65450	         2.60949e+57
          2090.46080	         1.78300e+57
          2091.26710	         1.73419e+57
          2092.07340	         2.54868e+57
          2092.87970	         2.65122e+57
          2093.68600	        -1.10018e+57
          2094.49230	         2.86426e+57
          2095.29860	         4.99751e+57
          2096.10490	         2.92728e+57
          2096.91120	         3.17686e+57
          2097.71750	         2.31008e+57
          2098.52380	        -4.30593e+56
          2099.33010	         1.25524e+57
          2100.13640	         1.48004e+57
          2100.94270	         3.60887e+57
          2101.74900	         3.81262e+57
          2102.55530	         1.26109e+57
          2103.36160	         2.18886e+57
          2104.16790	         4.04871e+57
          2104.97420	         3.57075e+57
          2105.78050	         6.84465e+56
          2106.58680	        -2.56307e+57
          2107.39310	        -3.88451e+57
          2108.19940	        -2.28392e+56
          2109.00570	         1.22238e+57
          2109.81200	        -1.98173e+57
          2110.61830	         9.06264e+56
          2111.42460	        -3.51755e+56
          2112.23090	         2.79892e+55
          2113.03720	         4.13517e+56
          2113.84350	        -9.59510e+56
          2114.64980	         2.49944e+57
          2115.45610	        -2.09796e+57
          2116.26240	         2.70095e+57
          2117.06870	         3.03904e+57
          2117.87500	        -9.95099e+56
          2118.68130	         1.27375e+57
          2119.48760	         1.34489e+57
          2120.29390	         4.29479e+56
          2121.10020	        -3.83657e+57
          2121.90650	        -5.05095e+57
          2122.71280	        -3.32220e+56
          2123.51910	         4.89068e+57
          2124.32540	        -3.58764e+56
          2125.13170	        -2.43759e+57
          2125.93800	         1.08562e+57
          2126.74430	         1.44186e+57
          2127.55060	        -5.33499e+57
          2128.35690	        -2.09421e+57
          2129.16320	         2.73842e+56
          2129.96950	        -2.14186e+57
          2130.77580	         1.43723e+57
          2131.58210	         3.04131e+56
          2132.38840	         3.01936e+56
          2133.19470	         4.90587e+56
          2134.00100	         2.77523e+57
          2134.80730	        -7.38298e+57
          2135.61360	         3.70056e+57
          2136.41990	         8.08863e+57
          2137.22620	         2.07783e+57
          2138.03250	        -7.04825e+55
          2138.83880	        -1.00276e+57
          2139.64510	         2.27844e+56
          2140.45140	        -7.50450e+56
          2141.25770	        -7.64213e+57
          2142.06400	        -2.11519e+57
          2142.87030	         6.53212e+57
          2143.67660	         1.22752e+58
          2144.48290	         1.05675e+58
          2145.28920	         1.16824e+58
          2146.09550	        -6.86042e+57
          2146.90180	        -2.22135e+57
          2147.70810	        -5.52357e+57
          2148.51440	        -9.51985e+57
          2149.32070	        -1.01342e+58
          2150.12700	        -2.23363e+57
          2150.93330	        -1.59789e+57
          2151.73960	         4.27848e+57
          2152.54590	        -1.71431e+56
          2153.35220	        -1.51731e+57
          2154.15850	        -8.72242e+57
          2154.96480	         1.09602e+57
          2155.77110	        -2.00427e+57
          2156.57740	        -3.23704e+57
          2157.38370	        -3.79962e+57
          2158.19000	        -4.15573e+57
          2158.99630	         3.54636e+57
          2159.80260	        -6.03206e+57
          2160.60890	        -2.78743e+57
          2161.41520	        -1.32944e+57
          2162.22150	        -1.06162e+58
          2163.02780	        -4.68743e+57
          2163.83410	        -5.03696e+57
          2164.64040	        -9.69843e+57
          2165.44670	        -1.04974e+58
          2166.25300	        -9.33399e+57
          2167.05930	        -1.92450e+58
          2167.86560	        -1.55776e+58
          2168.67190	        -6.46659e+57
          2169.47820	         5.63325e+57
          2170.28450	        -3.84386e+57
          2171.09080	         1.56751e+57
          2171.89710	         4.31038e+56
          2172.70340	         8.47488e+56
          2173.50970	        -6.70939e+57
          2174.31600	        -5.31241e+57
          2175.12230	        -7.35326e+56
          2175.92860	        -5.45756e+57
          2176.73490	        -1.08682e+58
          2177.54120	        -2.30111e+57
          2178.34750	        -4.44256e+57
          2179.15380	                 nan
          2179.96010	                 nan
          2180.76640	                 nan
          2181.57270	                 nan
          2182.37900	                 nan
          2183.18530	                 nan
          2183.99160	                 nan
          2184.79790	                 nan
          2185.60420	                 nan
          2186.41050	                 nan
          2187.21680	                 nan
          2188.02310	                 nan
          2188.82940	                 nan
          2189.63570	                 nan
          2190.44200	                 nan
          2191.24830	                 nan
          2192.05460	                 nan
          2192.86090	                 nan
          2193.66720	                 nan
          2194.47350	                 nan
          2195.27980	                 nan
          2196.08610	                 nan
          2196.89240	                 nan
          2197.69870	                 nan
          2198.50500	                 nan
          2199.31130	                 nan
          2200.11760	                 nan
          2200.92390	                 nan
          2201.73020	                 nan
          2202.53650	                 nan
          2203.34280	                 nan
          2204.14910	                 nan
          2204.95540	                 nan
          2205.76170	                 nan
          2206.56800	                 nan
          2207.37430	                 nan
          2208.18060	                 nan
          2208.98690	                 nan
          2209.79320	                 nan
          2210.59950	                 nan
          2211.40580	                 nan
          2212.21210	                 nan
          2213.01840	                 nan
          2213.82470	                 nan
          2214.63100	                 nan
          2215.43730	         0.00000e+00
