#sample_301_stacked_spectrum_rest_UV-bands_median_H-alpha_noDC.txt
#median Lum: 1.70611e+42
#Rest-frame wavelength (A) | Luminosity (erg/s/A)
#
          1110.00000	         0.00000e+00
          1110.80630	        -1.57193e+58
          1111.61260	        -2.70062e+59
          1112.41890	        -1.86983e+59
          1113.22520	        -6.87877e+58
          1114.03150	        -9.19222e+58
          1114.83780	         4.10376e+58
          1115.64410	         1.49430e+59
          1116.45040	         6.85115e+58
          1117.25670	        -5.22496e+58
          1118.06300	         1.14494e+59
          1118.86930	        -2.41369e+57
          1119.67560	         1.02095e+59
          1120.48190	         1.80140e+58
          1121.28820	        -1.00784e+59
          1122.09450	         5.17322e+58
          1122.90080	         3.33198e+58
          1123.70710	         7.80372e+58
          1124.51340	         9.73851e+58
          1125.31970	         3.66970e+58
          1126.12600	         4.76714e+58
          1126.93230	        -1.93451e+58
          1127.73860	        -5.63969e+58
          1128.54490	        -3.59558e+58
          1129.35120	         2.47186e+58
          1130.15750	        -2.87720e+58
          1130.96380	        -3.17265e+58
          1131.77010	         3.45727e+58
          1132.57640	         4.73868e+58
          1133.38270	         3.29471e+58
          1134.18900	         2.18591e+58
          1134.99530	        -6.66303e+57
          1135.80160	         2.27336e+58
          1136.60790	         2.45893e+58
          1137.41420	        -1.07252e+58
          1138.22050	         4.17712e+58
          1139.02680	         3.82192e+58
          1139.83310	         1.89374e+58
          1140.63940	         2.12452e+58
          1141.44570	        -8.30423e+57
          1142.25200	        -5.05418e+56
          1143.05830	         2.50002e+58
          1143.86460	         3.02271e+58
          1144.67090	         3.99909e+57
          1145.47720	         1.62033e+58
          1146.28350	         2.44385e+58
          1147.08980	         1.89012e+58
          1147.89610	         5.50582e+57
          1148.70240	         2.65146e+58
          1149.50870	         1.96288e+58
          1150.31500	         1.45083e+58
          1151.12130	         9.75414e+57
          1151.92760	        -3.24541e+57
          1152.73390	        -2.23326e+56
          1153.54020	         7.19261e+57
          1154.34650	         2.12124e+58
          1155.15280	         2.20083e+58
          1155.95910	         1.11267e+58
          1156.76540	         3.34623e+57
          1157.57170	        -1.70010e+57
          1158.37800	        -5.72756e+57
          1159.18430	        -4.10040e+57
          1159.99060	         9.07877e+57
          1160.79690	         6.52335e+57
          1161.60320	         1.33567e+58
          1162.40950	         2.07203e+58
          1163.21580	         2.73505e+58
          1164.02210	         1.22366e+58
          1164.82840	         2.13071e+58
          1165.63470	         1.82794e+58
          1166.44100	         2.69425e+58
          1167.24730	         2.04725e+58
          1168.05360	         1.14913e+58
          1168.85990	         1.40658e+58
          1169.66620	         8.52492e+57
          1170.47250	         5.50917e+57
          1171.27880	         1.81764e+57
          1172.08510	         1.06804e+58
          1172.89140	         9.83487e+57
          1173.69770	         4.57141e+57
          1174.50400	         7.42938e+57
          1175.31030	         1.91658e+58
          1176.11660	         1.69394e+58
          1176.92290	         1.52152e+58
          1177.72920	         1.25850e+58
          1178.53550	         8.90654e+57
          1179.34180	         5.78253e+57
          1180.14810	         8.99599e+57
          1180.95440	         1.23252e+58
          1181.76070	         9.75669e+57
          1182.56700	         9.01376e+57
          1183.37330	         8.35259e+57
          1184.17960	         1.30158e+58
          1184.98590	         1.18619e+58
          1185.79220	         6.77834e+57
          1186.59850	         1.67663e+58
          1187.40480	         1.02648e+58
          1188.21110	         1.17058e+58
          1189.01740	         1.31551e+58
          1189.82370	         1.15902e+58
          1190.63000	         1.38806e+58
          1191.43630	         1.42729e+58
          1192.24260	         1.26805e+58
          1193.04890	         1.50839e+58
          1193.85520	         1.43443e+58
          1194.66150	         7.66896e+57
          1195.46780	         8.36793e+57
          1196.27410	         1.09555e+58
          1197.08040	         6.28932e+57
          1197.88670	         1.49347e+58
          1198.69300	         1.34731e+58
          1199.49930	         1.28340e+58
          1200.30560	         1.17573e+58
          1201.11190	         7.96686e+57
          1201.91820	         6.06400e+57
          1202.72450	         8.41059e+57
          1203.53080	         1.60726e+58
          1204.33710	         1.07785e+58
          1205.14340	         1.00483e+58
          1205.94970	         8.36340e+57
          1206.75600	         9.52873e+57
          1207.56230	         6.23750e+57
          1208.36860	         7.84994e+57
          1209.17490	         4.15929e+57
          1209.98120	         2.22685e+57
          1210.78750	         8.14265e+57
          1211.59380	         1.41776e+58
          1212.40010	         1.93915e+58
          1213.20640	         1.95810e+58
          1214.01270	         2.08230e+58
          1214.81900	         2.45879e+58
          1215.62530	         4.34550e+58
          1216.43160	         8.66498e+58
          1217.23790	         1.48538e+59
          1218.04420	         1.15429e+59
          1218.85050	         8.26222e+58
          1219.65680	         5.73997e+58
          1220.46310	         3.47744e+58
          1221.26940	         2.49404e+58
          1222.07570	         1.36105e+58
          1222.88200	         1.20469e+58
          1223.68830	         1.17330e+58
          1224.49460	         8.38422e+57
          1225.30090	         7.32047e+57
          1226.10720	         5.38851e+57
          1226.91350	         5.57418e+57
          1227.71980	         1.07868e+58
          1228.52610	         1.50551e+58
          1229.33240	         1.06974e+58
          1230.13870	         1.06225e+58
          1230.94500	         9.01352e+57
          1231.75130	         7.25900e+57
          1232.55760	         1.02075e+58
          1233.36390	         9.45185e+57
          1234.17020	         1.05076e+58
          1234.97650	         1.08395e+58
          1235.78280	         8.02106e+57
          1236.58910	         8.30325e+57
          1237.39540	         9.46567e+57
          1238.20170	         9.90677e+57
          1239.00800	         1.33470e+58
          1239.81430	         1.47046e+58
          1240.62060	         1.05621e+58
          1241.42690	         8.97602e+57
          1242.23320	         1.07437e+58
          1243.03950	         8.48340e+57
          1243.84580	         1.00140e+58
          1244.65210	         1.09630e+58
          1245.45840	         9.83628e+57
          1246.26470	         9.54178e+57
          1247.07100	         7.12345e+57
          1247.87730	         6.03903e+57
          1248.68360	         4.78639e+57
          1249.48990	         8.27859e+57
          1250.29620	         9.24772e+57
          1251.10250	         8.30935e+57
          1251.90880	         6.75840e+57
          1252.71510	         4.81130e+57
          1253.52140	         7.33066e+57
          1254.32770	         1.00155e+58
          1255.13400	         1.22259e+58
          1255.94030	         1.13455e+58
          1256.74660	         1.03278e+58
          1257.55290	         1.10780e+58
          1258.35920	         8.92472e+57
          1259.16550	         5.37456e+57
          1259.97180	         4.87654e+57
          1260.77810	         9.28068e+57
          1261.58440	         1.38382e+58
          1262.39070	         1.11537e+58
          1263.19700	         7.36871e+57
          1264.00330	         8.51170e+57
          1264.80960	         1.14995e+58
          1265.61590	         1.29810e+58
          1266.42220	         1.13068e+58
          1267.22850	         1.06615e+58
          1268.03480	         1.21342e+58
          1268.84110	         1.24052e+58
          1269.64740	         1.28647e+58
          1270.45370	         1.37818e+58
          1271.26000	         1.30709e+58
          1272.06630	         1.33150e+58
          1272.87260	         1.35367e+58
          1273.67890	         1.47849e+58
          1274.48520	         1.30780e+58
          1275.29150	         1.38000e+58
          1276.09780	         1.24262e+58
          1276.90410	         1.43892e+58
          1277.71040	         1.33701e+58
          1278.51670	         1.18737e+58
          1279.32300	         1.37585e+58
          1280.12930	         1.26719e+58
          1280.93560	         1.00032e+58
          1281.74190	         9.45820e+57
          1282.54820	         1.08902e+58
          1283.35450	         1.11286e+58
          1284.16080	         1.25496e+58
          1284.96710	         1.23532e+58
          1285.77340	         1.18912e+58
          1286.57970	         1.20149e+58
          1287.38600	         1.61735e+58
          1288.19230	         1.89212e+58
          1288.99860	         1.67748e+58
          1289.80490	         1.22057e+58
          1290.61120	         1.25308e+58
          1291.41750	         1.34998e+58
          1292.22380	         1.02315e+58
          1293.03010	         8.97717e+57
          1293.83640	         1.00055e+58
          1294.64270	         9.69090e+57
          1295.44900	         7.42698e+57
          1296.25530	         7.63179e+57
          1297.06160	         9.71089e+57
          1297.86790	         1.01183e+58
          1298.67420	         9.56052e+57
          1299.48050	         9.74075e+57
          1300.28680	         9.74254e+57
          1301.09310	         9.38112e+57
          1301.89940	         5.84611e+57
          1302.70570	         6.15754e+57
          1303.51200	         6.92195e+57
          1304.31830	         8.24982e+57
          1305.12460	         1.06335e+58
          1305.93090	         1.26497e+58
          1306.73720	         1.25440e+58
          1307.54350	         1.29593e+58
          1308.34980	         1.47005e+58
          1309.15610	         1.47571e+58
          1309.96240	         1.50270e+58
          1310.76870	         1.22777e+58
          1311.57500	         9.88616e+57
          1312.38130	         1.01251e+58
          1313.18760	         1.22863e+58
          1313.99390	         1.62049e+58
          1314.80020	         1.61836e+58
          1315.60650	         1.61298e+58
          1316.41280	         1.52586e+58
          1317.21910	         1.12605e+58
          1318.02540	         1.21352e+58
          1318.83170	         1.37924e+58
          1319.63800	         1.26368e+58
          1320.44430	         1.16232e+58
          1321.25060	         1.24323e+58
          1322.05690	         1.24819e+58
          1322.86320	         1.22634e+58
          1323.66950	         1.11680e+58
          1324.47580	         9.30851e+57
          1325.28210	         8.99033e+57
          1326.08840	         9.47747e+57
          1326.89470	         1.10362e+58
          1327.70100	         1.16316e+58
          1328.50730	         9.24068e+57
          1329.31360	         1.01375e+58
          1330.11990	         1.12845e+58
          1330.92620	         9.56336e+57
          1331.73250	         1.18515e+58
          1332.53880	         1.06691e+58
          1333.34510	         8.62095e+57
          1334.15140	         8.41597e+57
          1334.95770	         8.99823e+57
          1335.76400	         9.75951e+57
          1336.57030	         9.55806e+57
          1337.37660	         9.52478e+57
          1338.18290	         1.11873e+58
          1338.98920	         1.19642e+58
          1339.79550	         1.12762e+58
          1340.60180	         1.27487e+58
          1341.40810	         1.25131e+58
          1342.21440	         1.17852e+58
          1343.02070	         1.35689e+58
          1343.82700	         1.33304e+58
          1344.63330	         1.28759e+58
          1345.43960	         1.36536e+58
          1346.24590	         1.23310e+58
          1347.05220	         1.27599e+58
          1347.85850	         1.10683e+58
          1348.66480	         1.11470e+58
          1349.47110	         1.22677e+58
          1350.27740	         1.21310e+58
          1351.08370	         1.24693e+58
          1351.89000	         1.35599e+58
          1352.69630	         1.27138e+58
          1353.50260	         1.24633e+58
          1354.30890	         1.34165e+58
          1355.11520	         1.36703e+58
          1355.92150	         1.21509e+58
          1356.72780	         1.01534e+58
          1357.53410	         9.67421e+57
          1358.34040	         1.08908e+58
          1359.14670	         1.11696e+58
          1359.95300	         1.25382e+58
          1360.75930	         1.18963e+58
          1361.56560	         1.11192e+58
          1362.37190	         1.22992e+58
          1363.17820	         1.20052e+58
          1363.98450	         1.23972e+58
          1364.79080	         1.18498e+58
          1365.59710	         1.24726e+58
          1366.40340	         1.16948e+58
          1367.20970	         9.54680e+57
          1368.01600	         9.38108e+57
          1368.82230	         8.11904e+57
          1369.62860	         7.40122e+57
          1370.43490	         8.42873e+57
          1371.24120	         9.11494e+57
          1372.04750	         8.55974e+57
          1372.85380	         9.37770e+57
          1373.66010	         1.14863e+58
          1374.46640	         1.09277e+58
          1375.27270	         1.11724e+58
          1376.07900	         9.85764e+57
          1376.88530	         8.65717e+57
          1377.69160	         8.11268e+57
          1378.49790	         7.24932e+57
          1379.30420	         8.74418e+57
          1380.11050	         8.71685e+57
          1380.91680	         7.39223e+57
          1381.72310	         7.58317e+57
          1382.52940	         7.35775e+57
          1383.33570	         7.86986e+57
          1384.14200	         9.05365e+57
          1384.94830	         1.02931e+58
          1385.75460	         1.09408e+58
          1386.56090	         1.03043e+58
          1387.36720	         1.08732e+58
          1388.17350	         1.24148e+58
          1388.97980	         1.15312e+58
          1389.78610	         9.65039e+57
          1390.59240	         6.83562e+57
          1391.39870	         5.28904e+57
          1392.20500	         7.92503e+57
          1393.01130	         8.72599e+57
          1393.81760	         8.76968e+57
          1394.62390	         7.72099e+57
          1395.43020	         6.95018e+57
          1396.23650	         7.37658e+57
          1397.04280	         7.21075e+57
          1397.84910	         7.87007e+57
          1398.65540	         8.37673e+57
          1399.46170	         1.05093e+58
          1400.26800	         8.10755e+57
          1401.07430	         6.29901e+57
          1401.88060	         7.26243e+57
          1402.68690	         9.88167e+57
          1403.49320	         1.00648e+58
          1404.29950	         9.07182e+57
          1405.10580	         1.03088e+58
          1405.91210	         1.14343e+58
          1406.71840	         1.12850e+58
          1407.52470	         1.06951e+58
          1408.33100	         1.13718e+58
          1409.13730	         1.23305e+58
          1409.94360	         1.15007e+58
          1410.74990	         1.13383e+58
          1411.55620	         1.02921e+58
          1412.36250	         9.34109e+57
          1413.16880	         8.69106e+57
          1413.97510	         8.25820e+57
          1414.78140	         9.69210e+57
          1415.58770	         1.14477e+58
          1416.39400	         1.05180e+58
          1417.20030	         1.14099e+58
          1418.00660	         1.03079e+58
          1418.81290	         8.29478e+57
          1419.61920	         9.19881e+57
          1420.42550	         1.17607e+58
          1421.23180	         1.28783e+58
          1422.03810	         1.12387e+58
          1422.84440	         1.03625e+58
          1423.65070	         1.32949e+58
          1424.45700	         1.18594e+58
          1425.26330	         9.25864e+57
          1426.06960	         8.71646e+57
          1426.87590	         8.75632e+57
          1427.68220	         1.03462e+58
          1428.48850	         1.09368e+58
          1429.29480	         1.12668e+58
          1430.10110	         1.08088e+58
          1430.90740	         9.46029e+57
          1431.71370	         9.40425e+57
          1432.52000	         8.96615e+57
          1433.32630	         7.64865e+57
          1434.13260	         8.03008e+57
          1434.93890	         8.53289e+57
          1435.74520	         9.27673e+57
          1436.55150	         9.61902e+57
          1437.35780	         9.55235e+57
          1438.16410	         9.28940e+57
          1438.97040	         9.34078e+57
          1439.77670	         8.00807e+57
          1440.58300	         8.85211e+57
          1441.38930	         9.86385e+57
          1442.19560	         9.20019e+57
          1443.00190	         9.19418e+57
          1443.80820	         1.09529e+58
          1444.61450	         9.69846e+57
          1445.42080	         9.15984e+57
          1446.22710	         1.05126e+58
          1447.03340	         9.69802e+57
          1447.83970	         1.04553e+58
          1448.64600	         1.13508e+58
          1449.45230	         9.59805e+57
          1450.25860	         9.14198e+57
          1451.06490	         8.13505e+57
          1451.87120	         8.03695e+57
          1452.67750	         7.81812e+57
          1453.48380	         9.14740e+57
          1454.29010	         7.40831e+57
          1455.09640	         5.95983e+57
          1455.90270	         8.23642e+57
          1456.70900	         8.18068e+57
          1457.51530	         9.10016e+57
          1458.32160	         1.27602e+58
          1459.12790	         1.22199e+58
          1459.93420	         9.84840e+57
          1460.74050	         8.65087e+57
          1461.54680	         8.66635e+57
          1462.35310	         7.77793e+57
          1463.15940	         9.22893e+57
          1463.96570	         1.04608e+58
          1464.77200	         1.07593e+58
          1465.57830	         9.49429e+57
          1466.38460	         9.09843e+57
          1467.19090	         9.13089e+57
          1467.99720	         9.42634e+57
          1468.80350	         9.81482e+57
          1469.60980	         1.04251e+58
          1470.41610	         1.14270e+58
          1471.22240	         1.00875e+58
          1472.02870	         1.01435e+58
          1472.83500	         9.49417e+57
          1473.64130	         9.88987e+57
          1474.44760	         9.79574e+57
          1475.25390	         9.43262e+57
          1476.06020	         8.54837e+57
          1476.86650	         8.04938e+57
          1477.67280	         7.53491e+57
          1478.47910	         6.93695e+57
          1479.28540	         7.01793e+57
          1480.09170	         8.68289e+57
          1480.89800	         9.13295e+57
          1481.70430	         8.66342e+57
          1482.51060	         8.09366e+57
          1483.31690	         8.17340e+57
          1484.12320	         8.15373e+57
          1484.92950	         7.00254e+57
          1485.73580	         7.40371e+57
          1486.54210	         8.78581e+57
          1487.34840	         8.54110e+57
          1488.15470	         8.83072e+57
          1488.96100	         9.08038e+57
          1489.76730	         9.47765e+57
          1490.57360	         8.82123e+57
          1491.37990	         7.70605e+57
          1492.18620	         7.81927e+57
          1492.99250	         8.73854e+57
          1493.79880	         8.05901e+57
          1494.60510	         7.20705e+57
          1495.41140	         7.21475e+57
          1496.21770	         8.02719e+57
          1497.02400	         9.97641e+57
          1497.83030	         9.25834e+57
          1498.63660	         7.32213e+57
          1499.44290	         6.45041e+57
          1500.24920	         6.63548e+57
          1501.05550	         7.67269e+57
          1501.86180	         9.04322e+57
          1502.66810	         9.96415e+57
          1503.47440	         8.74204e+57
          1504.28070	         8.37157e+57
          1505.08700	         9.12604e+57
          1505.89330	         8.56186e+57
          1506.69960	         7.85700e+57
          1507.50590	         7.88851e+57
          1508.31220	         7.90694e+57
          1509.11850	         7.21138e+57
          1509.92480	         8.43847e+57
          1510.73110	         9.03658e+57
          1511.53740	         7.40549e+57
          1512.34370	         7.13209e+57
          1513.15000	         8.10913e+57
          1513.95630	         1.01636e+58
          1514.76260	         9.42736e+57
          1515.56890	         7.58296e+57
          1516.37520	         7.90151e+57
          1517.18150	         8.30587e+57
          1517.98780	         7.64437e+57
          1518.79410	         6.76357e+57
          1519.60040	         7.33405e+57
          1520.40670	         9.53586e+57
          1521.21300	         9.46077e+57
          1522.01930	         8.02341e+57
          1522.82560	         8.96829e+57
          1523.63190	         9.71415e+57
          1524.43820	         8.71677e+57
          1525.24450	         6.63014e+57
          1526.05080	         6.12996e+57
          1526.85710	         6.91269e+57
          1527.66340	         7.00971e+57
          1528.46970	         7.77537e+57
          1529.27600	         8.77995e+57
          1530.08230	         7.89597e+57
          1530.88860	         7.86516e+57
          1531.69490	         8.19840e+57
          1532.50120	         9.42565e+57
          1533.30750	         9.64954e+57
          1534.11380	         9.89897e+57
          1534.92010	         1.01913e+58
          1535.72640	         9.72372e+57
          1536.53270	         9.85634e+57
          1537.33900	         8.99581e+57
          1538.14530	         8.83862e+57
          1538.95160	         9.47078e+57
          1539.75790	         8.74712e+57
          1540.56420	         9.52202e+57
          1541.37050	         8.52670e+57
          1542.17680	         7.07675e+57
          1542.98310	         7.38774e+57
          1543.78940	         7.38902e+57
          1544.59570	         6.58518e+57
          1545.40200	         7.58750e+57
          1546.20830	         9.16820e+57
          1547.01460	         1.06246e+58
          1547.82090	         1.15986e+58
          1548.62720	         1.22517e+58
          1549.43350	         1.10470e+58
          1550.23980	         1.04261e+58
          1551.04610	         1.19951e+58
          1551.85240	         1.26227e+58
          1552.65870	         1.20506e+58
          1553.46500	         1.10723e+58
          1554.27130	         1.03142e+58
          1555.07760	         1.04498e+58
          1555.88390	         9.80787e+57
          1556.69020	         9.09560e+57
          1557.49650	         8.25930e+57
          1558.30280	         8.28352e+57
          1559.10910	         8.32658e+57
          1559.91540	         8.71887e+57
          1560.72170	         8.84782e+57
          1561.52800	         8.44221e+57
          1562.33430	         8.42925e+57
          1563.14060	         8.45340e+57
          1563.94690	         8.35051e+57
          1564.75320	         7.78187e+57
          1565.55950	         6.17749e+57
          1566.36580	         6.95676e+57
          1567.17210	         9.97797e+57
          1567.97840	         9.70715e+57
          1568.78470	         8.66539e+57
          1569.59100	         8.94095e+57
          1570.39730	         8.60588e+57
          1571.20360	         7.91855e+57
          1572.00990	         7.76987e+57
          1572.81620	         8.28910e+57
          1573.62250	         9.86219e+57
          1574.42880	         9.83485e+57
          1575.23510	         8.49818e+57
          1576.04140	         8.56442e+57
          1576.84770	         9.30870e+57
          1577.65400	         8.77788e+57
          1578.46030	         9.18901e+57
          1579.26660	         1.03964e+58
          1580.07290	         8.92006e+57
          1580.87920	         7.53721e+57
          1581.68550	         7.21760e+57
          1582.49180	         7.93247e+57
          1583.29810	         7.72506e+57
          1584.10440	         8.12554e+57
          1584.91070	         8.91879e+57
          1585.71700	         9.07495e+57
          1586.52330	         9.56529e+57
          1587.32960	         8.98481e+57
          1588.13590	         8.44258e+57
          1588.94220	         8.84581e+57
          1589.74850	         9.46518e+57
          1590.55480	         8.73402e+57
          1591.36110	         7.20501e+57
          1592.16740	         7.54446e+57
          1592.97370	         7.68350e+57
          1593.78000	         9.34756e+57
          1594.58630	         9.76627e+57
          1595.39260	         8.87558e+57
          1596.19890	         8.54779e+57
          1597.00520	         9.94598e+57
          1597.81150	         9.64219e+57
          1598.61780	         7.09869e+57
          1599.42410	         6.70892e+57
          1600.23040	         6.74243e+57
          1601.03670	         8.17054e+57
          1601.84300	         8.09710e+57
          1602.64930	         8.28441e+57
          1603.45560	         8.34534e+57
          1604.26190	         8.10543e+57
          1605.06820	         7.80406e+57
          1605.87450	         6.94282e+57
          1606.68080	         7.21020e+57
          1607.48710	         5.90353e+57
          1608.29340	         4.99318e+57
          1609.09970	         7.35755e+57
          1609.90600	         7.97340e+57
          1610.71230	         6.72951e+57
          1611.51860	         6.95768e+57
          1612.32490	         6.85688e+57
          1613.13120	         8.17286e+57
          1613.93750	         8.99779e+57
          1614.74380	         9.84032e+57
          1615.55010	         8.93523e+57
          1616.35640	         9.11467e+57
          1617.16270	         1.01474e+58
          1617.96900	         1.03708e+58
          1618.77530	         8.36951e+57
          1619.58160	         8.03576e+57
          1620.38790	         8.13543e+57
          1621.19420	         8.85769e+57
          1622.00050	         8.50016e+57
          1622.80680	         8.96773e+57
          1623.61310	         8.48946e+57
          1624.41940	         8.47363e+57
          1625.22570	         9.80632e+57
          1626.03200	         8.53561e+57
          1626.83830	         8.41961e+57
          1627.64460	         8.43216e+57
          1628.45090	         6.97281e+57
          1629.25720	         8.91828e+57
          1630.06350	         9.93775e+57
          1630.86980	         6.60443e+57
          1631.67610	         6.59596e+57
          1632.48240	         7.77054e+57
          1633.28870	         8.14784e+57
          1634.09500	         7.72453e+57
          1634.90130	         9.14986e+57
          1635.70760	         8.85020e+57
          1636.51390	         7.58861e+57
          1637.32020	         6.50486e+57
          1638.12650	         7.96220e+57
          1638.93280	         9.20314e+57
          1639.73910	         9.80920e+57
          1640.54540	         9.88591e+57
          1641.35170	         8.77566e+57
          1642.15800	         9.13323e+57
          1642.96430	         9.43854e+57
          1643.77060	         8.67866e+57
          1644.57690	         7.28007e+57
          1645.38320	         8.24140e+57
          1646.18950	         7.74827e+57
          1646.99580	         8.58123e+57
          1647.80210	         8.45993e+57
          1648.60840	         8.15519e+57
          1649.41470	         8.90109e+57
          1650.22100	         7.56148e+57
          1651.02730	         6.95404e+57
          1651.83360	         7.88541e+57
          1652.63990	         8.20907e+57
          1653.44620	         8.32847e+57
          1654.25250	         7.76545e+57
          1655.05880	         6.91348e+57
          1655.86510	         8.82805e+57
          1656.67140	         8.61650e+57
          1657.47770	         7.49714e+57
          1658.28400	         7.55583e+57
          1659.09030	         8.30697e+57
          1659.89660	         9.63998e+57
          1660.70290	         1.06055e+58
          1661.50920	         9.59740e+57
          1662.31550	         8.09479e+57
          1663.12180	         8.34758e+57
          1663.92810	         8.47255e+57
          1664.73440	         1.07601e+58
          1665.54070	         1.22514e+58
          1666.34700	         1.18153e+58
          1667.15330	         1.11141e+58
          1667.95960	         9.34657e+57
          1668.76590	         8.27878e+57
          1669.57220	         7.10177e+57
          1670.37850	         7.34845e+57
          1671.18480	         7.66236e+57
          1671.99110	         7.61199e+57
          1672.79740	         6.92467e+57
          1673.60370	         6.68581e+57
          1674.41000	         8.26637e+57
          1675.21630	         8.39976e+57
          1676.02260	         7.38262e+57
          1676.82890	         6.44587e+57
          1677.63520	         6.57648e+57
          1678.44150	         7.83452e+57
          1679.24780	         8.72065e+57
          1680.05410	         7.85619e+57
          1680.86040	         5.76820e+57
          1681.66670	         6.79515e+57
          1682.47300	         7.41416e+57
          1683.27930	         8.17241e+57
          1684.08560	         9.56026e+57
          1684.89190	         8.54893e+57
          1685.69820	         5.39623e+57
          1686.50450	         4.90561e+57
          1687.31080	         6.07102e+57
          1688.11710	         6.86251e+57
          1688.92340	         6.41276e+57
          1689.72970	         6.16804e+57
          1690.53600	         5.86236e+57
          1691.34230	         6.24282e+57
          1692.14860	         7.43505e+57
          1692.95490	         7.74830e+57
          1693.76120	         6.75614e+57
          1694.56750	         6.53400e+57
          1695.37380	         8.22533e+57
          1696.18010	         9.14420e+57
          1696.98640	         9.13153e+57
          1697.79270	         7.78259e+57
          1698.59900	         7.36043e+57
          1699.40530	         8.14147e+57
          1700.21160	         8.79293e+57
          1701.01790	         8.96528e+57
          1701.82420	         7.52957e+57
          1702.63050	         7.43694e+57
          1703.43680	         8.29453e+57
          1704.24310	         8.71727e+57
          1705.04940	         8.79286e+57
          1705.85570	         7.61836e+57
          1706.66200	         9.02482e+57
          1707.46830	         8.95250e+57
          1708.27460	         8.46712e+57
          1709.08090	         6.82585e+57
          1709.88720	         5.88281e+57
          1710.69350	         5.22864e+57
          1711.49980	         6.50958e+57
          1712.30610	         6.99636e+57
          1713.11240	         8.53663e+57
          1713.91870	         8.13820e+57
          1714.72500	         7.97316e+57
          1715.53130	         8.76536e+57
          1716.33760	         8.31026e+57
          1717.14390	         7.07933e+57
          1717.95020	         8.18900e+57
          1718.75650	         9.10836e+57
          1719.56280	         8.46865e+57
          1720.36910	         7.42374e+57
          1721.17540	         7.15970e+57
          1721.98170	         7.42103e+57
          1722.78800	         7.47330e+57
          1723.59430	         7.96504e+57
          1724.40060	         8.53874e+57
          1725.20690	         8.27710e+57
          1726.01320	         7.66071e+57
          1726.81950	         6.84658e+57
          1727.62580	         7.14764e+57
          1728.43210	         7.15744e+57
          1729.23840	         7.65686e+57
          1730.04470	         8.25582e+57
          1730.85100	         8.51402e+57
          1731.65730	         9.08792e+57
          1732.46360	         8.42194e+57
          1733.26990	         8.13990e+57
          1734.07620	         7.62366e+57
          1734.88250	         7.13775e+57
          1735.68880	         7.45469e+57
          1736.49510	         8.17812e+57
          1737.30140	         8.12908e+57
          1738.10770	         7.56582e+57
          1738.91400	         7.62308e+57
          1739.72030	         7.52179e+57
          1740.52660	         6.21366e+57
          1741.33290	         4.88593e+57
          1742.13920	         5.70226e+57
          1742.94550	         7.94893e+57
          1743.75180	         7.98065e+57
          1744.55810	         7.98524e+57
          1745.36440	         7.29624e+57
          1746.17070	         5.28610e+57
          1746.97700	         5.48700e+57
          1747.78330	         6.24759e+57
          1748.58960	         6.31234e+57
          1749.39590	         7.08548e+57
          1750.20220	         6.49079e+57
          1751.00850	         6.42898e+57
          1751.81480	         6.44065e+57
          1752.62110	         6.74260e+57
          1753.42740	         7.72217e+57
          1754.23370	         6.78735e+57
          1755.04000	         7.61278e+57
          1755.84630	         7.69769e+57
          1756.65260	         8.32566e+57
          1757.45890	         8.62039e+57
          1758.26520	         7.36814e+57
          1759.07150	         8.73533e+57
          1759.87780	         8.38755e+57
          1760.68410	         8.12000e+57
          1761.49040	         7.99478e+57
          1762.29670	         6.30464e+57
          1763.10300	         6.25774e+57
          1763.90930	         7.15783e+57
          1764.71560	         7.31828e+57
          1765.52190	         7.25240e+57
          1766.32820	         8.91426e+57
          1767.13450	         8.66202e+57
          1767.94080	         6.92011e+57
          1768.74710	         6.76468e+57
          1769.55340	         6.96321e+57
          1770.35970	         6.45779e+57
          1771.16600	         7.19797e+57
          1771.97230	         8.89234e+57
          1772.77860	         8.49994e+57
          1773.58490	         7.21413e+57
          1774.39120	         6.52593e+57
          1775.19750	         6.05862e+57
          1776.00380	         6.84811e+57
          1776.81010	         7.29027e+57
          1777.61640	         6.90523e+57
          1778.42270	         7.28519e+57
          1779.22900	         6.60844e+57
          1780.03530	         6.04913e+57
          1780.84160	         6.73370e+57
          1781.64790	         8.14972e+57
          1782.45420	         7.16921e+57
          1783.26050	         5.45651e+57
          1784.06680	         6.38828e+57
          1784.87310	         8.30922e+57
          1785.67940	         8.32840e+57
          1786.48570	         7.36306e+57
          1787.29200	         6.92721e+57
          1788.09830	         6.56710e+57
          1788.90460	         5.36046e+57
          1789.71090	         5.30383e+57
          1790.51720	         6.02940e+57
          1791.32350	         7.44243e+57
          1792.12980	         9.06099e+57
          1792.93610	         7.94953e+57
          1793.74240	         6.86769e+57
          1794.54870	         8.50767e+57
          1795.35500	         7.93215e+57
          1796.16130	         7.07289e+57
          1796.96760	         6.33747e+57
          1797.77390	         6.45745e+57
          1798.58020	         7.66990e+57
          1799.38650	         6.67388e+57
          1800.19280	         7.09162e+57
          1800.99910	         7.33524e+57
          1801.80540	         6.93498e+57
          1802.61170	         7.81863e+57
          1803.41800	         8.47122e+57
          1804.22430	         7.75158e+57
          1805.03060	         8.59711e+57
          1805.83690	         8.25561e+57
          1806.64320	         7.41409e+57
          1807.44950	         7.46080e+57
          1808.25580	         7.91882e+57
          1809.06210	         8.23900e+57
          1809.86840	         6.80009e+57
          1810.67470	         8.06984e+57
          1811.48100	         8.45459e+57
          1812.28730	         8.18884e+57
          1813.09360	         8.04213e+57
          1813.89990	         8.01163e+57
          1814.70620	         8.20474e+57
          1815.51250	         8.76212e+57
          1816.31880	         8.40007e+57
          1817.12510	         7.43458e+57
          1817.93140	         7.68276e+57
          1818.73770	         7.45569e+57
          1819.54400	         8.00484e+57
          1820.35030	         8.01090e+57
          1821.15660	         6.12107e+57
          1821.96290	         6.61030e+57
          1822.76920	         7.83557e+57
          1823.57550	         8.22613e+57
          1824.38180	         7.68823e+57
          1825.18810	         7.58227e+57
          1825.99440	         8.22586e+57
          1826.80070	         7.60731e+57
          1827.60700	         6.38668e+57
          1828.41330	         6.13731e+57
          1829.21960	         6.90586e+57
          1830.02590	         7.06674e+57
          1830.83220	         7.13231e+57
          1831.63850	         7.26410e+57
          1832.44480	         7.05500e+57
          1833.25110	         7.71025e+57
          1834.05740	         8.31120e+57
          1834.86370	         8.09876e+57
          1835.67000	         6.11303e+57
          1836.47630	         6.59176e+57
          1837.28260	         8.01865e+57
          1838.08890	         8.09168e+57
          1838.89520	         8.14456e+57
          1839.70150	         7.71663e+57
          1840.50780	         7.11151e+57
          1841.31410	         6.60089e+57
          1842.12040	         7.11488e+57
          1842.92670	         6.27729e+57
          1843.73300	         5.75826e+57
          1844.53930	         5.67808e+57
          1845.34560	         6.19325e+57
          1846.15190	         7.05734e+57
          1846.95820	         7.37640e+57
          1847.76450	         7.91788e+57
          1848.57080	         6.11139e+57
          1849.37710	         5.67474e+57
          1850.18340	         7.00833e+57
          1850.98970	         7.10019e+57
          1851.79600	         7.86473e+57
          1852.60230	         7.29168e+57
          1853.40860	         6.85763e+57
          1854.21490	         5.62114e+57
          1855.02120	         6.11258e+57
          1855.82750	         4.91336e+57
          1856.63380	         6.08191e+57
          1857.44010	         6.88776e+57
          1858.24640	         7.59749e+57
          1859.05270	         6.30918e+57
          1859.85900	         4.94023e+57
          1860.66530	         5.55971e+57
          1861.47160	         6.84274e+57
          1862.27790	         7.37500e+57
          1863.08420	         8.28838e+57
          1863.89050	         7.68870e+57
          1864.69680	         6.85420e+57
          1865.50310	         7.41926e+57
          1866.30940	         5.36137e+57
          1867.11570	         5.96478e+57
          1867.92200	         7.64453e+57
          1868.72830	         7.44463e+57
          1869.53460	         6.78542e+57
          1870.34090	         6.58188e+57
          1871.14720	         7.76798e+57
          1871.95350	         6.45738e+57
          1872.75980	         6.76184e+57
          1873.56610	         6.71141e+57
          1874.37240	         5.64551e+57
          1875.17870	         5.89621e+57
          1875.98500	         6.63088e+57
          1876.79130	         7.36512e+57
          1877.59760	         7.37298e+57
          1878.40390	         6.08628e+57
          1879.21020	         6.38530e+57
          1880.01650	         7.46787e+57
          1880.82280	         8.39122e+57
          1881.62910	         9.47486e+57
          1882.43540	         9.81091e+57
          1883.24170	         7.94678e+57
          1884.04800	         6.87160e+57
          1884.85430	         7.62199e+57
          1885.66060	         8.41056e+57
          1886.46690	         7.87964e+57
          1887.27320	         7.25125e+57
          1888.07950	         6.13024e+57
          1888.88580	         6.47343e+57
          1889.69210	         7.81183e+57
          1890.49840	         7.41024e+57
          1891.30470	         7.93146e+57
          1892.11100	         8.66558e+57
          1892.91730	         9.17724e+57
          1893.72360	         7.11747e+57
          1894.52990	         7.71324e+57
          1895.33620	         8.50730e+57
          1896.14250	         7.09743e+57
          1896.94880	         6.90125e+57
          1897.75510	         5.51565e+57
          1898.56140	         5.03597e+57
          1899.36770	         7.63248e+57
          1900.17400	         6.52697e+57
          1900.98030	         6.45208e+57
          1901.78660	         6.39335e+57
          1902.59290	         7.44535e+57
          1903.39920	         9.01423e+57
          1904.20550	         8.64736e+57
          1905.01180	         8.12317e+57
          1905.81810	         9.52814e+57
          1906.62440	         1.12172e+58
          1907.43070	         1.31616e+58
          1908.23700	         1.59361e+58
          1909.04330	         1.31747e+58
          1909.84960	         1.17129e+58
          1910.65590	         1.01999e+58
          1911.46220	         8.92929e+57
          1912.26850	         7.81361e+57
          1913.07480	         6.89635e+57
          1913.88110	         6.63460e+57
          1914.68740	         5.95524e+57
          1915.49370	         5.43318e+57
          1916.30000	         6.53585e+57
          1917.10630	         7.04956e+57
          1917.91260	         6.28185e+57
          1918.71890	         6.49169e+57
          1919.52520	         6.30135e+57
          1920.33150	         5.90440e+57
          1921.13780	         6.61423e+57
          1921.94410	         7.79765e+57
          1922.75040	         8.32343e+57
          1923.55670	         7.47595e+57
          1924.36300	         6.64538e+57
          1925.16930	         6.49729e+57
          1925.97560	         6.98699e+57
          1926.78190	         4.33170e+57
          1927.58820	         5.63311e+57
          1928.39450	         6.31890e+57
          1929.20080	         4.65382e+57
          1930.00710	         6.42156e+57
          1930.81340	         6.95295e+57
          1931.61970	         6.70917e+57
          1932.42600	         8.18584e+57
          1933.23230	         7.98156e+57
          1934.03860	         6.95501e+57
          1934.84490	         6.31270e+57
          1935.65120	         7.62072e+57
          1936.45750	         9.10164e+57
          1937.26380	         6.93421e+57
          1938.07010	         6.84418e+57
          1938.87640	         7.49011e+57
          1939.68270	         7.45336e+57
          1940.48900	         8.28299e+57
          1941.29530	         7.99232e+57
          1942.10160	         7.23202e+57
          1942.90790	         6.52503e+57
          1943.71420	         5.60748e+57
          1944.52050	         4.30540e+57
          1945.32680	         4.94767e+57
          1946.13310	         7.61695e+57
          1946.93940	         8.57996e+57
          1947.74570	         7.96942e+57
          1948.55200	         6.21926e+57
          1949.35830	         5.91537e+57
          1950.16460	         5.98894e+57
          1950.97090	         6.84613e+57
          1951.77720	         7.47472e+57
          1952.58350	         8.33354e+57
          1953.38980	         6.91468e+57
          1954.19610	         4.35886e+57
          1955.00240	         4.52645e+57
          1955.80870	         5.32096e+57
          1956.61500	         6.19570e+57
          1957.42130	         5.76621e+57
          1958.22760	         7.16321e+57
          1959.03390	         7.11777e+57
          1959.84020	         7.25482e+57
          1960.64650	         6.79289e+57
          1961.45280	         5.82416e+57
          1962.25910	         6.28671e+57
          1963.06540	         5.88697e+57
          1963.87170	         5.76550e+57
          1964.67800	         6.11643e+57
          1965.48430	         6.74964e+57
          1966.29060	         6.65091e+57
          1967.09690	         7.38878e+57
          1967.90320	         7.73373e+57
          1968.70950	         8.27721e+57
          1969.51580	         7.51233e+57
          1970.32210	         8.29264e+57
          1971.12840	         7.73335e+57
          1971.93470	         4.94133e+57
          1972.74100	         4.29471e+57
          1973.54730	         6.29697e+57
          1974.35360	         7.15750e+57
          1975.15990	         7.25823e+57
          1975.96620	         6.52678e+57
          1976.77250	         7.01391e+57
          1977.57880	         6.99708e+57
          1978.38510	         6.49484e+57
          1979.19140	         6.39790e+57
          1979.99770	         7.41955e+57
          1980.80400	         6.66942e+57
          1981.61030	         6.19547e+57
          1982.41660	         6.21174e+57
          1983.22290	         5.82466e+57
          1984.02920	         6.35254e+57
          1984.83550	         6.04008e+57
          1985.64180	         5.82101e+57
          1986.44810	         6.17262e+57
          1987.25440	         5.69536e+57
          1988.06070	         5.36157e+57
          1988.86700	         6.46538e+57
          1989.67330	         6.68656e+57
          1990.47960	         6.71555e+57
          1991.28590	         6.65643e+57
          1992.09220	         6.30648e+57
          1992.89850	         5.07832e+57
          1993.70480	         5.11755e+57
          1994.51110	         4.49475e+57
          1995.31740	         3.41159e+57
          1996.12370	         4.37553e+57
          1996.93000	         6.43074e+57
          1997.73630	         8.66476e+57
          1998.54260	         7.45509e+57
          1999.34890	         7.68334e+57
          2000.15520	         6.18005e+57
          2000.96150	         6.89930e+57
          2001.76780	         7.02146e+57
          2002.57410	         5.61497e+57
          2003.38040	         6.35922e+57
          2004.18670	         7.50706e+57
          2004.99300	         7.50563e+57
          2005.79930	         6.42344e+57
          2006.60560	         5.76162e+57
          2007.41190	         6.52292e+57
          2008.21820	         6.76118e+57
          2009.02450	         7.03250e+57
          2009.83080	         6.64668e+57
          2010.63710	         6.03205e+57
          2011.44340	         6.48849e+57
          2012.24970	         7.53838e+57
          2013.05600	         7.10502e+57
          2013.86230	         5.72223e+57
          2014.66860	         5.75619e+57
          2015.47490	         6.37290e+57
          2016.28120	         5.53676e+57
          2017.08750	         5.11399e+57
          2017.89380	         6.30489e+57
          2018.70010	         5.94504e+57
          2019.50640	         4.99108e+57
          2020.31270	         7.21843e+57
          2021.11900	         7.76999e+57
          2021.92530	         7.21038e+57
          2022.73160	         8.01108e+57
          2023.53790	         6.95717e+57
          2024.34420	         6.99166e+57
          2025.15050	         6.80393e+57
          2025.95680	         6.38481e+57
          2026.76310	         6.19393e+57
          2027.56940	         5.87133e+57
          2028.37570	         6.09823e+57
          2029.18200	         6.43163e+57
          2029.98830	         6.07125e+57
          2030.79460	         5.67167e+57
          2031.60090	         5.73892e+57
          2032.40720	         5.07274e+57
          2033.21350	         5.89250e+57
          2034.01980	         6.11890e+57
          2034.82610	         4.56325e+57
          2035.63240	         5.21993e+57
          2036.43870	         5.04286e+57
          2037.24500	         5.84262e+57
          2038.05130	         7.15120e+57
          2038.85760	         6.41980e+57
          2039.66390	         6.77488e+57
          2040.47020	         5.50250e+57
          2041.27650	         5.78228e+57
          2042.08280	         5.77719e+57
          2042.88910	         6.66435e+57
          2043.69540	         6.88317e+57
          2044.50170	         6.26274e+57
          2045.30800	         5.76491e+57
          2046.11430	         3.78517e+57
          2046.92060	         5.35476e+57
          2047.72690	         7.09640e+57
          2048.53320	         6.85000e+57
          2049.33950	         4.97593e+57
          2050.14580	         5.07115e+57
          2050.95210	         7.74694e+57
          2051.75840	         5.80962e+57
          2052.56470	         5.09722e+57
          2053.37100	         3.60745e+57
          2054.17730	         4.48880e+57
          2054.98360	         6.00228e+57
          2055.78990	         4.49354e+57
          2056.59620	         3.19238e+57
          2057.40250	         5.29343e+57
          2058.20880	         7.61822e+57
          2059.01510	         7.12146e+57
          2059.82140	         6.15621e+57
          2060.62770	         9.96256e+57
          2061.43400	         1.60519e+58
          2062.24030	         1.33862e+58
          2063.04660	         8.69717e+57
          2063.85290	        -5.47301e+55
          2064.65920	        -3.47926e+57
          2065.46550	        -7.66452e+57
          2066.27180	        -7.71577e+57
          2067.07810	         2.22560e+57
          2067.88440	         6.75678e+57
          2068.69070	         6.48774e+57
          2069.49700	         5.38971e+57
          2070.30330	         3.82376e+57
          2071.10960	         5.42242e+57
          2071.91590	         4.32539e+57
          2072.72220	         3.50520e+57
          2073.52850	         5.06390e+57
          2074.33480	         4.26470e+57
          2075.14110	         4.81207e+57
          2075.94740	         5.17150e+57
          2076.75370	         4.70686e+57
          2077.56000	         4.78349e+57
          2078.36630	         5.79975e+57
          2079.17260	         5.61346e+57
          2079.97890	         6.05998e+57
          2080.78520	         5.27414e+57
          2081.59150	         4.94079e+57
          2082.39780	         4.14874e+57
          2083.20410	         2.08850e+57
          2084.01040	         3.25312e+57
          2084.81670	         2.97269e+57
          2085.62300	         2.80688e+57
          2086.42930	         3.52732e+57
          2087.23560	         3.66950e+57
          2088.04190	         4.74125e+57
          2088.84820	         3.58534e+57
          2089.65450	         2.91170e+57
          2090.46080	         2.16552e+57
          2091.26710	         1.52607e+57
          2092.07340	         3.48770e+57
          2092.87970	         3.22234e+57
          2093.68600	         7.01598e+56
          2094.49230	        -1.42939e+57
          2095.29860	         4.57043e+57
          2096.10490	         3.83340e+57
          2096.91120	         1.35871e+57
          2097.71750	         6.20989e+56
          2098.52380	         6.93700e+56
          2099.33010	         2.11483e+57
          2100.13640	         2.54568e+57
          2100.94270	         1.32646e+57
          2101.74900	         1.98473e+57
          2102.55530	         2.39074e+57
          2103.36160	         2.01090e+57
          2104.16790	         1.75228e+57
          2104.97420	         1.57254e+57
          2105.78050	         6.17534e+56
          2106.58680	         9.11655e+56
          2107.39310	        -2.51435e+57
          2108.19940	        -2.15752e+57
          2109.00570	         1.72279e+57
          2109.81200	         2.98606e+57
          2110.61830	         2.95671e+57
          2111.42460	        -9.87080e+56
          2112.23090	         2.52789e+56
          2113.03720	         7.61231e+56
          2113.84350	        -1.43330e+57
          2114.64980	        -2.37872e+57
          2115.45610	        -7.06920e+56
          2116.26240	         3.52782e+55
          2117.06870	        -2.05363e+57
          2117.87500	        -4.69929e+57
          2118.68130	        -3.11790e+57
          2119.48760	         7.71346e+57
          2120.29390	         4.33178e+57
          2121.10020	        -3.48308e+57
          2121.90650	        -8.78616e+56
          2122.71280	        -1.61911e+57
          2123.51910	         3.02745e+57
          2124.32540	         1.40665e+57
          2125.13170	        -1.66265e+57
          2125.93800	        -2.09004e+57
          2126.74430	        -8.29161e+57
          2127.55060	        -4.51370e+57
          2128.35690	        -5.24147e+57
          2129.16320	        -2.85200e+57
          2129.96950	         1.13894e+56
          2130.77580	        -2.22810e+57
          2131.58210	         1.29410e+56
          2132.38840	        -4.94538e+57
          2133.19470	        -1.80939e+57
          2134.00100	         1.98094e+57
          2134.80730	        -3.85620e+57
          2135.61360	         2.99708e+57
          2136.41990	         2.56045e+57
          2137.22620	         3.22706e+57
          2138.03250	        -3.25475e+57
          2138.83880	        -9.25357e+57
          2139.64510	        -4.53679e+57
          2140.45140	        -5.17488e+56
          2141.25770	        -1.54501e+58
          2142.06400	        -9.52696e+57
          2142.87030	         5.75610e+56
          2143.67660	         7.45661e+57
          2144.48290	         1.23684e+58
          2145.28920	         1.26123e+58
          2146.09550	        -9.65744e+57
          2146.90180	        -9.57655e+57
          2147.70810	        -4.90745e+57
          2148.51440	        -2.02713e+57
          2149.32070	        -8.77517e+57
          2150.12700	        -8.80281e+57
          2150.93330	        -2.01557e+57
          2151.73960	         3.38855e+57
          2152.54590	         9.39588e+56
          2153.35220	         2.50850e+57
          2154.15850	        -1.59889e+57
          2154.96480	        -1.13946e+57
          2155.77110	        -1.68950e+57
          2156.57740	        -8.73264e+57
          2157.38370	        -5.25513e+57
          2158.19000	         2.00649e+57
          2158.99630	        -2.21917e+57
          2159.80260	        -1.04609e+58
          2160.60890	        -3.46583e+57
          2161.41520	         2.65050e+56
          2162.22150	        -5.29726e+57
          2163.02780	         3.40730e+57
          2163.83410	        -5.54986e+57
          2164.64040	        -9.85890e+57
          2165.44670	        -1.38890e+58
          2166.25300	        -6.41560e+57
          2167.05930	        -9.85352e+57
          2167.86560	        -2.49489e+56
          2168.67190	         1.35902e+56
          2169.47820	        -3.89124e+57
          2170.28450	        -7.53444e+57
          2171.09080	         9.25960e+57
          2171.89710	        -1.15168e+57
          2172.70340	         6.75035e+57
          2173.50970	        -1.18314e+57
          2174.31600	        -4.52821e+57
          2175.12230	         3.86454e+57
          2175.92860	        -3.04221e+57
          2176.73490	        -4.48158e+57
          2177.54120	        -6.64925e+57
          2178.34750	        -4.02259e+57
          2179.15380	                 nan
          2179.96010	                 nan
          2180.76640	                 nan
          2181.57270	                 nan
          2182.37900	                 nan
          2183.18530	                 nan
          2183.99160	                 nan
          2184.79790	                 nan
          2185.60420	                 nan
          2186.41050	                 nan
          2187.21680	                 nan
          2188.02310	                 nan
          2188.82940	                 nan
          2189.63570	                 nan
          2190.44200	                 nan
          2191.24830	                 nan
          2192.05460	                 nan
          2192.86090	                 nan
          2193.66720	                 nan
          2194.47350	                 nan
          2195.27980	                 nan
          2196.08610	                 nan
          2196.89240	                 nan
          2197.69870	                 nan
          2198.50500	                 nan
          2199.31130	                 nan
          2200.11760	                 nan
          2200.92390	                 nan
          2201.73020	                 nan
          2202.53650	                 nan
          2203.34280	                 nan
          2204.14910	                 nan
          2204.95540	                 nan
          2205.76170	                 nan
          2206.56800	                 nan
          2207.37430	                 nan
          2208.18060	                 nan
          2208.98690	                 nan
          2209.79320	                 nan
          2210.59950	                 nan
          2211.40580	                 nan
          2212.21210	                 nan
          2213.01840	                 nan
          2213.82470	                 nan
          2214.63100	                 nan
          2215.43730	         0.00000e+00
