#sample_392_stacked_spectrum_rest_UV-bands_median_H-alpha_noDC.txt
#median Lum: 1.70162e+42
#Rest-frame wavelength (A) | Luminosity (erg/s/A)
#
          1110.00000	         0.00000e+00
          1110.80630	         1.64053e+59
          1111.61260	         3.43692e+59
          1112.41890	         4.07817e+59
          1113.22520	         3.22813e+59
          1114.03150	        -1.59857e+59
          1114.83780	         1.26433e+59
          1115.64410	         2.67360e+59
          1116.45040	         1.80837e+59
          1117.25670	        -5.28477e+58
          1118.06300	         9.40481e+58
          1118.86930	         1.39980e+58
          1119.67560	         5.76611e+58
          1120.48190	        -1.94827e+58
          1121.28820	        -1.41141e+59
          1122.09450	         3.75656e+58
          1122.90080	         1.25005e+58
          1123.70710	         3.34073e+58
          1124.51340	         9.33045e+58
          1125.31970	         3.43837e+57
          1126.12600	         6.21602e+57
          1126.93230	        -1.23061e+58
          1127.73860	        -4.57850e+58
          1128.54490	        -1.39861e+57
          1129.35120	         1.33645e+58
          1130.15750	         7.26892e+57
          1130.96380	        -4.47602e+58
          1131.77010	         8.58652e+57
          1132.57640	         3.60748e+58
          1133.38270	         3.12498e+58
          1134.18900	         2.69790e+58
          1134.99530	         2.48848e+58
          1135.80160	         2.51450e+58
          1136.60790	         2.79723e+58
          1137.41420	        -8.12355e+57
          1138.22050	         5.30259e+58
          1139.02680	         3.17427e+58
          1139.83310	         3.10864e+58
          1140.63940	         2.23504e+58
          1141.44570	        -1.17154e+58
          1142.25200	        -2.68705e+57
          1143.05830	         2.03729e+58
          1143.86460	         2.44595e+58
          1144.67090	         7.64467e+57
          1145.47720	         1.72449e+57
          1146.28350	         6.19726e+57
          1147.08980	         9.09291e+57
          1147.89610	         1.35181e+58
          1148.70240	         2.14491e+58
          1149.50870	         3.38341e+58
          1150.31500	         2.05565e+58
          1151.12130	         1.09371e+58
          1151.92760	         2.90129e+57
          1152.73390	         5.49503e+57
          1153.54020	         3.83335e+57
          1154.34650	         2.86175e+58
          1155.15280	         3.20581e+58
          1155.95910	         9.28560e+57
          1156.76540	         1.68579e+57
          1157.57170	        -5.54282e+56
          1158.37800	         3.99001e+57
          1159.18430	        -2.14168e+57
          1159.99060	         3.75939e+57
          1160.79690	         5.38945e+57
          1161.60320	         1.18140e+58
          1162.40950	         1.52997e+58
          1163.21580	         1.54659e+58
          1164.02210	         1.59730e+58
          1164.82840	         1.21527e+58
          1165.63470	         1.41190e+58
          1166.44100	         2.16543e+58
          1167.24730	         2.38583e+58
          1168.05360	         8.00945e+57
          1168.85990	         9.01804e+57
          1169.66620	         1.17118e+58
          1170.47250	         6.02869e+57
          1171.27880	         5.43570e+57
          1172.08510	         1.07427e+58
          1172.89140	         1.36964e+58
          1173.69770	         4.74242e+57
          1174.50400	         9.83714e+57
          1175.31030	         1.88434e+58
          1176.11660	         1.95055e+58
          1176.92290	         1.58843e+58
          1177.72920	         1.24934e+58
          1178.53550	         6.20769e+57
          1179.34180	         6.14226e+56
          1180.14810	         7.99140e+57
          1180.95440	         8.26746e+57
          1181.76070	         7.70326e+57
          1182.56700	         7.16598e+57
          1183.37330	         3.79787e+57
          1184.17960	         9.20709e+57
          1184.98590	         1.14739e+58
          1185.79220	         8.52776e+57
          1186.59850	         1.35582e+58
          1187.40480	         1.28097e+58
          1188.21110	         2.00321e+58
          1189.01740	         9.46980e+57
          1189.82370	         1.22939e+58
          1190.63000	         1.50113e+58
          1191.43630	         1.51282e+58
          1192.24260	         1.22024e+58
          1193.04890	         9.77797e+57
          1193.85520	         9.16215e+57
          1194.66150	        -1.75173e+56
          1195.46780	         3.60702e+57
          1196.27410	         1.35819e+58
          1197.08040	         1.10928e+58
          1197.88670	         1.66451e+58
          1198.69300	         1.50337e+58
          1199.49930	         1.33692e+58
          1200.30560	         1.35972e+58
          1201.11190	         1.04028e+58
          1201.91820	         8.90498e+57
          1202.72450	         8.79287e+57
          1203.53080	         1.31460e+58
          1204.33710	         9.90777e+57
          1205.14340	         1.33565e+58
          1205.94970	         9.58384e+57
          1206.75600	         9.93353e+57
          1207.56230	         7.22154e+57
          1208.36860	         7.98893e+57
          1209.17490	         5.49487e+57
          1209.98120	         7.48240e+57
          1210.78750	         1.13699e+58
          1211.59380	         1.48505e+58
          1212.40010	         1.83384e+58
          1213.20640	         2.16394e+58
          1214.01270	         2.17236e+58
          1214.81900	         2.64122e+58
          1215.62530	         4.66148e+58
          1216.43160	         9.41187e+58
          1217.23790	         1.52063e+59
          1218.04420	         1.15197e+59
          1218.85050	         8.80652e+58
          1219.65680	         5.70006e+58
          1220.46310	         3.06086e+58
          1221.26940	         2.34097e+58
          1222.07570	         1.58981e+58
          1222.88200	         1.21626e+58
          1223.68830	         8.69803e+57
          1224.49460	         5.90479e+57
          1225.30090	         8.02583e+57
          1226.10720	         9.11832e+57
          1226.91350	         9.76678e+57
          1227.71980	         1.01559e+58
          1228.52610	         1.06978e+58
          1229.33240	         1.38858e+58
          1230.13870	         1.08203e+58
          1230.94500	         4.77952e+57
          1231.75130	         7.12595e+57
          1232.55760	         8.67579e+57
          1233.36390	         6.89417e+57
          1234.17020	         6.89416e+57
          1234.97650	         7.23011e+57
          1235.78280	         8.84678e+57
          1236.58910	         8.18664e+57
          1237.39540	         1.12320e+58
          1238.20170	         1.16021e+58
          1239.00800	         1.28548e+58
          1239.81430	         1.56156e+58
          1240.62060	         1.13870e+58
          1241.42690	         9.23796e+57
          1242.23320	         1.23790e+58
          1243.03950	         8.88410e+57
          1243.84580	         6.94604e+57
          1244.65210	         9.75788e+57
          1245.45840	         9.87488e+57
          1246.26470	         8.79815e+57
          1247.07100	         6.07397e+57
          1247.87730	         8.81223e+57
          1248.68360	         4.40017e+57
          1249.48990	         5.35091e+57
          1250.29620	         9.44012e+57
          1251.10250	         8.60350e+57
          1251.90880	         6.13592e+57
          1252.71510	         5.99254e+57
          1253.52140	         7.79786e+57
          1254.32770	         1.10916e+58
          1255.13400	         1.17535e+58
          1255.94030	         1.02642e+58
          1256.74660	         1.10837e+58
          1257.55290	         1.07976e+58
          1258.35920	         8.44807e+57
          1259.16550	         6.10874e+57
          1259.97180	         6.23426e+57
          1260.77810	         9.96248e+57
          1261.58440	         1.14513e+58
          1262.39070	         8.85429e+57
          1263.19700	         9.90959e+57
          1264.00330	         1.13854e+58
          1264.80960	         1.21369e+58
          1265.61590	         1.30511e+58
          1266.42220	         1.24603e+58
          1267.22850	         1.17811e+58
          1268.03480	         1.43384e+58
          1268.84110	         1.49477e+58
          1269.64740	         1.46179e+58
          1270.45370	         1.52554e+58
          1271.26000	         1.31017e+58
          1272.06630	         1.41909e+58
          1272.87260	         1.36945e+58
          1273.67890	         1.09991e+58
          1274.48520	         1.10216e+58
          1275.29150	         1.30531e+58
          1276.09780	         1.22491e+58
          1276.90410	         1.65843e+58
          1277.71040	         1.54229e+58
          1278.51670	         1.18098e+58
          1279.32300	         1.40540e+58
          1280.12930	         1.46013e+58
          1280.93560	         1.17098e+58
          1281.74190	         1.09511e+58
          1282.54820	         1.13215e+58
          1283.35450	         9.05971e+57
          1284.16080	         1.11006e+58
          1284.96710	         1.27026e+58
          1285.77340	         1.04582e+58
          1286.57970	         1.34601e+58
          1287.38600	         2.01966e+58
          1288.19230	         1.86157e+58
          1288.99860	         1.39919e+58
          1289.80490	         1.15325e+58
          1290.61120	         1.16856e+58
          1291.41750	         1.29788e+58
          1292.22380	         1.25410e+58
          1293.03010	         1.08705e+58
          1293.83640	         1.03875e+58
          1294.64270	         9.80869e+57
          1295.44900	         7.26742e+57
          1296.25530	         7.54163e+57
          1297.06160	         8.38742e+57
          1297.86790	         9.11245e+57
          1298.67420	         1.00880e+58
          1299.48050	         9.81010e+57
          1300.28680	         1.00696e+58
          1301.09310	         8.12104e+57
          1301.89940	         4.21584e+57
          1302.70570	         5.65580e+57
          1303.51200	         8.01917e+57
          1304.31830	         1.02983e+58
          1305.12460	         1.08568e+58
          1305.93090	         1.04643e+58
          1306.73720	         1.21779e+58
          1307.54350	         1.48808e+58
          1308.34980	         1.52343e+58
          1309.15610	         1.44458e+58
          1309.96240	         1.38322e+58
          1310.76870	         1.18089e+58
          1311.57500	         9.76130e+57
          1312.38130	         1.10476e+58
          1313.18760	         1.41784e+58
          1313.99390	         1.70970e+58
          1314.80020	         1.71534e+58
          1315.60650	         1.47761e+58
          1316.41280	         1.25909e+58
          1317.21910	         1.13323e+58
          1318.02540	         1.26220e+58
          1318.83170	         1.30222e+58
          1319.63800	         1.20637e+58
          1320.44430	         1.02718e+58
          1321.25060	         1.11905e+58
          1322.05690	         1.16759e+58
          1322.86320	         1.15510e+58
          1323.66950	         1.20694e+58
          1324.47580	         9.37136e+57
          1325.28210	         8.41588e+57
          1326.08840	         1.01428e+58
          1326.89470	         1.10906e+58
          1327.70100	         9.14140e+57
          1328.50730	         7.64970e+57
          1329.31360	         1.02689e+58
          1330.11990	         1.09437e+58
          1330.92620	         8.93743e+57
          1331.73250	         1.12297e+58
          1332.53880	         1.14274e+58
          1333.34510	         1.14504e+58
          1334.15140	         9.47443e+57
          1334.95770	         8.18606e+57
          1335.76400	         1.05946e+58
          1336.57030	         1.14811e+58
          1337.37660	         1.00491e+58
          1338.18290	         1.01753e+58
          1338.98920	         1.18878e+58
          1339.79550	         1.22896e+58
          1340.60180	         1.38735e+58
          1341.40810	         1.42798e+58
          1342.21440	         1.15295e+58
          1343.02070	         1.08002e+58
          1343.82700	         1.11868e+58
          1344.63330	         1.14708e+58
          1345.43960	         1.36735e+58
          1346.24590	         1.15004e+58
          1347.05220	         1.40621e+58
          1347.85850	         1.28716e+58
          1348.66480	         9.87947e+57
          1349.47110	         1.14691e+58
          1350.27740	         1.20032e+58
          1351.08370	         1.17083e+58
          1351.89000	         1.16771e+58
          1352.69630	         1.16450e+58
          1353.50260	         1.05084e+58
          1354.30890	         1.09849e+58
          1355.11520	         1.08928e+58
          1355.92150	         1.04720e+58
          1356.72780	         1.03967e+58
          1357.53410	         1.05747e+58
          1358.34040	         1.09850e+58
          1359.14670	         1.05742e+58
          1359.95300	         1.29764e+58
          1360.75930	         1.25320e+58
          1361.56560	         1.05934e+58
          1362.37190	         1.14798e+58
          1363.17820	         1.21388e+58
          1363.98450	         1.16232e+58
          1364.79080	         1.20148e+58
          1365.59710	         1.31170e+58
          1366.40340	         1.13480e+58
          1367.20970	         9.66437e+57
          1368.01600	         8.92534e+57
          1368.82230	         9.55048e+57
          1369.62860	         1.02775e+58
          1370.43490	         1.03286e+58
          1371.24120	         9.94483e+57
          1372.04750	         9.69509e+57
          1372.85380	         1.08635e+58
          1373.66010	         1.13085e+58
          1374.46640	         1.08443e+58
          1375.27270	         1.04688e+58
          1376.07900	         9.40188e+57
          1376.88530	         8.75172e+57
          1377.69160	         7.96301e+57
          1378.49790	         7.36004e+57
          1379.30420	         7.35030e+57
          1380.11050	         9.52739e+57
          1380.91680	         9.45738e+57
          1381.72310	         8.91056e+57
          1382.52940	         8.67361e+57
          1383.33570	         9.91587e+57
          1384.14200	         1.07862e+58
          1384.94830	         9.66479e+57
          1385.75460	         9.52304e+57
          1386.56090	         1.14296e+58
          1387.36720	         1.26467e+58
          1388.17350	         1.20009e+58
          1388.97980	         1.11188e+58
          1389.78610	         9.75638e+57
          1390.59240	         7.07755e+57
          1391.39870	         6.36352e+57
          1392.20500	         7.51855e+57
          1393.01130	         7.48232e+57
          1393.81760	         6.74160e+57
          1394.62390	         6.92032e+57
          1395.43020	         6.88882e+57
          1396.23650	         7.40473e+57
          1397.04280	         7.66152e+57
          1397.84910	         8.48898e+57
          1398.65540	         9.49440e+57
          1399.46170	         1.04239e+58
          1400.26800	         8.21440e+57
          1401.07430	         8.25994e+57
          1401.88060	         9.44518e+57
          1402.68690	         9.37281e+57
          1403.49320	         9.32372e+57
          1404.29950	         1.03141e+58
          1405.10580	         1.15949e+58
          1405.91210	         1.08638e+58
          1406.71840	         9.74519e+57
          1407.52470	         9.58853e+57
          1408.33100	         9.36673e+57
          1409.13730	         1.12351e+58
          1409.94360	         1.15639e+58
          1410.74990	         1.11263e+58
          1411.55620	         1.00542e+58
          1412.36250	         8.93084e+57
          1413.16880	         9.46850e+57
          1413.97510	         8.30461e+57
          1414.78140	         8.37416e+57
          1415.58770	         1.03982e+58
          1416.39400	         9.38771e+57
          1417.20030	         1.07947e+58
          1418.00660	         1.15664e+58
          1418.81290	         1.11157e+58
          1419.61920	         1.19185e+58
          1420.42550	         1.21217e+58
          1421.23180	         1.32156e+58
          1422.03810	         1.20196e+58
          1422.84440	         1.01985e+58
          1423.65070	         1.26321e+58
          1424.45700	         1.06227e+58
          1425.26330	         7.81434e+57
          1426.06960	         8.78769e+57
          1426.87590	         1.09053e+58
          1427.68220	         1.04467e+58
          1428.48850	         1.10161e+58
          1429.29480	         1.04813e+58
          1430.10110	         9.41008e+57
          1430.90740	         8.49618e+57
          1431.71370	         8.78192e+57
          1432.52000	         7.97644e+57
          1433.32630	         7.34683e+57
          1434.13260	         8.62623e+57
          1434.93890	         8.79858e+57
          1435.74520	         9.22017e+57
          1436.55150	         9.44545e+57
          1437.35780	         9.12843e+57
          1438.16410	         9.05635e+57
          1438.97040	         8.91558e+57
          1439.77670	         8.48313e+57
          1440.58300	         8.46366e+57
          1441.38930	         9.85907e+57
          1442.19560	         1.05436e+58
          1443.00190	         9.14791e+57
          1443.80820	         9.58267e+57
          1444.61450	         8.68520e+57
          1445.42080	         9.01742e+57
          1446.22710	         9.62743e+57
          1447.03340	         9.66406e+57
          1447.83970	         1.15694e+58
          1448.64600	         1.13140e+58
          1449.45230	         9.19569e+57
          1450.25860	         9.63919e+57
          1451.06490	         9.28025e+57
          1451.87120	         7.21077e+57
          1452.67750	         7.79713e+57
          1453.48380	         9.50503e+57
          1454.29010	         7.41530e+57
          1455.09640	         7.43314e+57
          1455.90270	         9.36517e+57
          1456.70900	         8.83924e+57
          1457.51530	         9.89886e+57
          1458.32160	         1.17902e+58
          1459.12790	         1.12049e+58
          1459.93420	         1.07510e+58
          1460.74050	         8.47273e+57
          1461.54680	         7.89630e+57
          1462.35310	         8.59472e+57
          1463.15940	         8.99669e+57
          1463.96570	         9.90953e+57
          1464.77200	         1.17940e+58
          1465.57830	         1.04547e+58
          1466.38460	         8.42473e+57
          1467.19090	         7.47419e+57
          1467.99720	         8.58360e+57
          1468.80350	         9.76708e+57
          1469.60980	         9.59698e+57
          1470.41610	         1.09188e+58
          1471.22240	         9.85270e+57
          1472.02870	         1.02247e+58
          1472.83500	         1.00607e+58
          1473.64130	         9.88248e+57
          1474.44760	         9.58286e+57
          1475.25390	         8.92305e+57
          1476.06020	         8.98628e+57
          1476.86650	         9.08884e+57
          1477.67280	         7.79286e+57
          1478.47910	         7.48146e+57
          1479.28540	         7.04142e+57
          1480.09170	         8.09113e+57
          1480.89800	         9.51132e+57
          1481.70430	         9.49406e+57
          1482.51060	         9.11715e+57
          1483.31690	         7.38207e+57
          1484.12320	         7.46044e+57
          1484.92950	         7.89654e+57
          1485.73580	         8.45399e+57
          1486.54210	         8.91379e+57
          1487.34840	         8.04214e+57
          1488.15470	         7.80941e+57
          1488.96100	         9.30722e+57
          1489.76730	         9.33815e+57
          1490.57360	         8.31861e+57
          1491.37990	         7.85169e+57
          1492.18620	         7.82599e+57
          1492.99250	         7.45048e+57
          1493.79880	         7.33645e+57
          1494.60510	         6.92845e+57
          1495.41140	         7.31633e+57
          1496.21770	         9.26392e+57
          1497.02400	         1.00279e+58
          1497.83030	         8.27027e+57
          1498.63660	         6.06315e+57
          1499.44290	         6.32830e+57
          1500.24920	         6.88046e+57
          1501.05550	         7.70203e+57
          1501.86180	         8.94161e+57
          1502.66810	         9.84434e+57
          1503.47440	         8.92871e+57
          1504.28070	         8.85611e+57
          1505.08700	         9.55752e+57
          1505.89330	         9.72837e+57
          1506.69960	         8.14993e+57
          1507.50590	         7.45920e+57
          1508.31220	         8.54755e+57
          1509.11850	         9.30734e+57
          1509.92480	         9.06268e+57
          1510.73110	         8.76297e+57
          1511.53740	         7.16820e+57
          1512.34370	         7.06255e+57
          1513.15000	         8.24426e+57
          1513.95630	         9.06705e+57
          1514.76260	         9.35524e+57
          1515.56890	         7.64966e+57
          1516.37520	         7.43714e+57
          1517.18150	         7.31522e+57
          1517.98780	         7.23879e+57
          1518.79410	         6.96133e+57
          1519.60040	         7.37473e+57
          1520.40670	         8.51050e+57
          1521.21300	         8.26792e+57
          1522.01930	         7.62520e+57
          1522.82560	         9.18652e+57
          1523.63190	         1.06199e+58
          1524.43820	         8.73798e+57
          1525.24450	         6.59554e+57
          1526.05080	         6.67436e+57
          1526.85710	         6.39701e+57
          1527.66340	         6.81501e+57
          1528.46970	         8.09931e+57
          1529.27600	         8.26794e+57
          1530.08230	         7.83565e+57
          1530.88860	         8.26484e+57
          1531.69490	         8.57464e+57
          1532.50120	         9.29052e+57
          1533.30750	         1.01645e+58
          1534.11380	         1.02537e+58
          1534.92010	         9.31156e+57
          1535.72640	         8.67617e+57
          1536.53270	         9.56808e+57
          1537.33900	         9.20957e+57
          1538.14530	         8.89412e+57
          1538.95160	         9.13654e+57
          1539.75790	         8.08675e+57
          1540.56420	         8.06545e+57
          1541.37050	         9.09983e+57
          1542.17680	         7.68355e+57
          1542.98310	         8.25994e+57
          1543.78940	         8.94063e+57
          1544.59570	         7.86975e+57
          1545.40200	         8.69020e+57
          1546.20830	         9.39214e+57
          1547.01460	         1.00362e+58
          1547.82090	         1.04744e+58
          1548.62720	         1.22029e+58
          1549.43350	         1.10932e+58
          1550.23980	         1.10731e+58
          1551.04610	         1.31712e+58
          1551.85240	         1.22449e+58
          1552.65870	         1.15213e+58
          1553.46500	         1.02808e+58
          1554.27130	         9.45015e+57
          1555.07760	         9.37072e+57
          1555.88390	         8.94588e+57
          1556.69020	         9.19297e+57
          1557.49650	         8.61243e+57
          1558.30280	         8.10499e+57
          1559.10910	         8.14482e+57
          1559.91540	         8.63749e+57
          1560.72170	         8.76080e+57
          1561.52800	         8.04848e+57
          1562.33430	         8.56776e+57
          1563.14060	         7.94420e+57
          1563.94690	         7.97303e+57
          1564.75320	         7.55629e+57
          1565.55950	         6.21137e+57
          1566.36580	         7.50714e+57
          1567.17210	         9.71917e+57
          1567.97840	         8.81256e+57
          1568.78470	         7.89851e+57
          1569.59100	         8.09131e+57
          1570.39730	         7.62895e+57
          1571.20360	         7.41675e+57
          1572.00990	         7.99185e+57
          1572.81620	         9.43137e+57
          1573.62250	         1.07504e+58
          1574.42880	         9.44526e+57
          1575.23510	         7.96413e+57
          1576.04140	         8.57228e+57
          1576.84770	         8.81091e+57
          1577.65400	         9.29906e+57
          1578.46030	         9.57460e+57
          1579.26660	         9.77843e+57
          1580.07290	         8.75116e+57
          1580.87920	         7.59278e+57
          1581.68550	         7.12695e+57
          1582.49180	         7.66808e+57
          1583.29810	         8.35517e+57
          1584.10440	         8.50178e+57
          1584.91070	         8.42669e+57
          1585.71700	         8.73709e+57
          1586.52330	         8.14264e+57
          1587.32960	         8.67562e+57
          1588.13590	         8.58142e+57
          1588.94220	         8.41832e+57
          1589.74850	         9.07285e+57
          1590.55480	         8.86818e+57
          1591.36110	         8.20693e+57
          1592.16740	         8.34133e+57
          1592.97370	         7.96020e+57
          1593.78000	         8.63096e+57
          1594.58630	         9.03045e+57
          1595.39260	         7.90514e+57
          1596.19890	         8.68942e+57
          1597.00520	         1.03262e+58
          1597.81150	         1.01262e+58
          1598.61780	         8.27062e+57
          1599.42410	         7.10638e+57
          1600.23040	         7.66584e+57
          1601.03670	         7.53155e+57
          1601.84300	         6.71505e+57
          1602.64930	         7.10608e+57
          1603.45560	         8.44354e+57
          1604.26190	         8.32580e+57
          1605.06820	         7.56533e+57
          1605.87450	         7.40952e+57
          1606.68080	         7.10509e+57
          1607.48710	         5.70518e+57
          1608.29340	         5.95660e+57
          1609.09970	         6.76876e+57
          1609.90600	         6.80895e+57
          1610.71230	         6.54073e+57
          1611.51860	         6.29359e+57
          1612.32490	         6.55692e+57
          1613.13120	         7.86842e+57
          1613.93750	         8.70323e+57
          1614.74380	         9.61940e+57
          1615.55010	         1.00452e+58
          1616.35640	         8.67748e+57
          1617.16270	         9.25142e+57
          1617.96900	         1.02601e+58
          1618.77530	         9.49329e+57
          1619.58160	         8.30916e+57
          1620.38790	         7.47847e+57
          1621.19420	         8.36786e+57
          1622.00050	         8.02286e+57
          1622.80680	         9.74547e+57
          1623.61310	         9.18050e+57
          1624.41940	         8.13297e+57
          1625.22570	         8.65942e+57
          1626.03200	         8.40657e+57
          1626.83830	         7.80437e+57
          1627.64460	         6.73846e+57
          1628.45090	         6.35819e+57
          1629.25720	         8.97637e+57
          1630.06350	         9.86534e+57
          1630.86980	         7.22736e+57
          1631.67610	         8.42668e+57
          1632.48240	         8.99331e+57
          1633.28870	         7.98472e+57
          1634.09500	         9.59991e+57
          1634.90130	         1.11133e+58
          1635.70760	         8.95562e+57
          1636.51390	         8.17718e+57
          1637.32020	         7.47283e+57
          1638.12650	         8.56987e+57
          1638.93280	         9.79706e+57
          1639.73910	         1.11056e+58
          1640.54540	         1.08926e+58
          1641.35170	         9.64608e+57
          1642.15800	         9.39518e+57
          1642.96430	         8.30393e+57
          1643.77060	         8.44782e+57
          1644.57690	         8.10332e+57
          1645.38320	         7.80109e+57
          1646.18950	         7.00774e+57
          1646.99580	         9.34422e+57
          1647.80210	         8.56136e+57
          1648.60840	         7.10601e+57
          1649.41470	         7.90024e+57
          1650.22100	         6.68194e+57
          1651.02730	         7.14677e+57
          1651.83360	         6.98823e+57
          1652.63990	         7.59584e+57
          1653.44620	         9.32053e+57
          1654.25250	         8.70010e+57
          1655.05880	         6.84709e+57
          1655.86510	         7.96752e+57
          1656.67140	         9.05368e+57
          1657.47770	         8.47661e+57
          1658.28400	         7.71740e+57
          1659.09030	         7.77926e+57
          1659.89660	         8.84601e+57
          1660.70290	         8.81631e+57
          1661.50920	         7.88976e+57
          1662.31550	         7.70654e+57
          1663.12180	         8.92855e+57
          1663.92810	         1.06323e+58
          1664.73440	         1.07415e+58
          1665.54070	         1.12580e+58
          1666.34700	         1.21172e+58
          1667.15330	         1.11148e+58
          1667.95960	         8.66996e+57
          1668.76590	         7.02539e+57
          1669.57220	         6.35284e+57
          1670.37850	         6.81541e+57
          1671.18480	         8.06536e+57
          1671.99110	         7.60776e+57
          1672.79740	         6.90143e+57
          1673.60370	         6.61446e+57
          1674.41000	         6.86303e+57
          1675.21630	         6.58701e+57
          1676.02260	         6.45702e+57
          1676.82890	         6.48870e+57
          1677.63520	         6.35206e+57
          1678.44150	         7.16494e+57
          1679.24780	         7.67980e+57
          1680.05410	         8.10079e+57
          1680.86040	         7.49884e+57
          1681.66670	         7.85058e+57
          1682.47300	         9.07651e+57
          1683.27930	         8.31424e+57
          1684.08560	         7.82122e+57
          1684.89190	         8.08512e+57
          1685.69820	         5.11884e+57
          1686.50450	         4.87248e+57
          1687.31080	         6.15707e+57
          1688.11710	         7.62736e+57
          1688.92340	         6.74444e+57
          1689.72970	         6.40576e+57
          1690.53600	         5.85872e+57
          1691.34230	         5.92124e+57
          1692.14860	         7.37420e+57
          1692.95490	         8.26261e+57
          1693.76120	         8.23762e+57
          1694.56750	         7.89787e+57
          1695.37380	         8.84387e+57
          1696.18010	         9.16794e+57
          1696.98640	         8.79356e+57
          1697.79270	         7.86504e+57
          1698.59900	         8.61072e+57
          1699.40530	         7.54903e+57
          1700.21160	         7.24397e+57
          1701.01790	         8.31321e+57
          1701.82420	         6.93154e+57
          1702.63050	         6.78649e+57
          1703.43680	         7.98254e+57
          1704.24310	         8.47738e+57
          1705.04940	         7.32452e+57
          1705.85570	         6.96594e+57
          1706.66200	         7.98622e+57
          1707.46830	         8.51549e+57
          1708.27460	         7.93933e+57
          1709.08090	         6.86852e+57
          1709.88720	         6.42861e+57
          1710.69350	         5.91772e+57
          1711.49980	         6.33861e+57
          1712.30610	         6.90130e+57
          1713.11240	         8.02272e+57
          1713.91870	         7.54969e+57
          1714.72500	         7.65518e+57
          1715.53130	         9.01881e+57
          1716.33760	         8.15634e+57
          1717.14390	         7.78807e+57
          1717.95020	         8.79241e+57
          1718.75650	         9.15449e+57
          1719.56280	         8.16795e+57
          1720.36910	         6.95024e+57
          1721.17540	         7.90809e+57
          1721.98170	         6.26966e+57
          1722.78800	         6.06730e+57
          1723.59430	         6.95568e+57
          1724.40060	         7.71385e+57
          1725.20690	         7.78906e+57
          1726.01320	         7.97300e+57
          1726.81950	         7.63632e+57
          1727.62580	         7.30903e+57
          1728.43210	         6.61560e+57
          1729.23840	         7.13826e+57
          1730.04470	         8.02018e+57
          1730.85100	         8.85766e+57
          1731.65730	         9.08258e+57
          1732.46360	         8.05021e+57
          1733.26990	         6.67571e+57
          1734.07620	         7.22696e+57
          1734.88250	         8.03709e+57
          1735.68880	         8.23575e+57
          1736.49510	         8.50747e+57
          1737.30140	         7.96400e+57
          1738.10770	         6.39322e+57
          1738.91400	         7.75942e+57
          1739.72030	         7.61479e+57
          1740.52660	         6.49204e+57
          1741.33290	         5.71978e+57
          1742.13920	         4.97220e+57
          1742.94550	         5.80962e+57
          1743.75180	         6.40461e+57
          1744.55810	         7.72066e+57
          1745.36440	         7.19326e+57
          1746.17070	         4.83460e+57
          1746.97700	         5.23755e+57
          1747.78330	         7.20049e+57
          1748.58960	         6.85646e+57
          1749.39590	         6.50066e+57
          1750.20220	         6.59617e+57
          1751.00850	         6.07393e+57
          1751.81480	         6.27995e+57
          1752.62110	         6.91325e+57
          1753.42740	         6.89079e+57
          1754.23370	         5.76832e+57
          1755.04000	         6.03449e+57
          1755.84630	         7.21570e+57
          1756.65260	         7.78015e+57
          1757.45890	         8.25424e+57
          1758.26520	         8.26660e+57
          1759.07150	         8.45829e+57
          1759.87780	         6.76334e+57
          1760.68410	         7.13547e+57
          1761.49040	         8.33713e+57
          1762.29670	         6.86607e+57
          1763.10300	         6.61650e+57
          1763.90930	         7.81779e+57
          1764.71560	         7.84621e+57
          1765.52190	         7.95422e+57
          1766.32820	         9.10367e+57
          1767.13450	         8.84477e+57
          1767.94080	         6.59131e+57
          1768.74710	         6.32805e+57
          1769.55340	         7.44481e+57
          1770.35970	         7.12234e+57
          1771.16600	         7.53137e+57
          1771.97230	         8.38346e+57
          1772.77860	         8.12235e+57
          1773.58490	         7.03832e+57
          1774.39120	         6.05730e+57
          1775.19750	         5.85207e+57
          1776.00380	         6.50839e+57
          1776.81010	         6.68235e+57
          1777.61640	         7.03274e+57
          1778.42270	         7.55770e+57
          1779.22900	         7.15265e+57
          1780.03530	         6.70095e+57
          1780.84160	         7.87065e+57
          1781.64790	         8.21893e+57
          1782.45420	         6.97294e+57
          1783.26050	         6.77932e+57
          1784.06680	         6.47842e+57
          1784.87310	         6.54083e+57
          1785.67940	         7.69604e+57
          1786.48570	         7.64391e+57
          1787.29200	         6.33859e+57
          1788.09830	         7.01030e+57
          1788.90460	         5.91818e+57
          1789.71090	         5.38044e+57
          1790.51720	         5.26194e+57
          1791.32350	         6.84782e+57
          1792.12980	         7.93257e+57
          1792.93610	         7.03115e+57
          1793.74240	         7.27223e+57
          1794.54870	         7.65705e+57
          1795.35500	         7.99538e+57
          1796.16130	         7.28246e+57
          1796.96760	         7.11366e+57
          1797.77390	         7.32947e+57
          1798.58020	         6.83358e+57
          1799.38650	         6.36214e+57
          1800.19280	         6.52805e+57
          1800.99910	         7.37658e+57
          1801.80540	         7.80768e+57
          1802.61170	         9.11582e+57
          1803.41800	         8.91875e+57
          1804.22430	         7.62393e+57
          1805.03060	         7.88947e+57
          1805.83690	         8.72667e+57
          1806.64320	         7.77828e+57
          1807.44950	         7.72668e+57
          1808.25580	         7.07490e+57
          1809.06210	         7.68699e+57
          1809.86840	         7.75778e+57
          1810.67470	         8.28602e+57
          1811.48100	         9.16676e+57
          1812.28730	         8.71364e+57
          1813.09360	         8.59634e+57
          1813.89990	         8.37688e+57
          1814.70620	         7.44521e+57
          1815.51250	         7.69178e+57
          1816.31880	         7.92652e+57
          1817.12510	         7.39862e+57
          1817.93140	         7.09336e+57
          1818.73770	         6.94316e+57
          1819.54400	         8.65792e+57
          1820.35030	         8.63323e+57
          1821.15660	         6.36572e+57
          1821.96290	         6.20904e+57
          1822.76920	         7.27238e+57
          1823.57550	         7.03493e+57
          1824.38180	         7.38885e+57
          1825.18810	         8.08087e+57
          1825.99440	         7.53560e+57
          1826.80070	         7.61005e+57
          1827.60700	         5.78453e+57
          1828.41330	         5.07016e+57
          1829.21960	         6.58504e+57
          1830.02590	         7.63834e+57
          1830.83220	         8.21064e+57
          1831.63850	         8.71593e+57
          1832.44480	         7.62623e+57
          1833.25110	         8.37733e+57
          1834.05740	         8.89344e+57
          1834.86370	         6.60088e+57
          1835.67000	         5.16970e+57
          1836.47630	         7.00103e+57
          1837.28260	         9.16626e+57
          1838.08890	         8.39789e+57
          1838.89520	         7.58949e+57
          1839.70150	         7.65118e+57
          1840.50780	         7.24594e+57
          1841.31410	         7.45613e+57
          1842.12040	         7.42532e+57
          1842.92670	         7.49799e+57
          1843.73300	         7.79343e+57
          1844.53930	         6.18870e+57
          1845.34560	         5.59640e+57
          1846.15190	         7.21244e+57
          1846.95820	         6.66458e+57
          1847.76450	         6.45564e+57
          1848.57080	         5.36131e+57
          1849.37710	         5.61216e+57
          1850.18340	         8.02156e+57
          1850.98970	         8.60057e+57
          1851.79600	         7.02135e+57
          1852.60230	         6.74578e+57
          1853.40860	         6.44200e+57
          1854.21490	         7.07727e+57
          1855.02120	         7.04410e+57
          1855.82750	         4.69230e+57
          1856.63380	         5.83941e+57
          1857.44010	         6.39872e+57
          1858.24640	         7.47500e+57
          1859.05270	         7.60957e+57
          1859.85900	         5.29802e+57
          1860.66530	         5.41275e+57
          1861.47160	         7.15349e+57
          1862.27790	         7.36344e+57
          1863.08420	         7.05364e+57
          1863.89050	         7.62836e+57
          1864.69680	         7.04987e+57
          1865.50310	         7.18779e+57
          1866.30940	         5.97254e+57
          1867.11570	         5.42958e+57
          1867.92200	         6.87276e+57
          1868.72830	         7.56225e+57
          1869.53460	         7.00385e+57
          1870.34090	         7.49170e+57
          1871.14720	         8.05754e+57
          1871.95350	         7.01160e+57
          1872.75980	         7.30416e+57
          1873.56610	         7.21269e+57
          1874.37240	         5.74786e+57
          1875.17870	         6.33782e+57
          1875.98500	         7.32960e+57
          1876.79130	         7.78380e+57
          1877.59760	         6.64839e+57
          1878.40390	         5.63172e+57
          1879.21020	         5.60471e+57
          1880.01650	         6.71958e+57
          1880.82280	         8.21444e+57
          1881.62910	         7.55608e+57
          1882.43540	         9.61753e+57
          1883.24170	         7.69785e+57
          1884.04800	         7.30820e+57
          1884.85430	         7.63535e+57
          1885.66060	         9.09033e+57
          1886.46690	         8.98401e+57
          1887.27320	         7.61806e+57
          1888.07950	         5.39963e+57
          1888.88580	         5.74376e+57
          1889.69210	         7.82672e+57
          1890.49840	         8.07502e+57
          1891.30470	         8.66837e+57
          1892.11100	         8.72889e+57
          1892.91730	         7.05064e+57
          1893.72360	         6.75965e+57
          1894.52990	         7.04399e+57
          1895.33620	         9.08782e+57
          1896.14250	         8.18353e+57
          1896.94880	         6.92175e+57
          1897.75510	         5.81793e+57
          1898.56140	         6.59743e+57
          1899.36770	         8.08894e+57
          1900.17400	         6.03650e+57
          1900.98030	         5.66340e+57
          1901.78660	         7.35572e+57
          1902.59290	         7.52654e+57
          1903.39920	         9.15494e+57
          1904.20550	         9.79376e+57
          1905.01180	         9.53479e+57
          1905.81810	         1.02346e+58
          1906.62440	         1.23946e+58
          1907.43070	         1.51571e+58
          1908.23700	         1.49603e+58
          1909.04330	         1.21594e+58
          1909.84960	         1.02884e+58
          1910.65590	         1.03419e+58
          1911.46220	         9.93311e+57
          1912.26850	         8.62274e+57
          1913.07480	         6.55042e+57
          1913.88110	         5.81302e+57
          1914.68740	         5.62032e+57
          1915.49370	         6.12316e+57
          1916.30000	         6.60904e+57
          1917.10630	         6.98374e+57
          1917.91260	         6.58532e+57
          1918.71890	         6.27325e+57
          1919.52520	         6.58526e+57
          1920.33150	         5.78257e+57
          1921.13780	         7.11542e+57
          1921.94410	         8.32131e+57
          1922.75040	         7.81802e+57
          1923.55670	         8.23916e+57
          1924.36300	         7.30795e+57
          1925.16930	         6.39794e+57
          1925.97560	         5.22849e+57
          1926.78190	         4.85292e+57
          1927.58820	         6.31465e+57
          1928.39450	         6.36971e+57
          1929.20080	         5.51025e+57
          1930.00710	         6.26386e+57
          1930.81340	         7.26324e+57
          1931.61970	         7.75613e+57
          1932.42600	         7.27578e+57
          1933.23230	         8.13063e+57
          1934.03860	         7.00257e+57
          1934.84490	         6.23634e+57
          1935.65120	         8.31908e+57
          1936.45750	         9.07859e+57
          1937.26380	         6.84884e+57
          1938.07010	         7.61329e+57
          1938.87640	         7.73007e+57
          1939.68270	         8.90104e+57
          1940.48900	         9.10870e+57
          1941.29530	         7.68933e+57
          1942.10160	         7.27279e+57
          1942.90790	         7.12870e+57
          1943.71420	         6.40574e+57
          1944.52050	         6.40478e+57
          1945.32680	         5.25543e+57
          1946.13310	         6.96929e+57
          1946.93940	         8.98357e+57
          1947.74570	         7.76389e+57
          1948.55200	         6.16960e+57
          1949.35830	         6.58700e+57
          1950.16460	         6.70154e+57
          1950.97090	         6.89816e+57
          1951.77720	         7.41198e+57
          1952.58350	         7.17197e+57
          1953.38980	         7.01273e+57
          1954.19610	         5.61647e+57
          1955.00240	         4.79802e+57
          1955.80870	         6.37860e+57
          1956.61500	         5.67244e+57
          1957.42130	         5.47538e+57
          1958.22760	         6.82472e+57
          1959.03390	         7.40052e+57
          1959.84020	         6.95075e+57
          1960.64650	         6.68207e+57
          1961.45280	         6.00807e+57
          1962.25910	         6.54694e+57
          1963.06540	         7.07811e+57
          1963.87170	         7.60724e+57
          1964.67800	         6.52871e+57
          1965.48430	         5.39381e+57
          1966.29060	         6.04084e+57
          1967.09690	         8.26399e+57
          1967.90320	         7.16684e+57
          1968.70950	         6.67562e+57
          1969.51580	         5.63503e+57
          1970.32210	         7.10421e+57
          1971.12840	         6.87390e+57
          1971.93470	         4.90452e+57
          1972.74100	         5.04503e+57
          1973.54730	         6.89526e+57
          1974.35360	         6.79421e+57
          1975.15990	         7.35781e+57
          1975.96620	         6.89006e+57
          1976.77250	         8.45658e+57
          1977.57880	         8.82142e+57
          1978.38510	         6.48743e+57
          1979.19140	         7.51009e+57
          1979.99770	         7.59705e+57
          1980.80400	         7.39790e+57
          1981.61030	         7.04520e+57
          1982.41660	         5.97716e+57
          1983.22290	         6.13553e+57
          1984.02920	         6.12162e+57
          1984.83550	         6.34505e+57
          1985.64180	         7.28373e+57
          1986.44810	         6.92141e+57
          1987.25440	         5.75989e+57
          1988.06070	         6.09908e+57
          1988.86700	         6.15703e+57
          1989.67330	         7.07542e+57
          1990.47960	         6.70502e+57
          1991.28590	         5.93360e+57
          1992.09220	         5.17272e+57
          1992.89850	         5.45365e+57
          1993.70480	         5.89558e+57
          1994.51110	         3.98004e+57
          1995.31740	         4.70619e+57
          1996.12370	         5.88711e+57
          1996.93000	         6.22023e+57
          1997.73630	         7.43845e+57
          1998.54260	         7.16318e+57
          1999.34890	         6.51599e+57
          2000.15520	         6.57502e+57
          2000.96150	         7.27115e+57
          2001.76780	         4.87704e+57
          2002.57410	         3.82428e+57
          2003.38040	         6.79804e+57
          2004.18670	         6.28924e+57
          2004.99300	         5.07540e+57
          2005.79930	         6.76016e+57
          2006.60560	         7.08848e+57
          2007.41190	         5.57342e+57
          2008.21820	         5.68825e+57
          2009.02450	         6.40729e+57
          2009.83080	         5.58550e+57
          2010.63710	         5.87442e+57
          2011.44340	         6.84224e+57
          2012.24970	         7.22582e+57
          2013.05600	         6.33150e+57
          2013.86230	         5.10810e+57
          2014.66860	         5.62120e+57
          2015.47490	         6.65919e+57
          2016.28120	         5.66858e+57
          2017.08750	         6.05185e+57
          2017.89380	         6.27990e+57
          2018.70010	         6.41460e+57
          2019.50640	         6.28234e+57
          2020.31270	         6.38348e+57
          2021.11900	         6.98165e+57
          2021.92530	         7.72722e+57
          2022.73160	         7.88941e+57
          2023.53790	         7.33441e+57
          2024.34420	         6.79875e+57
          2025.15050	         6.00749e+57
          2025.95680	         6.29951e+57
          2026.76310	         5.84624e+57
          2027.56940	         4.81290e+57
          2028.37570	         5.27969e+57
          2029.18200	         5.70517e+57
          2029.98830	         5.94873e+57
          2030.79460	         5.85253e+57
          2031.60090	         6.53189e+57
          2032.40720	         5.95306e+57
          2033.21350	         5.58773e+57
          2034.01980	         5.87390e+57
          2034.82610	         5.59589e+57
          2035.63240	         5.50722e+57
          2036.43870	         5.68222e+57
          2037.24500	         6.30345e+57
          2038.05130	         7.31475e+57
          2038.85760	         7.36508e+57
          2039.66390	         6.42592e+57
          2040.47020	         5.44239e+57
          2041.27650	         6.28200e+57
          2042.08280	         5.11261e+57
          2042.88910	         5.33057e+57
          2043.69540	         6.38624e+57
          2044.50170	         6.15211e+57
          2045.30800	         4.19346e+57
          2046.11430	         4.25308e+57
          2046.92060	         5.82351e+57
          2047.72690	         5.94228e+57
          2048.53320	         4.23897e+57
          2049.33950	         3.30606e+57
          2050.14580	         4.85358e+57
          2050.95210	         6.97885e+57
          2051.75840	         7.67238e+57
          2052.56470	         5.56772e+57
          2053.37100	         3.59112e+57
          2054.17730	         4.60307e+57
          2054.98360	         4.76069e+57
          2055.78990	         3.40105e+57
          2056.59620	         3.28618e+57
          2057.40250	         5.67419e+57
          2058.20880	         7.46387e+57
          2059.01510	         6.69591e+57
          2059.82140	         6.09185e+57
          2060.62770	         9.10484e+57
          2061.43400	         1.60401e+58
          2062.24030	         1.29787e+58
          2063.04660	         4.49356e+57
          2063.85290	         2.08777e+57
          2064.65920	        -1.83121e+57
          2065.46550	        -8.07415e+57
          2066.27180	        -9.23528e+57
          2067.07810	         1.79537e+57
          2067.88440	         4.66567e+57
          2068.69070	         6.61529e+57
          2069.49700	         4.99565e+57
          2070.30330	         3.85752e+57
          2071.10960	         4.81660e+57
          2071.91590	         5.11818e+57
          2072.72220	         4.10268e+57
          2073.52850	         4.42734e+57
          2074.33480	         5.79698e+57
          2075.14110	         5.54981e+57
          2075.94740	         4.65808e+57
          2076.75370	         5.63633e+57
          2077.56000	         5.97277e+57
          2078.36630	         6.07235e+57
          2079.17260	         5.29369e+57
          2079.97890	         5.02912e+57
          2080.78520	         4.52550e+57
          2081.59150	         4.65895e+57
          2082.39780	         3.40279e+57
          2083.20410	         1.59282e+57
          2084.01040	         1.99887e+57
          2084.81670	         4.96997e+57
          2085.62300	         4.11741e+57
          2086.42930	         3.57192e+57
          2087.23560	         4.12183e+57
          2088.04190	         4.99850e+57
          2088.84820	         4.06734e+57
          2089.65450	         2.99142e+57
          2090.46080	         1.76246e+57
          2091.26710	         2.75783e+57
          2092.07340	         1.01604e+57
          2092.87970	         2.68131e+57
          2093.68600	        -5.28047e+56
          2094.49230	         2.68682e+57
          2095.29860	         3.82128e+57
          2096.10490	         2.35668e+57
          2096.91120	         3.43302e+57
          2097.71750	        -8.78709e+56
          2098.52380	         1.99094e+56
          2099.33010	         4.95663e+56
          2100.13640	         9.78398e+56
          2100.94270	         2.00935e+57
          2101.74900	         3.87966e+57
          2102.55530	         3.82246e+57
          2103.36160	         3.75036e+57
          2104.16790	         3.07260e+57
          2104.97420	         1.09370e+57
          2105.78050	         1.62555e+57
          2106.58680	         2.47307e+57
          2107.39310	        -2.56694e+55
          2108.19940	         2.33402e+57
          2109.00570	         3.42584e+57
          2109.81200	         1.53185e+57
          2110.61830	         2.41578e+57
          2111.42460	         1.34685e+57
          2112.23090	         7.20747e+56
          2113.03720	        -1.20814e+57
          2113.84350	        -7.65042e+56
          2114.64980	         3.75842e+57
          2115.45610	         1.41811e+56
          2116.26240	        -2.27811e+57
          2117.06870	        -2.30839e+56
          2117.87500	        -1.44666e+57
          2118.68130	        -1.87996e+57
          2119.48760	         1.11632e+57
          2120.29390	         5.24328e+57
          2121.10020	         3.50486e+56
          2121.90650	         9.55255e+56
          2122.71280	         2.13817e+57
          2123.51910	         5.17169e+57
          2124.32540	        -7.32173e+56
          2125.13170	        -6.51507e+56
          2125.93800	         2.11878e+57
          2126.74430	        -2.12171e+57
          2127.55060	        -9.12936e+57
          2128.35690	        -1.78111e+57
          2129.16320	        -4.63821e+57
          2129.96950	        -5.99437e+56
          2130.77580	        -2.08028e+57
          2131.58210	         1.93175e+57
          2132.38840	        -1.06053e+57
          2133.19470	        -3.22482e+57
          2134.00100	        -1.91278e+57
          2134.80730	        -5.71211e+57
          2135.61360	         8.90527e+57
          2136.41990	         3.31779e+57
          2137.22620	         1.27134e+58
          2138.03250	         3.42176e+57
          2138.83880	         1.19596e+57
          2139.64510	        -1.37909e+57
          2140.45140	        -9.04611e+57
          2141.25770	        -1.46225e+58
          2142.06400	        -5.97755e+57
          2142.87030	         1.15519e+57
          2143.67660	         1.30390e+58
          2144.48290	         1.06669e+58
          2145.28920	         1.40789e+58
          2146.09550	        -2.77641e+56
          2146.90180	        -1.19794e+58
          2147.70810	        -1.34555e+57
          2148.51440	        -3.45853e+57
          2149.32070	        -6.44642e+57
          2150.12700	        -8.36368e+57
          2150.93330	        -1.22426e+58
          2151.73960	        -2.81640e+55
          2152.54590	        -1.79320e+57
          2153.35220	         1.08066e+56
          2154.15850	        -8.76212e+56
          2154.96480	        -3.98669e+56
          2155.77110	        -9.82309e+57
          2156.57740	        -8.06140e+57
          2157.38370	         5.33170e+57
          2158.19000	         4.68218e+57
          2158.99630	        -2.47063e+57
          2159.80260	        -1.74510e+58
          2160.60890	        -6.46137e+57
          2161.41520	         3.07682e+57
          2162.22150	        -4.94819e+56
          2163.02780	         8.73043e+55
          2163.83410	        -3.01767e+57
          2164.64040	        -8.64887e+57
          2165.44670	        -1.20342e+58
          2166.25300	        -1.44423e+58
          2167.05930	        -3.32758e+56
          2167.86560	        -1.14283e+58
          2168.67190	        -1.36878e+58
          2169.47820	        -9.59118e+57
          2170.28450	        -1.00992e+58
          2171.09080	        -1.97567e+57
          2171.89710	        -3.57007e+57
          2172.70340	        -1.35000e+57
          2173.50970	        -1.07923e+58
          2174.31600	        -3.50148e+57
          2175.12230	        -1.82442e+56
          2175.92860	        -4.15711e+57
          2176.73490	        -5.94709e+57
          2177.54120	        -9.42091e+57
          2178.34750	        -4.99530e+57
          2179.15380	                 nan
          2179.96010	                 nan
          2180.76640	                 nan
          2181.57270	                 nan
          2182.37900	                 nan
          2183.18530	                 nan
          2183.99160	                 nan
          2184.79790	                 nan
          2185.60420	                 nan
          2186.41050	                 nan
          2187.21680	                 nan
          2188.02310	                 nan
          2188.82940	                 nan
          2189.63570	                 nan
          2190.44200	                 nan
          2191.24830	                 nan
          2192.05460	                 nan
          2192.86090	                 nan
          2193.66720	                 nan
          2194.47350	                 nan
          2195.27980	                 nan
          2196.08610	                 nan
          2196.89240	                 nan
          2197.69870	                 nan
          2198.50500	                 nan
          2199.31130	                 nan
          2200.11760	                 nan
          2200.92390	                 nan
          2201.73020	                 nan
          2202.53650	                 nan
          2203.34280	                 nan
          2204.14910	                 nan
          2204.95540	                 nan
          2205.76170	                 nan
          2206.56800	                 nan
          2207.37430	                 nan
          2208.18060	                 nan
          2208.98690	                 nan
          2209.79320	                 nan
          2210.59950	                 nan
          2211.40580	                 nan
          2212.21210	                 nan
          2213.01840	                 nan
          2213.82470	                 nan
          2214.63100	                 nan
          2215.43730	         0.00000e+00
