#sample_7_stacked_spectrum_rest_UV-bands_median_H-alpha_noDC.txt
#median Lum: 1.72301e+42
#Rest-frame wavelength (A) | Luminosity (erg/s/A)
#
          1110.00000	         0.00000e+00
          1110.80630	         2.64850e+59
          1111.61260	        -2.51671e+58
          1112.41890	         1.31469e+59
          1113.22520	        -2.54181e+58
          1114.03150	         1.12939e+59
          1114.83780	         1.94464e+59
          1115.64410	         8.53846e+58
          1116.45040	         2.49232e+56
          1117.25670	         1.07481e+59
          1118.06300	         9.50307e+58
          1118.86930	        -8.94271e+58
          1119.67560	         1.38024e+58
          1120.48190	         4.64280e+58
          1121.28820	        -3.47087e+58
          1122.09450	         1.13525e+59
          1122.90080	         4.18676e+58
          1123.70710	         6.77385e+58
          1124.51340	         7.26898e+58
          1125.31970	         5.32581e+58
          1126.12600	         8.26014e+58
          1126.93230	        -4.92170e+58
          1127.73860	        -6.25500e+58
          1128.54490	         4.85905e+58
          1129.35120	        -6.64479e+56
          1130.15750	        -3.93965e+58
          1130.96380	        -3.54583e+58
          1131.77010	         4.71956e+58
          1132.57640	         7.62403e+58
          1133.38270	         5.17662e+58
          1134.18900	         4.60764e+58
          1134.99530	         1.06789e+58
          1135.80160	         1.77004e+58
          1136.60790	         8.29187e+57
          1137.41420	        -2.21720e+58
          1138.22050	         3.66046e+58
          1139.02680	         3.01158e+58
          1139.83310	         1.39813e+58
          1140.63940	         1.56805e+58
          1141.44570	         2.42109e+57
          1142.25200	        -1.50600e+57
          1143.05830	         3.77772e+57
          1143.86460	         2.46873e+58
          1144.67090	         3.48096e+58
          1145.47720	         2.04047e+58
          1146.28350	         1.37515e+58
          1147.08980	         1.73339e+58
          1147.89610	         1.47920e+58
          1148.70240	         3.06713e+58
          1149.50870	         2.70877e+58
          1150.31500	         1.19829e+58
          1151.12130	         7.19197e+57
          1151.92760	         6.24094e+57
          1152.73390	         3.35161e+57
          1153.54020	         3.42017e+57
          1154.34650	         2.51734e+58
          1155.15280	         9.96910e+57
          1155.95910	        -6.56268e+57
          1156.76540	         8.21459e+57
          1157.57170	         1.00052e+58
          1158.37800	        -5.33669e+57
          1159.18430	        -2.48113e+57
          1159.99060	         3.46906e+57
          1160.79690	         3.47549e+57
          1161.60320	         1.79750e+58
          1162.40950	         1.89457e+58
          1163.21580	         1.29150e+58
          1164.02210	         1.70954e+58
          1164.82840	         4.91035e+57
          1165.63470	         1.02040e+58
          1166.44100	         2.49481e+58
          1167.24730	         2.15294e+58
          1168.05360	         7.55840e+57
          1168.85990	         1.04713e+58
          1169.66620	         1.01319e+58
          1170.47250	         8.77445e+57
          1171.27880	         5.84408e+56
          1172.08510	         9.21330e+57
          1172.89140	         1.87703e+58
          1173.69770	         9.32178e+57
          1174.50400	         1.25919e+58
          1175.31030	         1.75180e+58
          1176.11660	         2.30316e+58
          1176.92290	         1.92316e+58
          1177.72920	         1.66014e+58
          1178.53550	         6.90329e+57
          1179.34180	         5.21968e+57
          1180.14810	         1.35229e+58
          1180.95440	         1.26011e+58
          1181.76070	         1.14303e+58
          1182.56700	         1.25173e+58
          1183.37330	         5.56462e+57
          1184.17960	         1.06782e+58
          1184.98590	         1.49718e+58
          1185.79220	         1.18523e+58
          1186.59850	         1.09457e+58
          1187.40480	         8.72847e+57
          1188.21110	         1.59615e+58
          1189.01740	         9.19379e+57
          1189.82370	         9.63789e+57
          1190.63000	         1.53501e+58
          1191.43630	         1.67135e+58
          1192.24260	         9.14431e+57
          1193.04890	         1.08067e+58
          1193.85520	         1.00024e+58
          1194.66150	         2.42477e+57
          1195.46780	         8.32772e+57
          1196.27410	         1.27346e+58
          1197.08040	         8.69412e+57
          1197.88670	         1.40743e+58
          1198.69300	         1.58922e+58
          1199.49930	         1.56115e+58
          1200.30560	         1.28535e+58
          1201.11190	         1.13513e+58
          1201.91820	         1.17092e+58
          1202.72450	         1.05111e+58
          1203.53080	         1.23438e+58
          1204.33710	         8.57319e+57
          1205.14340	         2.68323e+57
          1205.94970	         7.50267e+56
          1206.75600	         7.61646e+57
          1207.56230	         4.80873e+57
          1208.36860	         9.78870e+57
          1209.17490	         4.29728e+57
          1209.98120	         5.22907e+57
          1210.78750	         5.19764e+57
          1211.59380	         8.37476e+57
          1212.40010	         1.55792e+58
          1213.20640	         1.95570e+58
          1214.01270	         2.23225e+58
          1214.81900	         2.52312e+58
          1215.62530	         4.47029e+58
          1216.43160	         9.54696e+58
          1217.23790	         1.56626e+59
          1218.04420	         1.12856e+59
          1218.85050	         8.18246e+58
          1219.65680	         5.24004e+58
          1220.46310	         3.26632e+58
          1221.26940	         2.37347e+58
          1222.07570	         1.36119e+58
          1222.88200	         1.08207e+58
          1223.68830	         1.26118e+58
          1224.49460	         9.17581e+57
          1225.30090	         5.79403e+57
          1226.10720	         7.60717e+57
          1226.91350	         5.94845e+57
          1227.71980	         9.65845e+57
          1228.52610	         1.09871e+58
          1229.33240	         8.00888e+57
          1230.13870	         7.28966e+57
          1230.94500	         8.65794e+57
          1231.75130	         7.11332e+57
          1232.55760	         9.75796e+57
          1233.36390	         7.88354e+57
          1234.17020	         1.04495e+58
          1234.97650	         1.04004e+58
          1235.78280	         1.16191e+58
          1236.58910	         1.08664e+58
          1237.39540	         9.66383e+57
          1238.20170	         8.20076e+57
          1239.00800	         1.16451e+58
          1239.81430	         1.36317e+58
          1240.62060	         9.42336e+57
          1241.42690	         8.96961e+57
          1242.23320	         1.12641e+58
          1243.03950	         1.03339e+58
          1243.84580	         1.17777e+58
          1244.65210	         1.28649e+58
          1245.45840	         9.06522e+57
          1246.26470	         8.20804e+57
          1247.07100	         6.10735e+57
          1247.87730	         1.66380e+57
          1248.68360	         5.08579e+57
          1249.48990	         9.20649e+57
          1250.29620	         8.96536e+57
          1251.10250	         9.06314e+57
          1251.90880	         7.72714e+57
          1252.71510	         6.94095e+57
          1253.52140	         7.76406e+57
          1254.32770	         8.57109e+57
          1255.13400	         1.42765e+58
          1255.94030	         1.30857e+58
          1256.74660	         1.17400e+58
          1257.55290	         1.00915e+58
          1258.35920	         6.67674e+57
          1259.16550	         4.11039e+57
          1259.97180	         7.09579e+57
          1260.77810	         1.00324e+58
          1261.58440	         9.31997e+57
          1262.39070	         8.78687e+57
          1263.19700	         7.91862e+57
          1264.00330	         7.72926e+57
          1264.80960	         1.13201e+58
          1265.61590	         1.49852e+58
          1266.42220	         1.49673e+58
          1267.22850	         1.35724e+58
          1268.03480	         1.61047e+58
          1268.84110	         1.72431e+58
          1269.64740	         1.57855e+58
          1270.45370	         1.38342e+58
          1271.26000	         1.05702e+58
          1272.06630	         1.30778e+58
          1272.87260	         1.35813e+58
          1273.67890	         1.41295e+58
          1274.48520	         1.53827e+58
          1275.29150	         1.51056e+58
          1276.09780	         1.37159e+58
          1276.90410	         1.54052e+58
          1277.71040	         1.41406e+58
          1278.51670	         1.08906e+58
          1279.32300	         1.18470e+58
          1280.12930	         1.22109e+58
          1280.93560	         1.04738e+58
          1281.74190	         1.10310e+58
          1282.54820	         1.19924e+58
          1283.35450	         1.09460e+58
          1284.16080	         1.35031e+58
          1284.96710	         1.35727e+58
          1285.77340	         1.19973e+58
          1286.57970	         1.28327e+58
          1287.38600	         1.54664e+58
          1288.19230	         1.89202e+58
          1288.99860	         1.68115e+58
          1289.80490	         1.01004e+58
          1290.61120	         1.30972e+58
          1291.41750	         1.66709e+58
          1292.22380	         1.25356e+58
          1293.03010	         1.04368e+58
          1293.83640	         1.14608e+58
          1294.64270	         8.77380e+57
          1295.44900	         6.08440e+57
          1296.25530	         8.03811e+57
          1297.06160	         1.09520e+58
          1297.86790	         9.92704e+57
          1298.67420	         8.44946e+57
          1299.48050	         9.87698e+57
          1300.28680	         1.07575e+58
          1301.09310	         7.61702e+57
          1301.89940	         4.73779e+57
          1302.70570	         6.43756e+57
          1303.51200	         7.93626e+57
          1304.31830	         1.06161e+58
          1305.12460	         1.21168e+58
          1305.93090	         1.09520e+58
          1306.73720	         1.15334e+58
          1307.54350	         1.35928e+58
          1308.34980	         1.43168e+58
          1309.15610	         1.45633e+58
          1309.96240	         1.54115e+58
          1310.76870	         1.35590e+58
          1311.57500	         1.15457e+58
          1312.38130	         1.19532e+58
          1313.18760	         1.21736e+58
          1313.99390	         1.56445e+58
          1314.80020	         1.87357e+58
          1315.60650	         1.79182e+58
          1316.41280	         1.50238e+58
          1317.21910	         1.18479e+58
          1318.02540	         9.77241e+57
          1318.83170	         1.23171e+58
          1319.63800	         1.36686e+58
          1320.44430	         1.36525e+58
          1321.25060	         1.11405e+58
          1322.05690	         1.15916e+58
          1322.86320	         1.33284e+58
          1323.66950	         1.14720e+58
          1324.47580	         9.50710e+57
          1325.28210	         9.43553e+57
          1326.08840	         1.09229e+58
          1326.89470	         1.26730e+58
          1327.70100	         1.06502e+58
          1328.50730	         9.63266e+57
          1329.31360	         1.30677e+58
          1330.11990	         1.35073e+58
          1330.92620	         1.16378e+58
          1331.73250	         1.20818e+58
          1332.53880	         1.12457e+58
          1333.34510	         8.36689e+57
          1334.15140	         8.57467e+57
          1334.95770	         1.00823e+58
          1335.76400	         1.10268e+58
          1336.57030	         1.06878e+58
          1337.37660	         9.97701e+57
          1338.18290	         1.06935e+58
          1338.98920	         1.25754e+58
          1339.79550	         1.25330e+58
          1340.60180	         1.15762e+58
          1341.40810	         1.35198e+58
          1342.21440	         1.32162e+58
          1343.02070	         1.53553e+58
          1343.82700	         1.55703e+58
          1344.63330	         1.31567e+58
          1345.43960	         1.30888e+58
          1346.24590	         1.01822e+58
          1347.05220	         1.02763e+58
          1347.85850	         1.06015e+58
          1348.66480	         1.24444e+58
          1349.47110	         1.27949e+58
          1350.27740	         1.14828e+58
          1351.08370	         1.00457e+58
          1351.89000	         1.07557e+58
          1352.69630	         1.13265e+58
          1353.50260	         1.21793e+58
          1354.30890	         1.28809e+58
          1355.11520	         1.17802e+58
          1355.92150	         1.04692e+58
          1356.72780	         9.85974e+57
          1357.53410	         1.04824e+58
          1358.34040	         1.23482e+58
          1359.14670	         1.24357e+58
          1359.95300	         1.14936e+58
          1360.75930	         1.15076e+58
          1361.56560	         1.23370e+58
          1362.37190	         1.18013e+58
          1363.17820	         9.62537e+57
          1363.98450	         1.15847e+58
          1364.79080	         1.38595e+58
          1365.59710	         1.40017e+58
          1366.40340	         1.32273e+58
          1367.20970	         1.21405e+58
          1368.01600	         1.08034e+58
          1368.82230	         1.06033e+58
          1369.62860	         1.09627e+58
          1370.43490	         9.63322e+57
          1371.24120	         9.99958e+57
          1372.04750	         7.47941e+57
          1372.85380	         9.87380e+57
          1373.66010	         1.03539e+58
          1374.46640	         9.66818e+57
          1375.27270	         9.17203e+57
          1376.07900	         8.69248e+57
          1376.88530	         9.65291e+57
          1377.69160	         9.72701e+57
          1378.49790	         7.74185e+57
          1379.30420	         8.35742e+57
          1380.11050	         1.00391e+58
          1380.91680	         9.28240e+57
          1381.72310	         9.09037e+57
          1382.52940	         9.14736e+57
          1383.33570	         8.50365e+57
          1384.14200	         1.13933e+58
          1384.94830	         1.29939e+58
          1385.75460	         1.09990e+58
          1386.56090	         1.19356e+58
          1387.36720	         1.12848e+58
          1388.17350	         1.14403e+58
          1388.97980	         1.13111e+58
          1389.78610	         1.02564e+58
          1390.59240	         8.27527e+57
          1391.39870	         7.62567e+57
          1392.20500	         8.42724e+57
          1393.01130	         8.65480e+57
          1393.81760	         7.15880e+57
          1394.62390	         6.90434e+57
          1395.43020	         6.72430e+57
          1396.23650	         6.67506e+57
          1397.04280	         7.48725e+57
          1397.84910	         8.95323e+57
          1398.65540	         1.00060e+58
          1399.46170	         1.08452e+58
          1400.26800	         8.95501e+57
          1401.07430	         6.91283e+57
          1401.88060	         7.59950e+57
          1402.68690	         8.27597e+57
          1403.49320	         8.39285e+57
          1404.29950	         1.04842e+58
          1405.10580	         1.10960e+58
          1405.91210	         1.09995e+58
          1406.71840	         1.17669e+58
          1407.52470	         1.11897e+58
          1408.33100	         1.06526e+58
          1409.13730	         1.08939e+58
          1409.94360	         1.16219e+58
          1410.74990	         1.15827e+58
          1411.55620	         9.72088e+57
          1412.36250	         7.96632e+57
          1413.16880	         8.29770e+57
          1413.97510	         7.96357e+57
          1414.78140	         8.66197e+57
          1415.58770	         8.92894e+57
          1416.39400	         9.49674e+57
          1417.20030	         1.00996e+58
          1418.00660	         9.88128e+57
          1418.81290	         9.77412e+57
          1419.61920	         9.42771e+57
          1420.42550	         1.30808e+58
          1421.23180	         1.37813e+58
          1422.03810	         1.33250e+58
          1422.84440	         1.18919e+58
          1423.65070	         1.13568e+58
          1424.45700	         9.89902e+57
          1425.26330	         8.95284e+57
          1426.06960	         1.00663e+58
          1426.87590	         1.03731e+58
          1427.68220	         1.01957e+58
          1428.48850	         1.16207e+58
          1429.29480	         1.12025e+58
          1430.10110	         1.04379e+58
          1430.90740	         8.77694e+57
          1431.71370	         8.36279e+57
          1432.52000	         8.80124e+57
          1433.32630	         7.21816e+57
          1434.13260	         7.55542e+57
          1434.93890	         8.59500e+57
          1435.74520	         8.88079e+57
          1436.55150	         9.08675e+57
          1437.35780	         8.82472e+57
          1438.16410	         1.00309e+58
          1438.97040	         1.02916e+58
          1439.77670	         1.02209e+58
          1440.58300	         1.03862e+58
          1441.38930	         1.07840e+58
          1442.19560	         1.00304e+58
          1443.00190	         9.71655e+57
          1443.80820	         1.14445e+58
          1444.61450	         1.04120e+58
          1445.42080	         9.24181e+57
          1446.22710	         1.04814e+58
          1447.03340	         1.02796e+58
          1447.83970	         1.08484e+58
          1448.64600	         1.17028e+58
          1449.45230	         1.02149e+58
          1450.25860	         9.98030e+57
          1451.06490	         9.01520e+57
          1451.87120	         7.85844e+57
          1452.67750	         8.88661e+57
          1453.48380	         9.52426e+57
          1454.29010	         8.86447e+57
          1455.09640	         8.91586e+57
          1455.90270	         1.01603e+58
          1456.70900	         9.55563e+57
          1457.51530	         9.59178e+57
          1458.32160	         1.19872e+58
          1459.12790	         1.24296e+58
          1459.93420	         1.11695e+58
          1460.74050	         9.28816e+57
          1461.54680	         7.95902e+57
          1462.35310	         6.37426e+57
          1463.15940	         8.99383e+57
          1463.96570	         1.16748e+58
          1464.77200	         1.24044e+58
          1465.57830	         1.03159e+58
          1466.38460	         8.95990e+57
          1467.19090	         9.17658e+57
          1467.99720	         9.20182e+57
          1468.80350	         9.69295e+57
          1469.60980	         1.04912e+58
          1470.41610	         1.16373e+58
          1471.22240	         1.02812e+58
          1472.02870	         1.04554e+58
          1472.83500	         1.08655e+58
          1473.64130	         1.00987e+58
          1474.44760	         9.69509e+57
          1475.25390	         7.88634e+57
          1476.06020	         6.71046e+57
          1476.86650	         7.94530e+57
          1477.67280	         7.31143e+57
          1478.47910	         6.67250e+57
          1479.28540	         7.20755e+57
          1480.09170	         8.77958e+57
          1480.89800	         9.23949e+57
          1481.70430	         7.92757e+57
          1482.51060	         7.24594e+57
          1483.31690	         7.77890e+57
          1484.12320	         7.92811e+57
          1484.92950	         8.58997e+57
          1485.73580	         8.81872e+57
          1486.54210	         9.02201e+57
          1487.34840	         8.32906e+57
          1488.15470	         8.68267e+57
          1488.96100	         9.28122e+57
          1489.76730	         8.88558e+57
          1490.57360	         8.00240e+57
          1491.37990	         7.14267e+57
          1492.18620	         7.84028e+57
          1492.99250	         7.44966e+57
          1493.79880	         7.28415e+57
          1494.60510	         8.27059e+57
          1495.41140	         7.45444e+57
          1496.21770	         7.51049e+57
          1497.02400	         1.03753e+58
          1497.83030	         9.28061e+57
          1498.63660	         7.16520e+57
          1499.44290	         7.19010e+57
          1500.24920	         7.82422e+57
          1501.05550	         8.96319e+57
          1501.86180	         8.52847e+57
          1502.66810	         9.25139e+57
          1503.47440	         8.69235e+57
          1504.28070	         7.94700e+57
          1505.08700	         9.79258e+57
          1505.89330	         9.92934e+57
          1506.69960	         8.40414e+57
          1507.50590	         8.61726e+57
          1508.31220	         9.12366e+57
          1509.11850	         8.61837e+57
          1509.92480	         9.27909e+57
          1510.73110	         9.58339e+57
          1511.53740	         8.22370e+57
          1512.34370	         7.16681e+57
          1513.15000	         8.45981e+57
          1513.95630	         9.79739e+57
          1514.76260	         9.41596e+57
          1515.56890	         9.21883e+57
          1516.37520	         8.87629e+57
          1517.18150	         8.15312e+57
          1517.98780	         7.62093e+57
          1518.79410	         7.40155e+57
          1519.60040	         8.85789e+57
          1520.40670	         1.01287e+58
          1521.21300	         9.84408e+57
          1522.01930	         8.45848e+57
          1522.82560	         9.26052e+57
          1523.63190	         1.01029e+58
          1524.43820	         8.81438e+57
          1525.24450	         6.98138e+57
          1526.05080	         6.34481e+57
          1526.85710	         6.19584e+57
          1527.66340	         7.85958e+57
          1528.46970	         9.42741e+57
          1529.27600	         8.05534e+57
          1530.08230	         7.65986e+57
          1530.88860	         8.47414e+57
          1531.69490	         8.51319e+57
          1532.50120	         9.29579e+57
          1533.30750	         1.00386e+58
          1534.11380	         9.91847e+57
          1534.92010	         9.09988e+57
          1535.72640	         9.27245e+57
          1536.53270	         9.75501e+57
          1537.33900	         9.23333e+57
          1538.14530	         8.63142e+57
          1538.95160	         9.24346e+57
          1539.75790	         9.02522e+57
          1540.56420	         9.02315e+57
          1541.37050	         9.34618e+57
          1542.17680	         8.86370e+57
          1542.98310	         7.80357e+57
          1543.78940	         6.87610e+57
          1544.59570	         6.20960e+57
          1545.40200	         7.00832e+57
          1546.20830	         8.70897e+57
          1547.01460	         1.04800e+58
          1547.82090	         1.10558e+58
          1548.62720	         1.17418e+58
          1549.43350	         1.22141e+58
          1550.23980	         1.13684e+58
          1551.04610	         1.19552e+58
          1551.85240	         1.19255e+58
          1552.65870	         1.14344e+58
          1553.46500	         1.06322e+58
          1554.27130	         1.01472e+58
          1555.07760	         1.03771e+58
          1555.88390	         9.24596e+57
          1556.69020	         8.92802e+57
          1557.49650	         9.15870e+57
          1558.30280	         9.46055e+57
          1559.10910	         8.16096e+57
          1559.91540	         8.95736e+57
          1560.72170	         9.87646e+57
          1561.52800	         9.35645e+57
          1562.33430	         8.66537e+57
          1563.14060	         8.32978e+57
          1563.94690	         7.90644e+57
          1564.75320	         7.77793e+57
          1565.55950	         6.43862e+57
          1566.36580	         6.55394e+57
          1567.17210	         8.37316e+57
          1567.97840	         8.76667e+57
          1568.78470	         9.27456e+57
          1569.59100	         9.43702e+57
          1570.39730	         8.20766e+57
          1571.20360	         7.53706e+57
          1572.00990	         8.57568e+57
          1572.81620	         9.40842e+57
          1573.62250	         1.02542e+58
          1574.42880	         9.59058e+57
          1575.23510	         8.49841e+57
          1576.04140	         8.19422e+57
          1576.84770	         8.88087e+57
          1577.65400	         9.18026e+57
          1578.46030	         9.84458e+57
          1579.26660	         1.11622e+58
          1580.07290	         9.96905e+57
          1580.87920	         7.73242e+57
          1581.68550	         7.67435e+57
          1582.49180	         8.07953e+57
          1583.29810	         8.04646e+57
          1584.10440	         8.39524e+57
          1584.91070	         8.13069e+57
          1585.71700	         8.35332e+57
          1586.52330	         9.02446e+57
          1587.32960	         8.82700e+57
          1588.13590	         8.14855e+57
          1588.94220	         8.02643e+57
          1589.74850	         9.40590e+57
          1590.55480	         1.07774e+58
          1591.36110	         9.71843e+57
          1592.16740	         8.24982e+57
          1592.97370	         8.43366e+57
          1593.78000	         8.76062e+57
          1594.58630	         9.15615e+57
          1595.39260	         9.13866e+57
          1596.19890	         9.10305e+57
          1597.00520	         9.24494e+57
          1597.81150	         9.26206e+57
          1598.61780	         6.85566e+57
          1599.42410	         6.08177e+57
          1600.23040	         6.32535e+57
          1601.03670	         7.16820e+57
          1601.84300	         7.52506e+57
          1602.64930	         8.64645e+57
          1603.45560	         9.40968e+57
          1604.26190	         8.65049e+57
          1605.06820	         7.65360e+57
          1605.87450	         6.84457e+57
          1606.68080	         7.25689e+57
          1607.48710	         6.84678e+57
          1608.29340	         6.12316e+57
          1609.09970	         6.83105e+57
          1609.90600	         7.59938e+57
          1610.71230	         7.50750e+57
          1611.51860	         6.56805e+57
          1612.32490	         5.93632e+57
          1613.13120	         7.43836e+57
          1613.93750	         8.31115e+57
          1614.74380	         9.07221e+57
          1615.55010	         9.04986e+57
          1616.35640	         9.54990e+57
          1617.16270	         9.39873e+57
          1617.96900	         9.73640e+57
          1618.77530	         8.64224e+57
          1619.58160	         8.05258e+57
          1620.38790	         8.24607e+57
          1621.19420	         8.85298e+57
          1622.00050	         9.06939e+57
          1622.80680	         9.40411e+57
          1623.61310	         9.06058e+57
          1624.41940	         8.47123e+57
          1625.22570	         9.79378e+57
          1626.03200	         9.47943e+57
          1626.83830	         9.05970e+57
          1627.64460	         8.95464e+57
          1628.45090	         7.25978e+57
          1629.25720	         9.94986e+57
          1630.06350	         1.18500e+58
          1630.86980	         7.28338e+57
          1631.67610	         7.44432e+57
          1632.48240	         9.23911e+57
          1633.28870	         8.83270e+57
          1634.09500	         9.66062e+57
          1634.90130	         1.14098e+58
          1635.70760	         9.47522e+57
          1636.51390	         7.66146e+57
          1637.32020	         7.23966e+57
          1638.12650	         9.41467e+57
          1638.93280	         1.06505e+58
          1639.73910	         1.17361e+58
          1640.54540	         1.09094e+58
          1641.35170	         8.37112e+57
          1642.15800	         8.79467e+57
          1642.96430	         8.91761e+57
          1643.77060	         8.53041e+57
          1644.57690	         8.48803e+57
          1645.38320	         8.50733e+57
          1646.18950	         7.05306e+57
          1646.99580	         7.58430e+57
          1647.80210	         7.61614e+57
          1648.60840	         8.21890e+57
          1649.41470	         9.15765e+57
          1650.22100	         7.68212e+57
          1651.02730	         6.65535e+57
          1651.83360	         6.66236e+57
          1652.63990	         7.85468e+57
          1653.44620	         8.67366e+57
          1654.25250	         7.67298e+57
          1655.05880	         7.48715e+57
          1655.86510	         8.27552e+57
          1656.67140	         8.65234e+57
          1657.47770	         7.48627e+57
          1658.28400	         7.65788e+57
          1659.09030	         8.65782e+57
          1659.89660	         9.32897e+57
          1660.70290	         9.96757e+57
          1661.50920	         1.05716e+58
          1662.31550	         8.80181e+57
          1663.12180	         7.81636e+57
          1663.92810	         9.07861e+57
          1664.73440	         9.75411e+57
          1665.54070	         1.12111e+58
          1666.34700	         1.20034e+58
          1667.15330	         1.09366e+58
          1667.95960	         8.84054e+57
          1668.76590	         7.57955e+57
          1669.57220	         7.02441e+57
          1670.37850	         8.24715e+57
          1671.18480	         9.13215e+57
          1671.99110	         8.45172e+57
          1672.79740	         7.16311e+57
          1673.60370	         7.01712e+57
          1674.41000	         7.48484e+57
          1675.21630	         6.59104e+57
          1676.02260	         6.63436e+57
          1676.82890	         7.29389e+57
          1677.63520	         7.44066e+57
          1678.44150	         7.32973e+57
          1679.24780	         8.22632e+57
          1680.05410	         7.85101e+57
          1680.86040	         6.61987e+57
          1681.66670	         7.11796e+57
          1682.47300	         7.65271e+57
          1683.27930	         7.97164e+57
          1684.08560	         8.81046e+57
          1684.89190	         8.09687e+57
          1685.69820	         6.64037e+57
          1686.50450	         6.13453e+57
          1687.31080	         7.48227e+57
          1688.11710	         7.33819e+57
          1688.92340	         7.07469e+57
          1689.72970	         7.21040e+57
          1690.53600	         7.72203e+57
          1691.34230	         7.60277e+57
          1692.14860	         7.86807e+57
          1692.95490	         7.72341e+57
          1693.76120	         6.91726e+57
          1694.56750	         6.94514e+57
          1695.37380	         8.22569e+57
          1696.18010	         9.12072e+57
          1696.98640	         9.37901e+57
          1697.79270	         8.65229e+57
          1698.59900	         8.07078e+57
          1699.40530	         7.24927e+57
          1700.21160	         7.69447e+57
          1701.01790	         8.77073e+57
          1701.82420	         8.27261e+57
          1702.63050	         8.76051e+57
          1703.43680	         9.92102e+57
          1704.24310	         9.15304e+57
          1705.04940	         8.71805e+57
          1705.85570	         8.34357e+57
          1706.66200	         8.75499e+57
          1707.46830	         8.62972e+57
          1708.27460	         7.45006e+57
          1709.08090	         7.22583e+57
          1709.88720	         6.55792e+57
          1710.69350	         6.78786e+57
          1711.49980	         7.30660e+57
          1712.30610	         7.19311e+57
          1713.11240	         8.97750e+57
          1713.91870	         7.81366e+57
          1714.72500	         8.46155e+57
          1715.53130	         9.31814e+57
          1716.33760	         7.42020e+57
          1717.14390	         6.88063e+57
          1717.95020	         8.35368e+57
          1718.75650	         8.84828e+57
          1719.56280	         9.19905e+57
          1720.36910	         7.47993e+57
          1721.17540	         6.84750e+57
          1721.98170	         6.27523e+57
          1722.78800	         6.98386e+57
          1723.59430	         7.82059e+57
          1724.40060	         8.33292e+57
          1725.20690	         8.25779e+57
          1726.01320	         8.51434e+57
          1726.81950	         7.72856e+57
          1727.62580	         7.00657e+57
          1728.43210	         6.66954e+57
          1729.23840	         7.54571e+57
          1730.04470	         7.93695e+57
          1730.85100	         8.34315e+57
          1731.65730	         7.60185e+57
          1732.46360	         7.70131e+57
          1733.26990	         7.35642e+57
          1734.07620	         7.27799e+57
          1734.88250	         7.99927e+57
          1735.68880	         8.27229e+57
          1736.49510	         8.52884e+57
          1737.30140	         8.80023e+57
          1738.10770	         7.76555e+57
          1738.91400	         7.16011e+57
          1739.72030	         6.93925e+57
          1740.52660	         6.31866e+57
          1741.33290	         6.11942e+57
          1742.13920	         6.28962e+57
          1742.94550	         7.19176e+57
          1743.75180	         7.55299e+57
          1744.55810	         7.88696e+57
          1745.36440	         7.49036e+57
          1746.17070	         5.87038e+57
          1746.97700	         5.20999e+57
          1747.78330	         6.51444e+57
          1748.58960	         7.18985e+57
          1749.39590	         6.99954e+57
          1750.20220	         6.59963e+57
          1751.00850	         5.38882e+57
          1751.81480	         6.42497e+57
          1752.62110	         7.44294e+57
          1753.42740	         7.88734e+57
          1754.23370	         6.26787e+57
          1755.04000	         6.98483e+57
          1755.84630	         8.23503e+57
          1756.65260	         8.62048e+57
          1757.45890	         8.97450e+57
          1758.26520	         7.94290e+57
          1759.07150	         8.37960e+57
          1759.87780	         7.79313e+57
          1760.68410	         7.44712e+57
          1761.49040	         7.15593e+57
          1762.29670	         5.93425e+57
          1763.10300	         6.91388e+57
          1763.90930	         7.01530e+57
          1764.71560	         7.71093e+57
          1765.52190	         9.17207e+57
          1766.32820	         8.88360e+57
          1767.13450	         8.23106e+57
          1767.94080	         7.09084e+57
          1768.74710	         7.70447e+57
          1769.55340	         7.11436e+57
          1770.35970	         5.84971e+57
          1771.16600	         7.51621e+57
          1771.97230	         8.92081e+57
          1772.77860	         9.51237e+57
          1773.58490	         7.68813e+57
          1774.39120	         4.72715e+57
          1775.19750	         4.93168e+57
          1776.00380	         5.93710e+57
          1776.81010	         6.50399e+57
          1777.61640	         6.84908e+57
          1778.42270	         7.76985e+57
          1779.22900	         6.75653e+57
          1780.03530	         6.25407e+57
          1780.84160	         7.41937e+57
          1781.64790	         8.80147e+57
          1782.45420	         7.84259e+57
          1783.26050	         7.05385e+57
          1784.06680	         7.19163e+57
          1784.87310	         7.61166e+57
          1785.67940	         7.63822e+57
          1786.48570	         7.32984e+57
          1787.29200	         6.43660e+57
          1788.09830	         5.77161e+57
          1788.90460	         5.72320e+57
          1789.71090	         5.66664e+57
          1790.51720	         6.01251e+57
          1791.32350	         6.92980e+57
          1792.12980	         8.96360e+57
          1792.93610	         8.51211e+57
          1793.74240	         7.27777e+57
          1794.54870	         7.81296e+57
          1795.35500	         8.12746e+57
          1796.16130	         7.96756e+57
          1796.96760	         6.40385e+57
          1797.77390	         7.11904e+57
          1798.58020	         6.90693e+57
          1799.38650	         6.17861e+57
          1800.19280	         6.59403e+57
          1800.99910	         7.17758e+57
          1801.80540	         7.24072e+57
          1802.61170	         8.00307e+57
          1803.41800	         8.19430e+57
          1804.22430	         7.01056e+57
          1805.03060	         7.34503e+57
          1805.83690	         8.32145e+57
          1806.64320	         8.87508e+57
          1807.44950	         7.55678e+57
          1808.25580	         6.39680e+57
          1809.06210	         7.75485e+57
          1809.86840	         7.96343e+57
          1810.67470	         7.44063e+57
          1811.48100	         8.45476e+57
          1812.28730	         7.78292e+57
          1813.09360	         7.99908e+57
          1813.89990	         8.45268e+57
          1814.70620	         7.47516e+57
          1815.51250	         8.34427e+57
          1816.31880	         8.62076e+57
          1817.12510	         7.09983e+57
          1817.93140	         7.34615e+57
          1818.73770	         7.87648e+57
          1819.54400	         9.23285e+57
          1820.35030	         8.56256e+57
          1821.15660	         7.05589e+57
          1821.96290	         6.72226e+57
          1822.76920	         7.38974e+57
          1823.57550	         7.88080e+57
          1824.38180	         7.56967e+57
          1825.18810	         8.30439e+57
          1825.99440	         8.11100e+57
          1826.80070	         7.28490e+57
          1827.60700	         6.89619e+57
          1828.41330	         6.11370e+57
          1829.21960	         7.24107e+57
          1830.02590	         8.66149e+57
          1830.83220	         9.03531e+57
          1831.63850	         8.14727e+57
          1832.44480	         7.15692e+57
          1833.25110	         8.62150e+57
          1834.05740	         8.80081e+57
          1834.86370	         7.19258e+57
          1835.67000	         6.50893e+57
          1836.47630	         8.34051e+57
          1837.28260	         9.14868e+57
          1838.08890	         8.42794e+57
          1838.89520	         8.01590e+57
          1839.70150	         7.82578e+57
          1840.50780	         7.39336e+57
          1841.31410	         7.28620e+57
          1842.12040	         7.12533e+57
          1842.92670	         6.16213e+57
          1843.73300	         6.29870e+57
          1844.53930	         7.27836e+57
          1845.34560	         8.03138e+57
          1846.15190	         8.05080e+57
          1846.95820	         7.55979e+57
          1847.76450	         6.79513e+57
          1848.57080	         6.56784e+57
          1849.37710	         6.74934e+57
          1850.18340	         7.81483e+57
          1850.98970	         8.32566e+57
          1851.79600	         7.60871e+57
          1852.60230	         7.65907e+57
          1853.40860	         7.02384e+57
          1854.21490	         6.24095e+57
          1855.02120	         5.70600e+57
          1855.82750	         4.89470e+57
          1856.63380	         5.50121e+57
          1857.44010	         7.01752e+57
          1858.24640	         6.95802e+57
          1859.05270	         7.58589e+57
          1859.85900	         5.76891e+57
          1860.66530	         6.17379e+57
          1861.47160	         6.87372e+57
          1862.27790	         6.82333e+57
          1863.08420	         7.21981e+57
          1863.89050	         7.88954e+57
          1864.69680	         6.88427e+57
          1865.50310	         6.99367e+57
          1866.30940	         6.31437e+57
          1867.11570	         7.07643e+57
          1867.92200	         7.15950e+57
          1868.72830	         7.33582e+57
          1869.53460	         6.18413e+57
          1870.34090	         6.28900e+57
          1871.14720	         7.56038e+57
          1871.95350	         7.02327e+57
          1872.75980	         7.43892e+57
          1873.56610	         8.12727e+57
          1874.37240	         5.88285e+57
          1875.17870	         5.50096e+57
          1875.98500	         7.30117e+57
          1876.79130	         7.73770e+57
          1877.59760	         7.55678e+57
          1878.40390	         6.93613e+57
          1879.21020	         7.29719e+57
          1880.01650	         8.22346e+57
          1880.82280	         8.48306e+57
          1881.62910	         9.14817e+57
          1882.43540	         1.02199e+58
          1883.24170	         8.20628e+57
          1884.04800	         6.76143e+57
          1884.85430	         6.64886e+57
          1885.66060	         7.26173e+57
          1886.46690	         7.26475e+57
          1887.27320	         7.89609e+57
          1888.07950	         6.20174e+57
          1888.88580	         6.59409e+57
          1889.69210	         8.73158e+57
          1890.49840	         8.57668e+57
          1891.30470	         8.02198e+57
          1892.11100	         8.82253e+57
          1892.91730	         7.80641e+57
          1893.72360	         6.91397e+57
          1894.52990	         8.11421e+57
          1895.33620	         8.50803e+57
          1896.14250	         6.75379e+57
          1896.94880	         6.56827e+57
          1897.75510	         5.12895e+57
          1898.56140	         6.00422e+57
          1899.36770	         8.05781e+57
          1900.17400	         7.59907e+57
          1900.98030	         6.36569e+57
          1901.78660	         7.83718e+57
          1902.59290	         8.10286e+57
          1903.39920	         9.14901e+57
          1904.20550	         8.74077e+57
          1905.01180	         8.50045e+57
          1905.81810	         9.58867e+57
          1906.62440	         1.17668e+58
          1907.43070	         1.56782e+58
          1908.23700	         1.45401e+58
          1909.04330	         1.24756e+58
          1909.84960	         1.12919e+58
          1910.65590	         9.87714e+57
          1911.46220	         1.04619e+58
          1912.26850	         8.69155e+57
          1913.07480	         6.14473e+57
          1913.88110	         5.91242e+57
          1914.68740	         6.04288e+57
          1915.49370	         6.22467e+57
          1916.30000	         6.85749e+57
          1917.10630	         6.63827e+57
          1917.91260	         6.86070e+57
          1918.71890	         6.30865e+57
          1919.52520	         6.14598e+57
          1920.33150	         5.26625e+57
          1921.13780	         6.87886e+57
          1921.94410	         7.53720e+57
          1922.75040	         7.83678e+57
          1923.55670	         8.38714e+57
          1924.36300	         7.44370e+57
          1925.16930	         6.50572e+57
          1925.97560	         5.12209e+57
          1926.78190	         5.08340e+57
          1927.58820	         4.93742e+57
          1928.39450	         3.94521e+57
          1929.20080	         4.30277e+57
          1930.00710	         5.76166e+57
          1930.81340	         6.60122e+57
          1931.61970	         6.88611e+57
          1932.42600	         7.61481e+57
          1933.23230	         8.13857e+57
          1934.03860	         7.66019e+57
          1934.84490	         6.56627e+57
          1935.65120	         7.66630e+57
          1936.45750	         8.63319e+57
          1937.26380	         7.45028e+57
          1938.07010	         6.70421e+57
          1938.87640	         7.38726e+57
          1939.68270	         7.39517e+57
          1940.48900	         8.94868e+57
          1941.29530	         8.74411e+57
          1942.10160	         7.61264e+57
          1942.90790	         6.73700e+57
          1943.71420	         6.63576e+57
          1944.52050	         5.89156e+57
          1945.32680	         5.28101e+57
          1946.13310	         7.46933e+57
          1946.93940	         8.36607e+57
          1947.74570	         7.17416e+57
          1948.55200	         6.43771e+57
          1949.35830	         6.53501e+57
          1950.16460	         5.83945e+57
          1950.97090	         7.64705e+57
          1951.77720	         8.25788e+57
          1952.58350	         8.84764e+57
          1953.38980	         7.01816e+57
          1954.19610	         5.40353e+57
          1955.00240	         5.83376e+57
          1955.80870	         6.86630e+57
          1956.61500	         6.52565e+57
          1957.42130	         5.69169e+57
          1958.22760	         6.77391e+57
          1959.03390	         6.88664e+57
          1959.84020	         6.97842e+57
          1960.64650	         7.34731e+57
          1961.45280	         7.19517e+57
          1962.25910	         6.53160e+57
          1963.06540	         5.77401e+57
          1963.87170	         6.28998e+57
          1964.67800	         6.16815e+57
          1965.48430	         6.12433e+57
          1966.29060	         5.76754e+57
          1967.09690	         8.55921e+57
          1967.90320	         7.55520e+57
          1968.70950	         6.75418e+57
          1969.51580	         5.84421e+57
          1970.32210	         6.82915e+57
          1971.12840	         6.61057e+57
          1971.93470	         5.11937e+57
          1972.74100	         4.47031e+57
          1973.54730	         6.06134e+57
          1974.35360	         7.01512e+57
          1975.15990	         8.27891e+57
          1975.96620	         8.44831e+57
          1976.77250	         8.51776e+57
          1977.57880	         7.46348e+57
          1978.38510	         6.18687e+57
          1979.19140	         6.65763e+57
          1979.99770	         8.03101e+57
          1980.80400	         6.53785e+57
          1981.61030	         6.28105e+57
          1982.41660	         5.84953e+57
          1983.22290	         6.52564e+57
          1984.02920	         5.30311e+57
          1984.83550	         5.79107e+57
          1985.64180	         6.97376e+57
          1986.44810	         7.21602e+57
          1987.25440	         5.47312e+57
          1988.06070	         5.34976e+57
          1988.86700	         6.10666e+57
          1989.67330	         5.70246e+57
          1990.47960	         5.86711e+57
          1991.28590	         5.41549e+57
          1992.09220	         5.44624e+57
          1992.89850	         5.86161e+57
          1993.70480	         6.04771e+57
          1994.51110	         5.19726e+57
          1995.31740	         5.27172e+57
          1996.12370	         6.06929e+57
          1996.93000	         6.41486e+57
          1997.73630	         6.91828e+57
          1998.54260	         8.17754e+57
          1999.34890	         7.03813e+57
          2000.15520	         8.02003e+57
          2000.96150	         7.04021e+57
          2001.76780	         7.36724e+57
          2002.57410	         5.81240e+57
          2003.38040	         6.26446e+57
          2004.18670	         5.84904e+57
          2004.99300	         5.83105e+57
          2005.79930	         7.31259e+57
          2006.60560	         7.30950e+57
          2007.41190	         7.21767e+57
          2008.21820	         6.48223e+57
          2009.02450	         6.71400e+57
          2009.83080	         5.89089e+57
          2010.63710	         6.96263e+57
          2011.44340	         7.35187e+57
          2012.24970	         7.41554e+57
          2013.05600	         7.23756e+57
          2013.86230	         6.42182e+57
          2014.66860	         5.31009e+57
          2015.47490	         6.81399e+57
          2016.28120	         6.44637e+57
          2017.08750	         5.55986e+57
          2017.89380	         5.97172e+57
          2018.70010	         6.69306e+57
          2019.50640	         6.98991e+57
          2020.31270	         6.07432e+57
          2021.11900	         8.75716e+57
          2021.92530	         8.45838e+57
          2022.73160	         7.74896e+57
          2023.53790	         6.92646e+57
          2024.34420	         7.11074e+57
          2025.15050	         5.75819e+57
          2025.95680	         5.57665e+57
          2026.76310	         7.45019e+57
          2027.56940	         5.83800e+57
          2028.37570	         6.09775e+57
          2029.18200	         7.34472e+57
          2029.98830	         6.36275e+57
          2030.79460	         6.43862e+57
          2031.60090	         6.44294e+57
          2032.40720	         6.32450e+57
          2033.21350	         5.23255e+57
          2034.01980	         5.18472e+57
          2034.82610	         5.04249e+57
          2035.63240	         6.22609e+57
          2036.43870	         5.92240e+57
          2037.24500	         6.14100e+57
          2038.05130	         7.13227e+57
          2038.85760	         6.33847e+57
          2039.66390	         5.63895e+57
          2040.47020	         6.10889e+57
          2041.27650	         5.90531e+57
          2042.08280	         5.86613e+57
          2042.88910	         6.56183e+57
          2043.69540	         8.19742e+57
          2044.50170	         7.97113e+57
          2045.30800	         6.83475e+57
          2046.11430	         5.42045e+57
          2046.92060	         5.32560e+57
          2047.72690	         6.66205e+57
          2048.53320	         5.51424e+57
          2049.33950	         3.46100e+57
          2050.14580	         4.72009e+57
          2050.95210	         6.48908e+57
          2051.75840	         7.14679e+57
          2052.56470	         4.68460e+57
          2053.37100	         4.71384e+57
          2054.17730	         5.21276e+57
          2054.98360	         5.63977e+57
          2055.78990	         3.33342e+57
          2056.59620	         3.67525e+57
          2057.40250	         5.67152e+57
          2058.20880	         6.54326e+57
          2059.01510	         5.42914e+57
          2059.82140	         6.10096e+57
          2060.62770	         9.80346e+57
          2061.43400	         1.38072e+58
          2062.24030	         9.59739e+57
          2063.04660	         4.89478e+57
          2063.85290	         2.56099e+57
          2064.65920	        -4.87580e+57
          2065.46550	        -7.88103e+57
          2066.27180	        -8.94665e+57
          2067.07810	         3.82794e+57
          2067.88440	         4.15307e+57
          2068.69070	         5.50179e+57
          2069.49700	         5.55902e+57
          2070.30330	         4.38427e+57
          2071.10960	         5.09797e+57
          2071.91590	         6.35975e+57
          2072.72220	         5.20427e+57
          2073.52850	         5.35268e+57
          2074.33480	         5.38642e+57
          2075.14110	         6.14263e+57
          2075.94740	         6.08382e+57
          2076.75370	         5.66710e+57
          2077.56000	         4.56278e+57
          2078.36630	         4.92788e+57
          2079.17260	         5.39542e+57
          2079.97890	         6.01965e+57
          2080.78520	         6.46690e+57
          2081.59150	         4.75671e+57
          2082.39780	         4.50536e+57
          2083.20410	         2.37324e+57
          2084.01040	         7.70554e+56
          2084.81670	         3.17796e+57
          2085.62300	         3.38824e+57
          2086.42930	         2.27196e+57
          2087.23560	         3.66108e+57
          2088.04190	         3.38079e+57
          2088.84820	         3.79335e+57
          2089.65450	         2.50597e+57
          2090.46080	         2.00724e+57
          2091.26710	         3.02630e+57
          2092.07340	         3.28605e+57
          2092.87970	         4.15553e+57
          2093.68600	         5.47361e+56
          2094.49230	         1.38915e+57
          2095.29860	         4.87770e+57
          2096.10490	         4.55219e+57
          2096.91120	        -5.74161e+56
          2097.71750	        -7.51326e+56
          2098.52380	        -5.89731e+56
          2099.33010	        -3.69179e+56
          2100.13640	         9.84387e+56
          2100.94270	         3.04389e+57
          2101.74900	         3.61785e+57
          2102.55530	         2.73003e+57
          2103.36160	         1.72263e+57
          2104.16790	         3.77475e+57
          2104.97420	         2.84152e+57
          2105.78050	        -4.95453e+55
          2106.58680	         7.17618e+56
          2107.39310	        -2.96608e+57
          2108.19940	         1.12335e+57
          2109.00570	        -7.59192e+56
          2109.81200	        -1.21069e+57
          2110.61830	         1.82302e+57
          2111.42460	         1.05058e+57
          2112.23090	         2.70351e+57
          2113.03720	         1.57475e+57
          2113.84350	         9.66249e+56
          2114.64980	         8.08749e+57
          2115.45610	        -1.88722e+57
          2116.26240	        -6.48792e+57
          2117.06870	         3.59559e+57
          2117.87500	         4.77667e+56
          2118.68130	         1.98271e+57
          2119.48760	         1.25378e+57
          2120.29390	         3.77504e+57
          2121.10020	        -1.25762e+57
          2121.90650	        -2.61305e+57
          2122.71280	         2.55464e+57
          2123.51910	         6.14085e+57
          2124.32540	         3.97882e+57
          2125.13170	        -1.42663e+57
          2125.93800	         8.15075e+57
          2126.74430	         1.45137e+57
          2127.55060	        -6.35289e+57
          2128.35690	        -2.51782e+57
          2129.16320	        -9.52083e+57
          2129.96950	         4.14044e+56
          2130.77580	        -1.89721e+57
          2131.58210	        -3.72422e+57
          2132.38840	         3.49119e+56
          2133.19470	        -3.48860e+57
          2134.00100	        -2.12013e+57
          2134.80730	        -8.18143e+57
          2135.61360	        -1.95224e+57
          2136.41990	        -8.19537e+56
          2137.22620	        -5.53336e+57
          2138.03250	         6.28458e+57
          2138.83880	         4.73747e+56
          2139.64510	        -6.62965e+57
          2140.45140	        -9.49682e+57
          2141.25770	        -5.98567e+57
          2142.06400	        -4.75196e+57
          2142.87030	         4.45538e+56
          2143.67660	         6.35368e+57
          2144.48290	         6.46135e+57
          2145.28920	         1.48207e+58
          2146.09550	        -6.76149e+57
          2146.90180	        -9.14752e+57
          2147.70810	        -1.37479e+58
          2148.51440	        -7.65978e+57
          2149.32070	        -1.19067e+58
          2150.12700	        -1.17568e+58
          2150.93330	        -5.65811e+56
          2151.73960	         4.18382e+57
          2152.54590	         1.45261e+56
          2153.35220	        -1.48656e+57
          2154.15850	        -4.75130e+57
          2154.96480	         8.03969e+57
          2155.77110	        -8.75619e+57
          2156.57740	        -1.27844e+58
          2157.38370	        -8.37068e+56
          2158.19000	        -1.98047e+57
          2158.99630	         1.95326e+56
          2159.80260	        -7.88616e+57
          2160.60890	        -4.27052e+57
          2161.41520	        -1.04262e+58
          2162.22150	        -3.24048e+57
          2163.02780	        -1.62084e+57
          2163.83410	         1.05645e+57
          2164.64040	        -7.58283e+57
          2165.44670	        -1.04575e+58
          2166.25300	        -5.66108e+57
          2167.05930	        -8.08472e+57
          2167.86560	        -8.61636e+57
          2168.67190	         5.44686e+57
          2169.47820	         2.19253e+57
          2170.28450	        -1.53835e+58
          2171.09080	        -1.86373e+57
          2171.89710	         9.21849e+56
          2172.70340	         4.40775e+57
          2173.50970	        -6.04563e+57
          2174.31600	        -1.06302e+57
          2175.12230	         4.24798e+57
          2175.92860	        -1.96939e+57
          2176.73490	        -1.29559e+58
          2177.54120	        -8.83658e+57
          2178.34750	        -6.53837e+57
          2179.15380	                 nan
          2179.96010	                 nan
          2180.76640	                 nan
          2181.57270	                 nan
          2182.37900	                 nan
          2183.18530	                 nan
          2183.99160	                 nan
          2184.79790	                 nan
          2185.60420	                 nan
          2186.41050	                 nan
          2187.21680	                 nan
          2188.02310	                 nan
          2188.82940	                 nan
          2189.63570	                 nan
          2190.44200	                 nan
          2191.24830	                 nan
          2192.05460	                 nan
          2192.86090	                 nan
          2193.66720	                 nan
          2194.47350	                 nan
          2195.27980	                 nan
          2196.08610	                 nan
          2196.89240	                 nan
          2197.69870	                 nan
          2198.50500	                 nan
          2199.31130	                 nan
          2200.11760	                 nan
          2200.92390	                 nan
          2201.73020	                 nan
          2202.53650	                 nan
          2203.34280	                 nan
          2204.14910	                 nan
          2204.95540	                 nan
          2205.76170	                 nan
          2206.56800	                 nan
          2207.37430	                 nan
          2208.18060	                 nan
          2208.98690	                 nan
          2209.79320	                 nan
          2210.59950	                 nan
          2211.40580	                 nan
          2212.21210	                 nan
          2213.01840	                 nan
          2213.82470	                 nan
          2214.63100	                 nan
          2215.43730	         0.00000e+00
