#sample_385_stacked_spectrum_rest_UV-bands_median_H-alpha_noDC.txt
#median Lum: 1.71301e+42
#Rest-frame wavelength (A) | Luminosity (erg/s/A)
#
          1110.00000	         0.00000e+00
          1110.80630	         3.12263e+59
          1111.61260	         3.12973e+59
          1112.41890	         2.33027e+59
          1113.22520	        -1.88516e+59
          1114.03150	        -2.85301e+59
          1114.83780	         1.41405e+59
          1115.64410	         2.01571e+59
          1116.45040	         2.79612e+59
          1117.25670	         3.21088e+58
          1118.06300	         3.42142e+58
          1118.86930	        -4.27442e+58
          1119.67560	         1.23865e+59
          1120.48190	         4.61281e+58
          1121.28820	        -1.12612e+59
          1122.09450	        -1.88091e+58
          1122.90080	         3.08123e+58
          1123.70710	         9.71631e+58
          1124.51340	         1.06433e+59
          1125.31970	         2.65868e+58
          1126.12600	        -7.65219e+57
          1126.93230	        -6.83132e+58
          1127.73860	        -8.85847e+58
          1128.54490	        -2.74186e+58
          1129.35120	        -3.71997e+58
          1130.15750	        -4.11459e+58
          1130.96380	        -1.01839e+58
          1131.77010	         6.69894e+58
          1132.57640	         6.16483e+58
          1133.38270	         3.11289e+58
          1134.18900	         2.04919e+58
          1134.99530	         4.61319e+58
          1135.80160	         4.13307e+58
          1136.60790	        -1.57502e+56
          1137.41420	        -1.13930e+58
          1138.22050	         3.94880e+58
          1139.02680	         4.00565e+58
          1139.83310	         5.01687e+57
          1140.63940	         1.91199e+58
          1141.44570	        -1.84639e+58
          1142.25200	        -1.43476e+57
          1143.05830	         2.42736e+58
          1143.86460	         2.70813e+58
          1144.67090	         2.23719e+58
          1145.47720	         1.36822e+58
          1146.28350	         3.04437e+57
          1147.08980	         1.18190e+58
          1147.89610	         2.16255e+58
          1148.70240	         1.92661e+58
          1149.50870	         3.46670e+58
          1150.31500	         2.19150e+58
          1151.12130	         2.19715e+57
          1151.92760	         7.93634e+57
          1152.73390	         1.05620e+58
          1153.54020	         2.34115e+57
          1154.34650	         1.77410e+58
          1155.15280	         1.95573e+58
          1155.95910	         7.05514e+57
          1156.76540	         8.61955e+57
          1157.57170	         2.28806e+57
          1158.37800	         5.19216e+57
          1159.18430	         5.86408e+57
          1159.99060	         1.28047e+58
          1160.79690	         6.71961e+57
          1161.60320	         5.95424e+57
          1162.40950	         4.12713e+57
          1163.21580	         5.79285e+57
          1164.02210	         1.17286e+58
          1164.82840	         8.39647e+57
          1165.63470	         2.12119e+58
          1166.44100	         2.25004e+58
          1167.24730	         1.54529e+58
          1168.05360	         9.91340e+57
          1168.85990	         8.00612e+57
          1169.66620	         1.06864e+58
          1170.47250	         7.70941e+57
          1171.27880	         1.53731e+58
          1172.08510	         2.08020e+58
          1172.89140	         8.68820e+57
          1173.69770	        -9.14641e+56
          1174.50400	         1.08556e+58
          1175.31030	         1.93634e+58
          1176.11660	         1.59290e+58
          1176.92290	         1.42104e+58
          1177.72920	         1.03716e+58
          1178.53550	         6.43769e+57
          1179.34180	         2.30754e+57
          1180.14810	         7.28148e+57
          1180.95440	         1.31914e+58
          1181.76070	         1.11872e+58
          1182.56700	         1.05485e+58
          1183.37330	         1.07629e+58
          1184.17960	         1.52477e+58
          1184.98590	         1.19238e+58
          1185.79220	         6.96629e+57
          1186.59850	         9.18695e+57
          1187.40480	         1.46123e+58
          1188.21110	         1.56323e+58
          1189.01740	         6.27973e+57
          1189.82370	         1.21041e+58
          1190.63000	         1.72497e+58
          1191.43630	         1.37457e+58
          1192.24260	         8.01708e+57
          1193.04890	         1.02922e+58
          1193.85520	         1.18761e+58
          1194.66150	         7.30611e+57
          1195.46780	         9.57962e+57
          1196.27410	         1.69287e+58
          1197.08040	         1.42955e+58
          1197.88670	         1.42953e+58
          1198.69300	         1.22209e+58
          1199.49930	         1.37977e+58
          1200.30560	         1.38701e+58
          1201.11190	         1.37681e+58
          1201.91820	         1.18377e+58
          1202.72450	         1.22641e+58
          1203.53080	         1.85433e+58
          1204.33710	         8.64403e+57
          1205.14340	         7.52785e+57
          1205.94970	         6.65520e+57
          1206.75600	         3.82424e+57
          1207.56230	         6.41879e+57
          1208.36860	         6.58259e+57
          1209.17490	         4.08104e+57
          1209.98120	         7.04633e+57
          1210.78750	         9.21975e+57
          1211.59380	         9.93261e+57
          1212.40010	         1.48830e+58
          1213.20640	         2.43838e+58
          1214.01270	         2.25175e+58
          1214.81900	         2.69358e+58
          1215.62530	         4.43377e+58
          1216.43160	         8.83403e+58
          1217.23790	         1.51981e+59
          1218.04420	         1.18707e+59
          1218.85050	         9.32300e+58
          1219.65680	         5.37153e+58
          1220.46310	         3.10846e+58
          1221.26940	         2.54511e+58
          1222.07570	         1.41291e+58
          1222.88200	         9.29069e+57
          1223.68830	         7.06973e+57
          1224.49460	         5.79759e+57
          1225.30090	         5.69450e+57
          1226.10720	         7.35066e+57
          1226.91350	         5.80960e+57
          1227.71980	         8.75731e+57
          1228.52610	         1.26530e+58
          1229.33240	         8.95218e+57
          1230.13870	         8.37841e+57
          1230.94500	         8.16823e+57
          1231.75130	         9.66332e+57
          1232.55760	         1.18007e+58
          1233.36390	         1.10451e+58
          1234.17020	         8.38516e+57
          1234.97650	         7.36333e+57
          1235.78280	         6.46653e+57
          1236.58910	         6.48369e+57
          1237.39540	         1.05132e+58
          1238.20170	         1.12422e+58
          1239.00800	         1.22461e+58
          1239.81430	         1.61212e+58
          1240.62060	         1.36956e+58
          1241.42690	         1.05261e+58
          1242.23320	         1.22342e+58
          1243.03950	         1.00493e+58
          1243.84580	         8.65859e+57
          1244.65210	         1.18335e+58
          1245.45840	         1.19634e+58
          1246.26470	         9.37971e+57
          1247.07100	         7.60222e+57
          1247.87730	         4.55045e+57
          1248.68360	         4.11327e+57
          1249.48990	         6.53675e+57
          1250.29620	         1.06018e+58
          1251.10250	         1.02538e+58
          1251.90880	         8.06590e+57
          1252.71510	         8.76511e+57
          1253.52140	         8.32482e+57
          1254.32770	         1.16941e+58
          1255.13400	         1.38256e+58
          1255.94030	         1.10291e+58
          1256.74660	         9.11633e+57
          1257.55290	         9.33685e+57
          1258.35920	         8.59151e+57
          1259.16550	         4.90900e+57
          1259.97180	         5.63144e+57
          1260.77810	         7.57869e+57
          1261.58440	         9.35871e+57
          1262.39070	         9.07538e+57
          1263.19700	         1.00135e+58
          1264.00330	         9.88875e+57
          1264.80960	         1.07452e+58
          1265.61590	         1.15796e+58
          1266.42220	         1.20166e+58
          1267.22850	         1.06025e+58
          1268.03480	         1.27733e+58
          1268.84110	         1.44251e+58
          1269.64740	         1.43652e+58
          1270.45370	         1.44014e+58
          1271.26000	         1.32397e+58
          1272.06630	         1.48007e+58
          1272.87260	         1.48539e+58
          1273.67890	         1.30324e+58
          1274.48520	         1.17944e+58
          1275.29150	         1.23141e+58
          1276.09780	         1.10625e+58
          1276.90410	         1.28548e+58
          1277.71040	         1.40456e+58
          1278.51670	         1.32305e+58
          1279.32300	         1.55531e+58
          1280.12930	         1.41544e+58
          1280.93560	         1.25015e+58
          1281.74190	         1.15499e+58
          1282.54820	         1.21330e+58
          1283.35450	         1.11430e+58
          1284.16080	         1.18314e+58
          1284.96710	         1.45647e+58
          1285.77340	         1.23020e+58
          1286.57970	         1.13016e+58
          1287.38600	         1.45588e+58
          1288.19230	         1.75882e+58
          1288.99860	         1.60813e+58
          1289.80490	         1.40958e+58
          1290.61120	         1.41601e+58
          1291.41750	         1.43857e+58
          1292.22380	         1.35428e+58
          1293.03010	         1.30148e+58
          1293.83640	         1.39710e+58
          1294.64270	         9.43901e+57
          1295.44900	         5.81056e+57
          1296.25530	         7.98531e+57
          1297.06160	         1.13159e+58
          1297.86790	         1.19579e+58
          1298.67420	         1.05340e+58
          1299.48050	         1.01081e+58
          1300.28680	         1.01779e+58
          1301.09310	         7.50026e+57
          1301.89940	         3.03846e+57
          1302.70570	         6.35132e+57
          1303.51200	         9.46028e+57
          1304.31830	         1.08322e+58
          1305.12460	         1.02502e+58
          1305.93090	         1.03890e+58
          1306.73720	         1.37784e+58
          1307.54350	         1.54358e+58
          1308.34980	         1.63861e+58
          1309.15610	         1.72572e+58
          1309.96240	         1.59687e+58
          1310.76870	         1.37581e+58
          1311.57500	         1.14746e+58
          1312.38130	         1.07863e+58
          1313.18760	         1.17828e+58
          1313.99390	         1.39090e+58
          1314.80020	         1.53713e+58
          1315.60650	         1.57022e+58
          1316.41280	         1.28484e+58
          1317.21910	         1.13677e+58
          1318.02540	         1.23914e+58
          1318.83170	         1.42017e+58
          1319.63800	         1.38549e+58
          1320.44430	         1.21063e+58
          1321.25060	         1.17603e+58
          1322.05690	         1.10326e+58
          1322.86320	         1.13150e+58
          1323.66950	         1.10146e+58
          1324.47580	         9.19634e+57
          1325.28210	         1.03868e+58
          1326.08840	         1.23816e+58
          1326.89470	         1.34171e+58
          1327.70100	         1.29682e+58
          1328.50730	         9.53968e+57
          1329.31360	         9.95784e+57
          1330.11990	         1.04892e+58
          1330.92620	         1.02241e+58
          1331.73250	         1.05531e+58
          1332.53880	         9.63527e+57
          1333.34510	         9.13842e+57
          1334.15140	         1.04838e+58
          1334.95770	         9.93129e+57
          1335.76400	         9.89194e+57
          1336.57030	         1.05010e+58
          1337.37660	         9.67091e+57
          1338.18290	         1.14784e+58
          1338.98920	         1.30953e+58
          1339.79550	         1.25849e+58
          1340.60180	         1.17522e+58
          1341.40810	         1.26755e+58
          1342.21440	         1.17620e+58
          1343.02070	         1.30665e+58
          1343.82700	         1.48593e+58
          1344.63330	         1.20123e+58
          1345.43960	         1.26394e+58
          1346.24590	         1.27287e+58
          1347.05220	         1.17094e+58
          1347.85850	         1.03038e+58
          1348.66480	         1.19376e+58
          1349.47110	         1.22926e+58
          1350.27740	         1.18345e+58
          1351.08370	         1.25504e+58
          1351.89000	         1.24562e+58
          1352.69630	         1.20619e+58
          1353.50260	         1.06924e+58
          1354.30890	         1.01645e+58
          1355.11520	         1.12496e+58
          1355.92150	         1.17037e+58
          1356.72780	         1.03263e+58
          1357.53410	         9.81261e+57
          1358.34040	         1.08265e+58
          1359.14670	         1.11280e+58
          1359.95300	         1.17561e+58
          1360.75930	         1.23603e+58
          1361.56560	         1.04735e+58
          1362.37190	         1.13998e+58
          1363.17820	         1.18822e+58
          1363.98450	         1.28383e+58
          1364.79080	         1.34272e+58
          1365.59710	         1.32599e+58
          1366.40340	         1.18567e+58
          1367.20970	         8.93544e+57
          1368.01600	         7.94587e+57
          1368.82230	         7.21663e+57
          1369.62860	         8.01725e+57
          1370.43490	         9.17678e+57
          1371.24120	         1.01783e+58
          1372.04750	         9.56938e+57
          1372.85380	         1.21070e+58
          1373.66010	         1.25928e+58
          1374.46640	         1.05095e+58
          1375.27270	         1.14613e+58
          1376.07900	         9.30596e+57
          1376.88530	         8.17038e+57
          1377.69160	         9.05551e+57
          1378.49790	         7.24100e+57
          1379.30420	         8.39628e+57
          1380.11050	         9.91716e+57
          1380.91680	         8.43779e+57
          1381.72310	         8.45204e+57
          1382.52940	         8.63398e+57
          1383.33570	         9.64035e+57
          1384.14200	         1.08620e+58
          1384.94830	         1.19458e+58
          1385.75460	         1.24331e+58
          1386.56090	         1.11397e+58
          1387.36720	         9.96935e+57
          1388.17350	         1.20625e+58
          1388.97980	         1.11859e+58
          1389.78610	         8.84103e+57
          1390.59240	         8.61334e+57
          1391.39870	         8.02317e+57
          1392.20500	         7.53021e+57
          1393.01130	         7.46588e+57
          1393.81760	         7.02089e+57
          1394.62390	         6.89204e+57
          1395.43020	         6.51279e+57
          1396.23650	         6.61358e+57
          1397.04280	         6.52580e+57
          1397.84910	         8.53222e+57
          1398.65540	         8.88099e+57
          1399.46170	         9.24777e+57
          1400.26800	         8.87787e+57
          1401.07430	         9.14595e+57
          1401.88060	         9.14713e+57
          1402.68690	         9.81036e+57
          1403.49320	         9.08761e+57
          1404.29950	         8.97404e+57
          1405.10580	         1.06289e+58
          1405.91210	         1.04201e+58
          1406.71840	         1.09249e+58
          1407.52470	         1.04906e+58
          1408.33100	         9.37635e+57
          1409.13730	         1.08209e+58
          1409.94360	         1.07889e+58
          1410.74990	         1.12140e+58
          1411.55620	         1.11078e+58
          1412.36250	         9.12760e+57
          1413.16880	         7.60861e+57
          1413.97510	         8.50219e+57
          1414.78140	         8.43684e+57
          1415.58770	         1.06811e+58
          1416.39400	         1.23014e+58
          1417.20030	         1.28473e+58
          1418.00660	         1.05133e+58
          1418.81290	         1.07094e+58
          1419.61920	         1.10126e+58
          1420.42550	         1.25192e+58
          1421.23180	         1.37081e+58
          1422.03810	         1.27261e+58
          1422.84440	         1.21758e+58
          1423.65070	         1.33055e+58
          1424.45700	         1.10090e+58
          1425.26330	         7.82623e+57
          1426.06960	         8.00659e+57
          1426.87590	         1.03022e+58
          1427.68220	         1.06864e+58
          1428.48850	         1.05709e+58
          1429.29480	         1.02283e+58
          1430.10110	         1.04382e+58
          1430.90740	         8.99738e+57
          1431.71370	         8.10876e+57
          1432.52000	         8.64307e+57
          1433.32630	         8.10741e+57
          1434.13260	         7.75006e+57
          1434.93890	         8.93806e+57
          1435.74520	         9.51729e+57
          1436.55150	         1.00567e+58
          1437.35780	         9.34866e+57
          1438.16410	         9.37208e+57
          1438.97040	         9.51922e+57
          1439.77670	         9.17074e+57
          1440.58300	         8.81107e+57
          1441.38930	         9.19918e+57
          1442.19560	         1.00616e+58
          1443.00190	         1.04860e+58
          1443.80820	         1.17024e+58
          1444.61450	         1.06566e+58
          1445.42080	         1.04025e+58
          1446.22710	         1.09673e+58
          1447.03340	         1.01162e+58
          1447.83970	         1.01049e+58
          1448.64600	         1.02953e+58
          1449.45230	         1.01661e+58
          1450.25860	         1.08260e+58
          1451.06490	         1.04444e+58
          1451.87120	         8.48164e+57
          1452.67750	         7.75757e+57
          1453.48380	         9.76666e+57
          1454.29010	         9.00863e+57
          1455.09640	         8.00684e+57
          1455.90270	         8.93500e+57
          1456.70900	         9.05556e+57
          1457.51530	         9.73604e+57
          1458.32160	         1.11671e+58
          1459.12790	         1.05049e+58
          1459.93420	         8.43037e+57
          1460.74050	         7.05580e+57
          1461.54680	         9.37925e+57
          1462.35310	         8.75051e+57
          1463.15940	         9.07593e+57
          1463.96570	         1.05608e+58
          1464.77200	         1.18475e+58
          1465.57830	         1.06734e+58
          1466.38460	         9.34582e+57
          1467.19090	         9.41540e+57
          1467.99720	         8.80517e+57
          1468.80350	         8.56942e+57
          1469.60980	         1.00901e+58
          1470.41610	         1.08680e+58
          1471.22240	         8.84660e+57
          1472.02870	         9.52299e+57
          1472.83500	         1.01099e+58
          1473.64130	         8.61562e+57
          1474.44760	         8.37911e+57
          1475.25390	         9.11075e+57
          1476.06020	         8.78698e+57
          1476.86650	         9.55429e+57
          1477.67280	         9.02168e+57
          1478.47910	         8.24008e+57
          1479.28540	         8.79132e+57
          1480.09170	         9.11251e+57
          1480.89800	         7.95506e+57
          1481.70430	         8.27785e+57
          1482.51060	         8.32061e+57
          1483.31690	         7.53531e+57
          1484.12320	         7.16471e+57
          1484.92950	         6.85528e+57
          1485.73580	         8.71152e+57
          1486.54210	         9.00877e+57
          1487.34840	         8.74162e+57
          1488.15470	         9.37731e+57
          1488.96100	         1.03224e+58
          1489.76730	         1.00194e+58
          1490.57360	         8.69132e+57
          1491.37990	         8.40410e+57
          1492.18620	         8.64028e+57
          1492.99250	         8.56366e+57
          1493.79880	         8.63783e+57
          1494.60510	         8.88484e+57
          1495.41140	         7.79584e+57
          1496.21770	         8.16024e+57
          1497.02400	         1.05454e+58
          1497.83030	         9.82510e+57
          1498.63660	         7.85285e+57
          1499.44290	         6.84428e+57
          1500.24920	         6.66067e+57
          1501.05550	         8.49337e+57
          1501.86180	         8.76254e+57
          1502.66810	         8.62975e+57
          1503.47440	         9.32898e+57
          1504.28070	         9.46940e+57
          1505.08700	         9.65276e+57
          1505.89330	         9.68924e+57
          1506.69960	         8.26239e+57
          1507.50590	         8.39345e+57
          1508.31220	         8.58939e+57
          1509.11850	         9.23337e+57
          1509.92480	         9.73159e+57
          1510.73110	         9.63973e+57
          1511.53740	         7.36891e+57
          1512.34370	         6.71268e+57
          1513.15000	         8.73517e+57
          1513.95630	         1.02042e+58
          1514.76260	         9.32526e+57
          1515.56890	         8.82644e+57
          1516.37520	         8.90084e+57
          1517.18150	         8.31316e+57
          1517.98780	         7.48277e+57
          1518.79410	         7.50174e+57
          1519.60040	         7.82874e+57
          1520.40670	         9.43419e+57
          1521.21300	         9.54639e+57
          1522.01930	         8.12854e+57
          1522.82560	         8.86992e+57
          1523.63190	         9.85189e+57
          1524.43820	         8.18112e+57
          1525.24450	         5.66237e+57
          1526.05080	         6.39568e+57
          1526.85710	         6.83821e+57
          1527.66340	         6.49667e+57
          1528.46970	         8.07661e+57
          1529.27600	         8.27477e+57
          1530.08230	         7.48223e+57
          1530.88860	         7.55476e+57
          1531.69490	         8.62897e+57
          1532.50120	         1.01217e+58
          1533.30750	         1.01294e+58
          1534.11380	         9.20547e+57
          1534.92010	         8.35250e+57
          1535.72640	         8.95229e+57
          1536.53270	         9.36773e+57
          1537.33900	         9.01783e+57
          1538.14530	         8.66284e+57
          1538.95160	         8.65249e+57
          1539.75790	         8.97994e+57
          1540.56420	         9.21363e+57
          1541.37050	         8.51121e+57
          1542.17680	         6.86566e+57
          1542.98310	         7.09234e+57
          1543.78940	         7.99252e+57
          1544.59570	         7.42214e+57
          1545.40200	         8.99355e+57
          1546.20830	         1.05630e+58
          1547.01460	         1.18833e+58
          1547.82090	         1.10401e+58
          1548.62720	         1.18193e+58
          1549.43350	         1.17214e+58
          1550.23980	         1.10028e+58
          1551.04610	         1.21915e+58
          1551.85240	         1.29710e+58
          1552.65870	         1.18710e+58
          1553.46500	         9.49322e+57
          1554.27130	         9.52410e+57
          1555.07760	         9.94084e+57
          1555.88390	         9.23943e+57
          1556.69020	         9.54516e+57
          1557.49650	         1.02834e+58
          1558.30280	         9.63737e+57
          1559.10910	         8.69783e+57
          1559.91540	         8.89139e+57
          1560.72170	         9.07383e+57
          1561.52800	         9.27783e+57
          1562.33430	         8.65765e+57
          1563.14060	         7.74084e+57
          1563.94690	         8.13042e+57
          1564.75320	         8.70231e+57
          1565.55950	         7.67797e+57
          1566.36580	         8.23649e+57
          1567.17210	         9.50310e+57
          1567.97840	         8.67156e+57
          1568.78470	         8.50895e+57
          1569.59100	         9.30510e+57
          1570.39730	         9.10465e+57
          1571.20360	         7.27569e+57
          1572.00990	         6.76233e+57
          1572.81620	         8.16086e+57
          1573.62250	         9.65072e+57
          1574.42880	         8.95429e+57
          1575.23510	         8.43522e+57
          1576.04140	         9.30020e+57
          1576.84770	         9.79735e+57
          1577.65400	         9.88961e+57
          1578.46030	         1.10251e+58
          1579.26660	         1.11878e+58
          1580.07290	         9.90308e+57
          1580.87920	         7.23169e+57
          1581.68550	         8.11394e+57
          1582.49180	         8.64684e+57
          1583.29810	         7.35613e+57
          1584.10440	         8.66793e+57
          1584.91070	         9.96889e+57
          1585.71700	         9.58597e+57
          1586.52330	         8.94956e+57
          1587.32960	         8.55703e+57
          1588.13590	         8.48566e+57
          1588.94220	         8.85044e+57
          1589.74850	         9.61503e+57
          1590.55480	         9.42104e+57
          1591.36110	         8.67833e+57
          1592.16740	         8.62869e+57
          1592.97370	         8.86989e+57
          1593.78000	         9.14604e+57
          1594.58630	         9.89829e+57
          1595.39260	         8.37368e+57
          1596.19890	         8.72038e+57
          1597.00520	         9.62931e+57
          1597.81150	         9.35259e+57
          1598.61780	         8.37935e+57
          1599.42410	         7.25157e+57
          1600.23040	         6.61367e+57
          1601.03670	         8.05106e+57
          1601.84300	         7.82781e+57
          1602.64930	         8.27608e+57
          1603.45560	         9.78870e+57
          1604.26190	         8.60445e+57
          1605.06820	         7.69098e+57
          1605.87450	         7.24514e+57
          1606.68080	         6.27354e+57
          1607.48710	         6.61732e+57
          1608.29340	         6.75496e+57
          1609.09970	         6.52391e+57
          1609.90600	         7.50158e+57
          1610.71230	         7.57802e+57
          1611.51860	         8.10576e+57
          1612.32490	         7.90794e+57
          1613.13120	         8.37152e+57
          1613.93750	         8.15414e+57
          1614.74380	         8.62378e+57
          1615.55010	         9.24573e+57
          1616.35640	         8.79641e+57
          1617.16270	         9.64093e+57
          1617.96900	         9.78540e+57
          1618.77530	         8.75119e+57
          1619.58160	         8.74964e+57
          1620.38790	         8.84711e+57
          1621.19420	         9.25238e+57
          1622.00050	         8.45203e+57
          1622.80680	         8.90793e+57
          1623.61310	         8.21632e+57
          1624.41940	         7.88560e+57
          1625.22570	         9.22684e+57
          1626.03200	         8.65064e+57
          1626.83830	         8.33460e+57
          1627.64460	         7.95531e+57
          1628.45090	         7.43130e+57
          1629.25720	         8.49711e+57
          1630.06350	         8.85511e+57
          1630.86980	         5.71843e+57
          1631.67610	         6.96844e+57
          1632.48240	         8.67086e+57
          1633.28870	         8.47465e+57
          1634.09500	         9.11269e+57
          1634.90130	         1.15027e+58
          1635.70760	         1.02552e+58
          1636.51390	         7.72181e+57
          1637.32020	         7.88674e+57
          1638.12650	         1.00613e+58
          1638.93280	         1.01878e+58
          1639.73910	         1.09682e+58
          1640.54540	         1.07457e+58
          1641.35170	         8.25515e+57
          1642.15800	         7.53671e+57
          1642.96430	         8.02989e+57
          1643.77060	         8.17877e+57
          1644.57690	         8.52532e+57
          1645.38320	         8.91656e+57
          1646.18950	         7.51273e+57
          1646.99580	         8.18862e+57
          1647.80210	         7.87375e+57
          1648.60840	         7.72631e+57
          1649.41470	         7.81088e+57
          1650.22100	         7.77586e+57
          1651.02730	         7.41235e+57
          1651.83360	         8.21295e+57
          1652.63990	         8.71521e+57
          1653.44620	         8.85815e+57
          1654.25250	         8.36288e+57
          1655.05880	         7.66326e+57
          1655.86510	         8.52845e+57
          1656.67140	         8.67735e+57
          1657.47770	         8.06347e+57
          1658.28400	         7.75392e+57
          1659.09030	         8.44620e+57
          1659.89660	         8.94610e+57
          1660.70290	         9.38436e+57
          1661.50920	         1.00088e+58
          1662.31550	         8.16018e+57
          1663.12180	         7.63986e+57
          1663.92810	         9.20731e+57
          1664.73440	         1.06146e+58
          1665.54070	         1.22663e+58
          1666.34700	         1.29280e+58
          1667.15330	         1.20185e+58
          1667.95960	         9.41140e+57
          1668.76590	         7.58296e+57
          1669.57220	         7.17476e+57
          1670.37850	         7.24833e+57
          1671.18480	         7.84793e+57
          1671.99110	         7.96554e+57
          1672.79740	         6.84993e+57
          1673.60370	         6.11644e+57
          1674.41000	         6.22264e+57
          1675.21630	         6.21101e+57
          1676.02260	         6.66854e+57
          1676.82890	         6.00675e+57
          1677.63520	         6.06483e+57
          1678.44150	         8.18087e+57
          1679.24780	         8.63917e+57
          1680.05410	         7.94822e+57
          1680.86040	         7.46931e+57
          1681.66670	         7.77350e+57
          1682.47300	         8.89409e+57
          1683.27930	         8.20054e+57
          1684.08560	         8.10763e+57
          1684.89190	         7.66139e+57
          1685.69820	         6.49592e+57
          1686.50450	         5.33916e+57
          1687.31080	         7.57328e+57
          1688.11710	         8.87952e+57
          1688.92340	         7.33250e+57
          1689.72970	         6.38519e+57
          1690.53600	         6.31804e+57
          1691.34230	         6.95198e+57
          1692.14860	         7.62984e+57
          1692.95490	         7.96376e+57
          1693.76120	         7.79309e+57
          1694.56750	         7.90188e+57
          1695.37380	         8.50450e+57
          1696.18010	         8.66957e+57
          1696.98640	         7.38696e+57
          1697.79270	         7.48397e+57
          1698.59900	         7.88535e+57
          1699.40530	         7.97678e+57
          1700.21160	         8.06121e+57
          1701.01790	         8.58913e+57
          1701.82420	         7.66968e+57
          1702.63050	         7.81087e+57
          1703.43680	         8.93753e+57
          1704.24310	         8.87299e+57
          1705.04940	         7.42679e+57
          1705.85570	         8.37131e+57
          1706.66200	         8.62254e+57
          1707.46830	         8.40556e+57
          1708.27460	         7.00106e+57
          1709.08090	         6.86131e+57
          1709.88720	         7.28399e+57
          1710.69350	         6.46612e+57
          1711.49980	         7.12611e+57
          1712.30610	         7.49946e+57
          1713.11240	         8.79150e+57
          1713.91870	         8.17129e+57
          1714.72500	         8.54443e+57
          1715.53130	         1.00461e+58
          1716.33760	         9.41174e+57
          1717.14390	         7.79479e+57
          1717.95020	         8.19518e+57
          1718.75650	         9.16394e+57
          1719.56280	         7.66449e+57
          1720.36910	         7.59411e+57
          1721.17540	         7.41962e+57
          1721.98170	         6.50813e+57
          1722.78800	         5.93018e+57
          1723.59430	         7.38390e+57
          1724.40060	         8.99338e+57
          1725.20690	         9.25365e+57
          1726.01320	         7.48035e+57
          1726.81950	         6.90468e+57
          1727.62580	         6.53517e+57
          1728.43210	         5.81088e+57
          1729.23840	         7.21322e+57
          1730.04470	         8.61701e+57
          1730.85100	         9.46796e+57
          1731.65730	         8.25311e+57
          1732.46360	         7.16698e+57
          1733.26990	         7.43793e+57
          1734.07620	         7.11423e+57
          1734.88250	         7.86197e+57
          1735.68880	         8.30866e+57
          1736.49510	         7.69457e+57
          1737.30140	         8.21770e+57
          1738.10770	         7.74123e+57
          1738.91400	         8.06307e+57
          1739.72030	         8.10505e+57
          1740.52660	         6.50113e+57
          1741.33290	         6.57737e+57
          1742.13920	         6.12929e+57
          1742.94550	         7.42188e+57
          1743.75180	         7.39174e+57
          1744.55810	         6.94272e+57
          1745.36440	         7.24901e+57
          1746.17070	         4.85844e+57
          1746.97700	         5.04649e+57
          1747.78330	         6.97729e+57
          1748.58960	         7.66627e+57
          1749.39590	         7.15648e+57
          1750.20220	         6.59173e+57
          1751.00850	         6.42947e+57
          1751.81480	         5.73351e+57
          1752.62110	         7.20214e+57
          1753.42740	         8.90117e+57
          1754.23370	         7.90153e+57
          1755.04000	         7.81529e+57
          1755.84630	         7.63410e+57
          1756.65260	         8.98831e+57
          1757.45890	         9.06749e+57
          1758.26520	         7.88263e+57
          1759.07150	         8.98790e+57
          1759.87780	         8.18085e+57
          1760.68410	         8.09537e+57
          1761.49040	         7.71889e+57
          1762.29670	         6.19757e+57
          1763.10300	         7.26397e+57
          1763.90930	         9.21228e+57
          1764.71560	         8.57832e+57
          1765.52190	         8.58153e+57
          1766.32820	         8.47722e+57
          1767.13450	         8.24102e+57
          1767.94080	         7.09569e+57
          1768.74710	         6.63059e+57
          1769.55340	         6.44277e+57
          1770.35970	         6.01332e+57
          1771.16600	         7.13861e+57
          1771.97230	         7.28319e+57
          1772.77860	         8.38784e+57
          1773.58490	         7.83651e+57
          1774.39120	         6.46743e+57
          1775.19750	         6.30389e+57
          1776.00380	         7.02892e+57
          1776.81010	         7.14625e+57
          1777.61640	         7.04638e+57
          1778.42270	         6.52499e+57
          1779.22900	         6.94916e+57
          1780.03530	         8.02874e+57
          1780.84160	         8.33418e+57
          1781.64790	         9.47296e+57
          1782.45420	         8.86210e+57
          1783.26050	         7.19125e+57
          1784.06680	         7.41286e+57
          1784.87310	         7.71734e+57
          1785.67940	         7.76815e+57
          1786.48570	         7.14947e+57
          1787.29200	         6.86680e+57
          1788.09830	         6.73179e+57
          1788.90460	         6.05032e+57
          1789.71090	         5.85823e+57
          1790.51720	         5.35941e+57
          1791.32350	         7.29581e+57
          1792.12980	         8.84559e+57
          1792.93610	         8.31944e+57
          1793.74240	         7.28198e+57
          1794.54870	         8.25318e+57
          1795.35500	         8.64777e+57
          1796.16130	         7.50241e+57
          1796.96760	         6.94964e+57
          1797.77390	         7.54414e+57
          1798.58020	         7.26021e+57
          1799.38650	         6.36114e+57
          1800.19280	         8.16529e+57
          1800.99910	         8.97356e+57
          1801.80540	         8.24595e+57
          1802.61170	         8.11006e+57
          1803.41800	         7.60407e+57
          1804.22430	         6.34760e+57
          1805.03060	         6.93681e+57
          1805.83690	         7.69072e+57
          1806.64320	         7.72691e+57
          1807.44950	         8.13190e+57
          1808.25580	         6.98134e+57
          1809.06210	         7.94519e+57
          1809.86840	         8.76381e+57
          1810.67470	         8.10406e+57
          1811.48100	         7.76726e+57
          1812.28730	         8.06625e+57
          1813.09360	         7.94627e+57
          1813.89990	         8.16265e+57
          1814.70620	         7.45754e+57
          1815.51250	         8.42928e+57
          1816.31880	         7.84982e+57
          1817.12510	         6.95846e+57
          1817.93140	         6.11654e+57
          1818.73770	         7.34006e+57
          1819.54400	         9.28748e+57
          1820.35030	         8.32119e+57
          1821.15660	         6.19593e+57
          1821.96290	         7.03356e+57
          1822.76920	         7.71648e+57
          1823.57550	         6.88989e+57
          1824.38180	         7.10134e+57
          1825.18810	         8.39763e+57
          1825.99440	         8.68666e+57
          1826.80070	         7.37076e+57
          1827.60700	         6.09152e+57
          1828.41330	         6.79517e+57
          1829.21960	         7.54028e+57
          1830.02590	         7.75852e+57
          1830.83220	         9.00328e+57
          1831.63850	         8.64006e+57
          1832.44480	         7.46037e+57
          1833.25110	         7.88754e+57
          1834.05740	         8.20989e+57
          1834.86370	         7.30536e+57
          1835.67000	         5.93589e+57
          1836.47630	         7.67322e+57
          1837.28260	         9.12134e+57
          1838.08890	         8.52791e+57
          1838.89520	         8.34179e+57
          1839.70150	         8.05821e+57
          1840.50780	         7.35224e+57
          1841.31410	         6.85989e+57
          1842.12040	         7.18317e+57
          1842.92670	         7.23134e+57
          1843.73300	         7.21329e+57
          1844.53930	         7.63890e+57
          1845.34560	         8.04260e+57
          1846.15190	         7.36654e+57
          1846.95820	         7.43240e+57
          1847.76450	         7.48617e+57
          1848.57080	         6.01262e+57
          1849.37710	         6.03195e+57
          1850.18340	         7.26389e+57
          1850.98970	         7.12294e+57
          1851.79600	         8.74037e+57
          1852.60230	         7.71734e+57
          1853.40860	         7.12684e+57
          1854.21490	         7.90574e+57
          1855.02120	         6.38993e+57
          1855.82750	         3.16638e+57
          1856.63380	         5.16551e+57
          1857.44010	         7.17126e+57
          1858.24640	         6.96518e+57
          1859.05270	         8.02908e+57
          1859.85900	         7.19789e+57
          1860.66530	         7.41137e+57
          1861.47160	         7.51212e+57
          1862.27790	         7.31805e+57
          1863.08420	         8.10876e+57
          1863.89050	         8.57219e+57
          1864.69680	         8.21961e+57
          1865.50310	         7.93397e+57
          1866.30940	         6.92823e+57
          1867.11570	         6.34232e+57
          1867.92200	         7.41605e+57
          1868.72830	         7.89322e+57
          1869.53460	         6.88974e+57
          1870.34090	         8.15788e+57
          1871.14720	         8.54505e+57
          1871.95350	         7.36531e+57
          1872.75980	         7.59501e+57
          1873.56610	         6.90984e+57
          1874.37240	         5.74231e+57
          1875.17870	         6.31635e+57
          1875.98500	         8.22490e+57
          1876.79130	         7.64272e+57
          1877.59760	         7.14888e+57
          1878.40390	         6.40389e+57
          1879.21020	         7.13264e+57
          1880.01650	         8.80613e+57
          1880.82280	         9.00509e+57
          1881.62910	         9.15295e+57
          1882.43540	         9.91132e+57
          1883.24170	         8.53596e+57
          1884.04800	         7.04254e+57
          1884.85430	         6.68864e+57
          1885.66060	         7.66311e+57
          1886.46690	         7.63907e+57
          1887.27320	         6.95275e+57
          1888.07950	         6.50964e+57
          1888.88580	         6.98405e+57
          1889.69210	         9.56941e+57
          1890.49840	         7.81008e+57
          1891.30470	         6.92543e+57
          1892.11100	         8.49090e+57
          1892.91730	         8.34298e+57
          1893.72360	         7.35329e+57
          1894.52990	         7.53208e+57
          1895.33620	         7.70043e+57
          1896.14250	         6.71392e+57
          1896.94880	         6.06586e+57
          1897.75510	         4.55133e+57
          1898.56140	         5.01809e+57
          1899.36770	         6.81218e+57
          1900.17400	         5.94982e+57
          1900.98030	         5.84657e+57
          1901.78660	         7.33687e+57
          1902.59290	         7.30171e+57
          1903.39920	         7.73132e+57
          1904.20550	         8.89634e+57
          1905.01180	         9.13392e+57
          1905.81810	         9.57747e+57
          1906.62440	         1.18219e+58
          1907.43070	         1.49821e+58
          1908.23700	         1.69225e+58
          1909.04330	         1.37586e+58
          1909.84960	         1.10492e+58
          1910.65590	         9.77260e+57
          1911.46220	         9.15274e+57
          1912.26850	         8.07164e+57
          1913.07480	         7.36885e+57
          1913.88110	         6.68162e+57
          1914.68740	         6.60580e+57
          1915.49370	         6.01072e+57
          1916.30000	         6.39144e+57
          1917.10630	         6.68999e+57
          1917.91260	         6.71029e+57
          1918.71890	         6.58695e+57
          1919.52520	         6.32169e+57
          1920.33150	         6.86977e+57
          1921.13780	         7.35381e+57
          1921.94410	         7.74541e+57
          1922.75040	         7.54547e+57
          1923.55670	         7.88699e+57
          1924.36300	         7.42224e+57
          1925.16930	         6.72003e+57
          1925.97560	         6.32282e+57
          1926.78190	         5.58780e+57
          1927.58820	         5.94687e+57
          1928.39450	         6.08435e+57
          1929.20080	         5.68428e+57
          1930.00710	         5.62476e+57
          1930.81340	         7.84893e+57
          1931.61970	         8.19359e+57
          1932.42600	         7.31457e+57
          1933.23230	         8.11517e+57
          1934.03860	         7.21310e+57
          1934.84490	         5.78024e+57
          1935.65120	         9.74694e+57
          1936.45750	         1.08199e+58
          1937.26380	         8.21087e+57
          1938.07010	         7.07759e+57
          1938.87640	         7.79008e+57
          1939.68270	         7.67064e+57
          1940.48900	         8.46779e+57
          1941.29530	         8.20693e+57
          1942.10160	         8.38712e+57
          1942.90790	         8.15567e+57
          1943.71420	         7.59049e+57
          1944.52050	         7.07556e+57
          1945.32680	         5.42979e+57
          1946.13310	         7.08641e+57
          1946.93940	         8.24772e+57
          1947.74570	         7.36024e+57
          1948.55200	         6.98421e+57
          1949.35830	         7.43783e+57
          1950.16460	         6.34676e+57
          1950.97090	         6.18464e+57
          1951.77720	         7.60381e+57
          1952.58350	         7.09886e+57
          1953.38980	         5.61919e+57
          1954.19610	         4.00899e+57
          1955.00240	         5.57428e+57
          1955.80870	         6.05624e+57
          1956.61500	         5.37968e+57
          1957.42130	         6.24783e+57
          1958.22760	         7.43356e+57
          1959.03390	         7.57900e+57
          1959.84020	         6.99082e+57
          1960.64650	         7.59231e+57
          1961.45280	         7.34225e+57
          1962.25910	         5.66892e+57
          1963.06540	         6.41935e+57
          1963.87170	         6.32529e+57
          1964.67800	         6.98198e+57
          1965.48430	         7.16562e+57
          1966.29060	         6.85920e+57
          1967.09690	         7.76584e+57
          1967.90320	         6.97500e+57
          1968.70950	         7.29241e+57
          1969.51580	         7.13392e+57
          1970.32210	         6.97900e+57
          1971.12840	         6.95254e+57
          1971.93470	         3.98661e+57
          1972.74100	         4.96820e+57
          1973.54730	         6.30581e+57
          1974.35360	         6.19931e+57
          1975.15990	         7.33397e+57
          1975.96620	         7.50703e+57
          1976.77250	         8.73319e+57
          1977.57880	         8.09021e+57
          1978.38510	         7.18086e+57
          1979.19140	         7.16825e+57
          1979.99770	         7.28356e+57
          1980.80400	         7.31972e+57
          1981.61030	         7.51960e+57
          1982.41660	         6.16722e+57
          1983.22290	         6.76145e+57
          1984.02920	         6.30897e+57
          1984.83550	         6.76421e+57
          1985.64180	         7.16938e+57
          1986.44810	         6.50060e+57
          1987.25440	         6.23190e+57
          1988.06070	         5.55734e+57
          1988.86700	         6.74852e+57
          1989.67330	         7.47001e+57
          1990.47960	         6.41304e+57
          1991.28590	         6.45397e+57
          1992.09220	         6.02055e+57
          1992.89850	         5.67837e+57
          1993.70480	         6.12218e+57
          1994.51110	         5.84937e+57
          1995.31740	         4.82221e+57
          1996.12370	         4.84848e+57
          1996.93000	         6.08279e+57
          1997.73630	         7.62565e+57
          1998.54260	         7.66791e+57
          1999.34890	         6.92151e+57
          2000.15520	         6.28183e+57
          2000.96150	         6.83067e+57
          2001.76780	         6.48409e+57
          2002.57410	         5.91429e+57
          2003.38040	         6.04083e+57
          2004.18670	         7.38441e+57
          2004.99300	         6.74735e+57
          2005.79930	         7.06781e+57
          2006.60560	         6.87363e+57
          2007.41190	         7.32570e+57
          2008.21820	         6.81939e+57
          2009.02450	         6.99142e+57
          2009.83080	         5.95945e+57
          2010.63710	         6.14099e+57
          2011.44340	         7.47666e+57
          2012.24970	         7.91914e+57
          2013.05600	         7.21874e+57
          2013.86230	         6.42635e+57
          2014.66860	         5.59130e+57
          2015.47490	         6.36020e+57
          2016.28120	         7.17284e+57
          2017.08750	         6.58425e+57
          2017.89380	         5.51023e+57
          2018.70010	         4.67394e+57
          2019.50640	         5.76021e+57
          2020.31270	         6.54779e+57
          2021.11900	         6.67781e+57
          2021.92530	         7.82333e+57
          2022.73160	         8.72710e+57
          2023.53790	         7.47496e+57
          2024.34420	         6.76567e+57
          2025.15050	         5.75163e+57
          2025.95680	         5.73750e+57
          2026.76310	         6.44824e+57
          2027.56940	         5.27009e+57
          2028.37570	         5.59114e+57
          2029.18200	         6.51968e+57
          2029.98830	         6.15064e+57
          2030.79460	         6.89234e+57
          2031.60090	         6.92644e+57
          2032.40720	         5.50549e+57
          2033.21350	         6.26115e+57
          2034.01980	         5.99964e+57
          2034.82610	         4.88738e+57
          2035.63240	         4.81643e+57
          2036.43870	         5.89627e+57
          2037.24500	         6.99827e+57
          2038.05130	         7.04439e+57
          2038.85760	         5.64245e+57
          2039.66390	         5.77542e+57
          2040.47020	         6.14371e+57
          2041.27650	         6.94862e+57
          2042.08280	         5.52248e+57
          2042.88910	         5.46477e+57
          2043.69540	         6.11403e+57
          2044.50170	         6.67526e+57
          2045.30800	         5.31543e+57
          2046.11430	         3.36950e+57
          2046.92060	         5.47305e+57
          2047.72690	         7.17261e+57
          2048.53320	         6.63433e+57
          2049.33950	         3.06492e+57
          2050.14580	         3.79335e+57
          2050.95210	         6.66658e+57
          2051.75840	         8.14275e+57
          2052.56470	         6.29350e+57
          2053.37100	         5.02214e+57
          2054.17730	         4.59154e+57
          2054.98360	         5.94685e+57
          2055.78990	         4.55354e+57
          2056.59620	         2.66390e+57
          2057.40250	         4.76837e+57
          2058.20880	         6.57237e+57
          2059.01510	         5.83765e+57
          2059.82140	         6.86732e+57
          2060.62770	         1.02319e+58
          2061.43400	         1.45585e+58
          2062.24030	         1.04565e+58
          2063.04660	         3.67059e+57
          2063.85290	         1.95185e+57
          2064.65920	        -1.24525e+57
          2065.46550	        -1.05882e+58
          2066.27180	        -8.80986e+57
          2067.07810	         2.28963e+57
          2067.88440	         4.64153e+57
          2068.69070	         6.39272e+57
          2069.49700	         5.73440e+57
          2070.30330	         4.03313e+57
          2071.10960	         4.39546e+57
          2071.91590	         6.05889e+57
          2072.72220	         4.72899e+57
          2073.52850	         4.94464e+57
          2074.33480	         5.28199e+57
          2075.14110	         6.90177e+57
          2075.94740	         5.17583e+57
          2076.75370	         3.19688e+57
          2077.56000	         5.10365e+57
          2078.36630	         5.26821e+57
          2079.17260	         4.59014e+57
          2079.97890	         6.33135e+57
          2080.78520	         4.50449e+57
          2081.59150	         4.13481e+57
          2082.39780	         4.40079e+57
          2083.20410	         1.72252e+57
          2084.01040	         1.69544e+57
          2084.81670	         4.30371e+57
          2085.62300	         3.32095e+57
          2086.42930	         2.51603e+57
          2087.23560	         2.34332e+57
          2088.04190	         2.27340e+57
          2088.84820	         3.64247e+57
          2089.65450	         3.92283e+57
          2090.46080	         3.26907e+57
          2091.26710	         2.57252e+57
          2092.07340	         2.40615e+57
          2092.87970	         1.26217e+57
          2093.68600	        -1.99985e+57
          2094.49230	         1.28794e+57
          2095.29860	         4.64147e+57
          2096.10490	         2.42451e+57
          2096.91120	         9.99198e+56
          2097.71750	         4.79371e+55
          2098.52380	         1.46599e+57
          2099.33010	         1.75801e+57
          2100.13640	         1.05731e+57
          2100.94270	         1.04255e+57
          2101.74900	         2.28707e+57
          2102.55530	         4.27691e+57
          2103.36160	         4.11048e+57
          2104.16790	         2.95010e+57
          2104.97420	         7.23142e+56
          2105.78050	         6.22765e+56
          2106.58680	        -1.14622e+57
          2107.39310	        -2.61341e+57
          2108.19940	         2.06166e+56
          2109.00570	         3.35159e+56
          2109.81200	        -1.09983e+57
          2110.61830	         1.47425e+57
          2111.42460	         1.15752e+57
          2112.23090	         1.52975e+57
          2113.03720	        -1.89292e+55
          2113.84350	         8.24883e+55
          2114.64980	         9.56446e+56
          2115.45610	        -2.04078e+57
          2116.26240	        -7.11889e+57
          2117.06870	        -6.24645e+56
          2117.87500	        -3.71939e+56
          2118.68130	         8.66879e+56
          2119.48760	         3.00163e+57
          2120.29390	         2.93165e+57
          2121.10020	        -3.66659e+56
          2121.90650	        -1.56873e+57
          2122.71280	        -2.39824e+57
          2123.51910	         2.49889e+57
          2124.32540	         2.99838e+57
          2125.13170	         1.11539e+57
          2125.93800	         1.08117e+57
          2126.74430	        -3.69100e+57
          2127.55060	        -3.55039e+57
          2128.35690	        -6.50383e+57
          2129.16320	        -4.61491e+57
          2129.96950	        -3.26128e+57
          2130.77580	         2.05639e+57
          2131.58210	         3.30970e+57
          2132.38840	        -2.02113e+57
          2133.19470	        -1.25688e+57
          2134.00100	         1.76027e+57
          2134.80730	        -5.73472e+57
          2135.61360	         2.43548e+57
          2136.41990	         7.74318e+56
          2137.22620	         2.17647e+57
          2138.03250	         4.04222e+57
          2138.83880	         5.80542e+57
          2139.64510	         4.85258e+57
          2140.45140	        -2.07481e+57
          2141.25770	        -8.88696e+57
          2142.06400	        -9.66179e+57
          2142.87030	        -8.43954e+56
          2143.67660	         9.42027e+57
          2144.48290	         1.05029e+58
          2145.28920	         1.54819e+57
          2146.09550	        -1.15264e+58
          2146.90180	        -1.22868e+58
          2147.70810	        -3.13198e+57
          2148.51440	         5.08282e+57
          2149.32070	        -5.27606e+57
          2150.12700	        -1.31199e+58
          2150.93330	        -2.78396e+57
          2151.73960	         3.70405e+57
          2152.54590	         8.33872e+57
          2153.35220	         2.33117e+57
          2154.15850	        -4.05539e+57
          2154.96480	         2.66967e+57
          2155.77110	         9.16956e+57
          2156.57740	         9.64784e+57
          2157.38370	         7.84045e+56
          2158.19000	        -4.03891e+57
          2158.99630	        -8.20453e+57
          2159.80260	        -1.09322e+58
          2160.60890	        -8.29786e+57
          2161.41520	         6.81122e+56
          2162.22150	        -1.18807e+57
          2163.02780	        -4.58981e+57
          2163.83410	        -8.42441e+57
          2164.64040	        -6.58887e+57
          2165.44670	        -9.07808e+57
          2166.25300	        -1.26283e+58
          2167.05930	        -3.74965e+57
          2167.86560	        -1.34187e+58
          2168.67190	        -1.14257e+58
          2169.47820	        -4.97579e+57
          2170.28450	        -3.77431e+57
          2171.09080	        -5.32359e+56
          2171.89710	        -9.54864e+56
          2172.70340	         2.58830e+57
          2173.50970	        -5.47612e+57
          2174.31600	        -5.79723e+57
          2175.12230	        -2.25395e+57
          2175.92860	        -6.34669e+57
          2176.73490	        -3.82236e+57
          2177.54120	        -9.59454e+57
          2178.34750	        -5.77048e+57
          2179.15380	                 nan
          2179.96010	                 nan
          2180.76640	                 nan
          2181.57270	                 nan
          2182.37900	                 nan
          2183.18530	                 nan
          2183.99160	                 nan
          2184.79790	                 nan
          2185.60420	                 nan
          2186.41050	                 nan
          2187.21680	                 nan
          2188.02310	                 nan
          2188.82940	                 nan
          2189.63570	                 nan
          2190.44200	                 nan
          2191.24830	                 nan
          2192.05460	                 nan
          2192.86090	                 nan
          2193.66720	                 nan
          2194.47350	                 nan
          2195.27980	                 nan
          2196.08610	                 nan
          2196.89240	                 nan
          2197.69870	                 nan
          2198.50500	                 nan
          2199.31130	                 nan
          2200.11760	                 nan
          2200.92390	                 nan
          2201.73020	                 nan
          2202.53650	                 nan
          2203.34280	                 nan
          2204.14910	                 nan
          2204.95540	                 nan
          2205.76170	                 nan
          2206.56800	                 nan
          2207.37430	                 nan
          2208.18060	                 nan
          2208.98690	                 nan
          2209.79320	                 nan
          2210.59950	                 nan
          2211.40580	                 nan
          2212.21210	                 nan
          2213.01840	                 nan
          2213.82470	                 nan
          2214.63100	                 nan
          2215.43730	         0.00000e+00
