#sample_167_stacked_spectrum_rest_UV-bands_median_H-alpha_noDC.txt
#median Lum: 1.70767e+42
#Rest-frame wavelength (A) | Luminosity (erg/s/A)
#
          1110.00000	         0.00000e+00
          1110.80630	         2.78049e+59
          1111.61260	        -2.30590e+58
          1112.41890	         5.93157e+58
          1113.22520	        -8.73512e+57
          1114.03150	        -2.05650e+59
          1114.83780	         5.94028e+58
          1115.64410	         1.88096e+58
          1116.45040	         1.84318e+59
          1117.25670	         4.79760e+58
          1118.06300	        -1.73047e+58
          1118.86930	        -1.44483e+59
          1119.67560	         3.92322e+58
          1120.48190	         1.64728e+57
          1121.28820	        -6.66206e+58
          1122.09450	        -4.15574e+58
          1122.90080	        -3.29252e+57
          1123.70710	         1.05767e+59
          1124.51340	         2.70155e+58
          1125.31970	        -5.97009e+58
          1126.12600	        -4.92763e+58
          1126.93230	        -4.40652e+58
          1127.73860	        -9.11715e+58
          1128.54490	        -5.23523e+58
          1129.35120	        -1.03799e+58
          1130.15750	        -2.11998e+57
          1130.96380	        -1.79164e+56
          1131.77010	         7.81879e+58
          1132.57640	         5.18188e+58
          1133.38270	         4.84054e+58
          1134.18900	         1.63253e+58
          1134.99530	         2.70848e+58
          1135.80160	        -1.28179e+57
          1136.60790	         3.86967e+58
          1137.41420	        -2.41804e+57
          1138.22050	         2.82117e+58
          1139.02680	         2.87792e+58
          1139.83310	         1.23036e+58
          1140.63940	         3.65959e+57
          1141.44570	         1.82293e+57
          1142.25200	        -1.07075e+58
          1143.05830	         7.05382e+56
          1143.86460	         1.42468e+58
          1144.67090	         1.87072e+58
          1145.47720	         1.38120e+58
          1146.28350	         2.48777e+57
          1147.08980	         1.54040e+58
          1147.89610	         2.61714e+58
          1148.70240	         2.88197e+58
          1149.50870	         1.98796e+58
          1150.31500	         3.29153e+57
          1151.12130	         5.71365e+57
          1151.92760	         1.20975e+58
          1152.73390	         9.67032e+56
          1153.54020	        -7.07671e+57
          1154.34650	         1.57229e+58
          1155.15280	         1.26538e+58
          1155.95910	         9.97088e+57
          1156.76540	         6.50431e+57
          1157.57170	         3.86745e+57
          1158.37800	        -7.86653e+57
          1159.18430	        -6.17798e+57
          1159.99060	         1.12840e+58
          1160.79690	         5.90216e+57
          1161.60320	         1.89562e+58
          1162.40950	         1.68500e+58
          1163.21580	         1.96429e+58
          1164.02210	         1.74128e+58
          1164.82840	         3.20852e+57
          1165.63470	         1.87891e+58
          1166.44100	         2.80803e+58
          1167.24730	         2.32238e+58
          1168.05360	         5.80639e+57
          1168.85990	         6.32574e+57
          1169.66620	         6.77177e+57
          1170.47250	         1.27153e+58
          1171.27880	         1.03093e+58
          1172.08510	         1.68587e+58
          1172.89140	         3.35770e+57
          1173.69770	         9.71419e+57
          1174.50400	         3.89030e+57
          1175.31030	         9.94496e+57
          1176.11660	         1.95349e+58
          1176.92290	         9.81215e+57
          1177.72920	         1.15437e+58
          1178.53550	         7.69230e+57
          1179.34180	         4.20524e+57
          1180.14810	         5.32106e+57
          1180.95440	         8.39730e+57
          1181.76070	         1.00402e+58
          1182.56700	         9.76357e+57
          1183.37330	         7.00160e+57
          1184.17960	         9.87514e+57
          1184.98590	         8.51296e+57
          1185.79220	         5.80000e+57
          1186.59850	         6.35388e+57
          1187.40480	         7.19989e+57
          1188.21110	         1.52940e+58
          1189.01740	         8.54051e+57
          1189.82370	         1.19077e+58
          1190.63000	         1.17078e+58
          1191.43630	         1.28204e+58
          1192.24260	         1.13148e+58
          1193.04890	         1.19678e+58
          1193.85520	         1.39113e+58
          1194.66150	         1.03065e+58
          1195.46780	         1.34089e+58
          1196.27410	         1.25205e+58
          1197.08040	         7.42315e+57
          1197.88670	         1.52764e+58
          1198.69300	         1.75557e+58
          1199.49930	         1.78083e+58
          1200.30560	         1.46537e+58
          1201.11190	         9.77531e+57
          1201.91820	         8.16230e+57
          1202.72450	         1.11625e+58
          1203.53080	         1.43843e+58
          1204.33710	         7.98066e+57
          1205.14340	         5.10415e+57
          1205.94970	         6.69443e+57
          1206.75600	         5.63615e+57
          1207.56230	         5.87219e+57
          1208.36860	         7.30234e+57
          1209.17490	         3.13650e+57
          1209.98120	         4.78742e+57
          1210.78750	         7.56321e+57
          1211.59380	         1.15926e+58
          1212.40010	         1.75811e+58
          1213.20640	         2.27282e+58
          1214.01270	         1.99059e+58
          1214.81900	         2.72159e+58
          1215.62530	         4.74721e+58
          1216.43160	         9.03553e+58
          1217.23790	         1.50018e+59
          1218.04420	         1.21493e+59
          1218.85050	         8.88212e+58
          1219.65680	         6.04875e+58
          1220.46310	         3.61080e+58
          1221.26940	         2.00200e+58
          1222.07570	         1.16682e+58
          1222.88200	         1.11412e+58
          1223.68830	         1.24958e+58
          1224.49460	         9.34550e+57
          1225.30090	         6.26464e+57
          1226.10720	         5.47794e+57
          1226.91350	         6.53605e+57
          1227.71980	         7.69749e+57
          1228.52610	         1.05187e+58
          1229.33240	         7.57617e+57
          1230.13870	         6.46667e+57
          1230.94500	         9.14976e+57
          1231.75130	         8.08289e+57
          1232.55760	         7.64538e+57
          1233.36390	         9.13127e+57
          1234.17020	         8.80020e+57
          1234.97650	         8.95259e+57
          1235.78280	         8.90203e+57
          1236.58910	         7.95878e+57
          1237.39540	         1.07446e+58
          1238.20170	         1.07774e+58
          1239.00800	         1.15911e+58
          1239.81430	         1.29776e+58
          1240.62060	         1.26446e+58
          1241.42690	         1.24980e+58
          1242.23320	         1.31795e+58
          1243.03950	         9.14061e+57
          1243.84580	         8.34088e+57
          1244.65210	         9.32999e+57
          1245.45840	         9.47281e+57
          1246.26470	         9.47685e+57
          1247.07100	         7.30945e+57
          1247.87730	         4.64822e+57
          1248.68360	         2.65441e+57
          1249.48990	         6.32873e+57
          1250.29620	         8.09779e+57
          1251.10250	         7.13089e+57
          1251.90880	         6.43739e+57
          1252.71510	         5.93181e+57
          1253.52140	         5.83781e+57
          1254.32770	         9.21327e+57
          1255.13400	         1.31590e+58
          1255.94030	         1.38336e+58
          1256.74660	         1.14114e+58
          1257.55290	         9.73333e+57
          1258.35920	         7.78837e+57
          1259.16550	         6.45617e+57
          1259.97180	         4.34420e+57
          1260.77810	         7.72692e+57
          1261.58440	         1.21719e+58
          1262.39070	         8.99152e+57
          1263.19700	         8.33781e+57
          1264.00330	         9.61250e+57
          1264.80960	         1.01496e+58
          1265.61590	         1.15573e+58
          1266.42220	         1.21676e+58
          1267.22850	         1.11962e+58
          1268.03480	         1.39926e+58
          1268.84110	         1.50912e+58
          1269.64740	         1.28729e+58
          1270.45370	         1.39617e+58
          1271.26000	         1.15309e+58
          1272.06630	         1.20830e+58
          1272.87260	         1.33626e+58
          1273.67890	         1.22710e+58
          1274.48520	         1.07337e+58
          1275.29150	         1.17154e+58
          1276.09780	         1.05338e+58
          1276.90410	         1.24156e+58
          1277.71040	         1.19570e+58
          1278.51670	         1.17739e+58
          1279.32300	         1.42769e+58
          1280.12930	         1.42729e+58
          1280.93560	         1.04544e+58
          1281.74190	         1.13389e+58
          1282.54820	         1.16946e+58
          1283.35450	         8.76387e+57
          1284.16080	         8.67197e+57
          1284.96710	         1.33363e+58
          1285.77340	         1.14844e+58
          1286.57970	         9.20723e+57
          1287.38600	         1.39659e+58
          1288.19230	         1.76547e+58
          1288.99860	         1.49387e+58
          1289.80490	         9.60303e+57
          1290.61120	         1.28286e+58
          1291.41750	         1.31182e+58
          1292.22380	         1.01388e+58
          1293.03010	         1.06819e+58
          1293.83640	         1.10908e+58
          1294.64270	         8.39038e+57
          1295.44900	         6.27015e+57
          1296.25530	         7.13675e+57
          1297.06160	         1.02277e+58
          1297.86790	         1.06439e+58
          1298.67420	         8.48437e+57
          1299.48050	         7.92501e+57
          1300.28680	         1.00372e+58
          1301.09310	         8.01992e+57
          1301.89940	         3.75891e+57
          1302.70570	         5.76431e+57
          1303.51200	         8.33114e+57
          1304.31830	         8.86687e+57
          1305.12460	         9.79691e+57
          1305.93090	         1.07212e+58
          1306.73720	         1.27619e+58
          1307.54350	         1.49241e+58
          1308.34980	         1.46440e+58
          1309.15610	         1.39987e+58
          1309.96240	         1.34464e+58
          1310.76870	         1.34604e+58
          1311.57500	         1.39570e+58
          1312.38130	         1.13515e+58
          1313.18760	         1.32195e+58
          1313.99390	         1.67281e+58
          1314.80020	         1.49081e+58
          1315.60650	         1.40290e+58
          1316.41280	         1.28617e+58
          1317.21910	         1.00011e+58
          1318.02540	         1.16020e+58
          1318.83170	         1.26144e+58
          1319.63800	         1.19648e+58
          1320.44430	         1.13351e+58
          1321.25060	         1.16746e+58
          1322.05690	         1.13201e+58
          1322.86320	         1.17723e+58
          1323.66950	         1.05908e+58
          1324.47580	         8.94248e+57
          1325.28210	         1.05905e+58
          1326.08840	         1.24883e+58
          1326.89470	         1.30897e+58
          1327.70100	         1.10170e+58
          1328.50730	         8.51050e+57
          1329.31360	         8.56269e+57
          1330.11990	         1.04774e+58
          1330.92620	         9.71022e+57
          1331.73250	         1.13259e+58
          1332.53880	         1.06597e+58
          1333.34510	         8.86285e+57
          1334.15140	         8.65318e+57
          1334.95770	         8.82479e+57
          1335.76400	         1.05794e+58
          1336.57030	         1.03985e+58
          1337.37660	         1.08281e+58
          1338.18290	         1.15221e+58
          1338.98920	         1.04950e+58
          1339.79550	         1.12816e+58
          1340.60180	         1.32967e+58
          1341.40810	         1.44496e+58
          1342.21440	         1.33450e+58
          1343.02070	         1.42930e+58
          1343.82700	         1.36296e+58
          1344.63330	         1.22379e+58
          1345.43960	         1.38582e+58
          1346.24590	         1.09352e+58
          1347.05220	         1.10821e+58
          1347.85850	         1.09101e+58
          1348.66480	         1.18603e+58
          1349.47110	         1.19488e+58
          1350.27740	         1.06270e+58
          1351.08370	         1.12021e+58
          1351.89000	         1.24271e+58
          1352.69630	         1.16499e+58
          1353.50260	         1.17337e+58
          1354.30890	         1.11641e+58
          1355.11520	         1.09899e+58
          1355.92150	         1.11536e+58
          1356.72780	         1.02557e+58
          1357.53410	         9.87140e+57
          1358.34040	         1.02950e+58
          1359.14670	         1.15825e+58
          1359.95300	         1.10865e+58
          1360.75930	         1.02076e+58
          1361.56560	         9.57296e+57
          1362.37190	         1.11966e+58
          1363.17820	         1.11955e+58
          1363.98450	         1.13490e+58
          1364.79080	         1.29651e+58
          1365.59710	         1.28818e+58
          1366.40340	         1.23825e+58
          1367.20970	         1.11877e+58
          1368.01600	         9.57304e+57
          1368.82230	         9.77204e+57
          1369.62860	         9.65647e+57
          1370.43490	         8.60561e+57
          1371.24120	         9.31920e+57
          1372.04750	         9.36687e+57
          1372.85380	         1.12026e+58
          1373.66010	         1.19000e+58
          1374.46640	         1.18228e+58
          1375.27270	         1.21797e+58
          1376.07900	         1.02170e+58
          1376.88530	         8.41922e+57
          1377.69160	         8.32892e+57
          1378.49790	         8.18851e+57
          1379.30420	         8.67770e+57
          1380.11050	         9.71294e+57
          1380.91680	         8.85864e+57
          1381.72310	         8.31502e+57
          1382.52940	         8.26019e+57
          1383.33570	         8.98507e+57
          1384.14200	         9.15308e+57
          1384.94830	         1.00687e+58
          1385.75460	         1.02242e+58
          1386.56090	         1.00556e+58
          1387.36720	         1.05958e+58
          1388.17350	         1.22632e+58
          1388.97980	         1.06064e+58
          1389.78610	         9.51596e+57
          1390.59240	         7.74412e+57
          1391.39870	         6.72558e+57
          1392.20500	         8.04152e+57
          1393.01130	         8.75004e+57
          1393.81760	         8.63805e+57
          1394.62390	         7.39490e+57
          1395.43020	         6.08664e+57
          1396.23650	         6.17146e+57
          1397.04280	         7.94175e+57
          1397.84910	         9.36036e+57
          1398.65540	         8.28526e+57
          1399.46170	         9.65364e+57
          1400.26800	         9.22226e+57
          1401.07430	         7.04693e+57
          1401.88060	         7.73923e+57
          1402.68690	         9.03033e+57
          1403.49320	         1.00523e+58
          1404.29950	         1.08589e+58
          1405.10580	         1.15099e+58
          1405.91210	         1.10175e+58
          1406.71840	         1.01622e+58
          1407.52470	         1.02901e+58
          1408.33100	         1.08164e+58
          1409.13730	         1.21344e+58
          1409.94360	         1.24033e+58
          1410.74990	         1.22606e+58
          1411.55620	         9.49167e+57
          1412.36250	         8.95627e+57
          1413.16880	         9.39219e+57
          1413.97510	         8.72219e+57
          1414.78140	         8.46126e+57
          1415.58770	         9.94170e+57
          1416.39400	         1.06039e+58
          1417.20030	         1.08361e+58
          1418.00660	         9.47663e+57
          1418.81290	         9.30954e+57
          1419.61920	         9.48613e+57
          1420.42550	         1.07575e+58
          1421.23180	         1.30167e+58
          1422.03810	         1.24874e+58
          1422.84440	         1.17436e+58
          1423.65070	         1.25608e+58
          1424.45700	         1.02831e+58
          1425.26330	         8.03630e+57
          1426.06960	         8.78357e+57
          1426.87590	         1.02792e+58
          1427.68220	         1.03560e+58
          1428.48850	         1.07519e+58
          1429.29480	         9.88689e+57
          1430.10110	         9.80230e+57
          1430.90740	         8.67105e+57
          1431.71370	         8.24092e+57
          1432.52000	         8.19022e+57
          1433.32630	         7.13855e+57
          1434.13260	         7.73354e+57
          1434.93890	         8.30810e+57
          1435.74520	         8.73291e+57
          1436.55150	         8.75113e+57
          1437.35780	         8.59691e+57
          1438.16410	         8.57088e+57
          1438.97040	         8.98560e+57
          1439.77670	         9.48229e+57
          1440.58300	         9.26393e+57
          1441.38930	         9.84392e+57
          1442.19560	         8.81581e+57
          1443.00190	         8.58218e+57
          1443.80820	         9.99645e+57
          1444.61450	         8.84597e+57
          1445.42080	         8.25700e+57
          1446.22710	         1.05742e+58
          1447.03340	         1.01426e+58
          1447.83970	         1.03114e+58
          1448.64600	         1.12534e+58
          1449.45230	         1.16904e+58
          1450.25860	         1.09109e+58
          1451.06490	         9.11295e+57
          1451.87120	         8.04761e+57
          1452.67750	         7.66818e+57
          1453.48380	         8.67269e+57
          1454.29010	         7.74554e+57
          1455.09640	         6.64638e+57
          1455.90270	         7.81468e+57
          1456.70900	         8.30703e+57
          1457.51530	         8.99304e+57
          1458.32160	         1.10294e+58
          1459.12790	         1.22161e+58
          1459.93420	         1.07422e+58
          1460.74050	         7.43003e+57
          1461.54680	         8.66381e+57
          1462.35310	         9.16927e+57
          1463.15940	         1.16255e+58
          1463.96570	         1.27834e+58
          1464.77200	         1.19317e+58
          1465.57830	         1.11234e+58
          1466.38460	         9.90812e+57
          1467.19090	         9.30125e+57
          1467.99720	         8.70243e+57
          1468.80350	         8.24587e+57
          1469.60980	         9.03206e+57
          1470.41610	         1.05727e+58
          1471.22240	         1.00788e+58
          1472.02870	         9.87663e+57
          1472.83500	         9.44095e+57
          1473.64130	         9.34918e+57
          1474.44760	         1.03184e+58
          1475.25390	         1.00026e+58
          1476.06020	         8.86155e+57
          1476.86650	         8.55377e+57
          1477.67280	         7.87792e+57
          1478.47910	         6.92821e+57
          1479.28540	         7.52302e+57
          1480.09170	         8.67522e+57
          1480.89800	         9.52942e+57
          1481.70430	         1.00882e+58
          1482.51060	         9.55106e+57
          1483.31690	         8.34366e+57
          1484.12320	         8.26906e+57
          1484.92950	         7.64804e+57
          1485.73580	         8.06557e+57
          1486.54210	         9.26115e+57
          1487.34840	         7.94221e+57
          1488.15470	         7.96255e+57
          1488.96100	         9.11928e+57
          1489.76730	         9.20610e+57
          1490.57360	         8.32441e+57
          1491.37990	         8.33823e+57
          1492.18620	         8.42352e+57
          1492.99250	         8.74862e+57
          1493.79880	         9.14536e+57
          1494.60510	         8.47046e+57
          1495.41140	         7.47246e+57
          1496.21770	         8.63468e+57
          1497.02400	         9.71185e+57
          1497.83030	         8.71210e+57
          1498.63660	         6.95632e+57
          1499.44290	         6.62763e+57
          1500.24920	         7.70088e+57
          1501.05550	         7.85611e+57
          1501.86180	         8.08697e+57
          1502.66810	         8.94949e+57
          1503.47440	         7.86951e+57
          1504.28070	         7.98891e+57
          1505.08700	         9.15343e+57
          1505.89330	         9.25250e+57
          1506.69960	         8.16049e+57
          1507.50590	         7.80540e+57
          1508.31220	         7.84321e+57
          1509.11850	         8.75884e+57
          1509.92480	         1.01374e+58
          1510.73110	         9.37392e+57
          1511.53740	         7.39379e+57
          1512.34370	         7.21380e+57
          1513.15000	         8.68221e+57
          1513.95630	         1.04315e+58
          1514.76260	         9.29101e+57
          1515.56890	         7.41521e+57
          1516.37520	         7.16338e+57
          1517.18150	         8.10648e+57
          1517.98780	         7.63763e+57
          1518.79410	         7.28016e+57
          1519.60040	         6.86454e+57
          1520.40670	         8.89521e+57
          1521.21300	         9.62834e+57
          1522.01930	         7.72010e+57
          1522.82560	         8.86218e+57
          1523.63190	         9.86134e+57
          1524.43820	         8.31444e+57
          1525.24450	         7.04901e+57
          1526.05080	         7.02790e+57
          1526.85710	         6.74169e+57
          1527.66340	         6.23404e+57
          1528.46970	         7.78225e+57
          1529.27600	         8.62710e+57
          1530.08230	         8.66383e+57
          1530.88860	         7.57302e+57
          1531.69490	         8.65720e+57
          1532.50120	         9.47505e+57
          1533.30750	         9.73801e+57
          1534.11380	         9.99008e+57
          1534.92010	         1.00907e+58
          1535.72640	         9.76948e+57
          1536.53270	         9.21000e+57
          1537.33900	         8.17731e+57
          1538.14530	         8.82561e+57
          1538.95160	         1.03373e+58
          1539.75790	         8.44554e+57
          1540.56420	         8.28021e+57
          1541.37050	         8.91135e+57
          1542.17680	         7.52891e+57
          1542.98310	         6.91333e+57
          1543.78940	         7.22102e+57
          1544.59570	         7.21047e+57
          1545.40200	         7.68905e+57
          1546.20830	         9.00574e+57
          1547.01460	         1.05856e+58
          1547.82090	         1.15028e+58
          1548.62720	         1.20567e+58
          1549.43350	         1.22638e+58
          1550.23980	         1.21458e+58
          1551.04610	         1.30841e+58
          1551.85240	         1.24488e+58
          1552.65870	         1.13675e+58
          1553.46500	         1.00025e+58
          1554.27130	         9.93876e+57
          1555.07760	         1.02945e+58
          1555.88390	         8.96075e+57
          1556.69020	         9.07153e+57
          1557.49650	         8.44053e+57
          1558.30280	         7.97687e+57
          1559.10910	         8.53639e+57
          1559.91540	         8.64856e+57
          1560.72170	         8.41555e+57
          1561.52800	         7.93241e+57
          1562.33430	         7.47883e+57
          1563.14060	         7.05995e+57
          1563.94690	         7.90011e+57
          1564.75320	         7.90836e+57
          1565.55950	         6.81356e+57
          1566.36580	         6.59367e+57
          1567.17210	         8.58928e+57
          1567.97840	         9.14648e+57
          1568.78470	         9.20985e+57
          1569.59100	         9.63858e+57
          1570.39730	         8.40470e+57
          1571.20360	         6.60233e+57
          1572.00990	         7.03681e+57
          1572.81620	         8.18749e+57
          1573.62250	         9.25526e+57
          1574.42880	         8.87057e+57
          1575.23510	         7.76876e+57
          1576.04140	         8.81163e+57
          1576.84770	         1.03006e+58
          1577.65400	         9.38069e+57
          1578.46030	         1.01107e+58
          1579.26660	         1.07770e+58
          1580.07290	         9.58730e+57
          1580.87920	         8.00708e+57
          1581.68550	         7.57836e+57
          1582.49180	         7.64743e+57
          1583.29810	         8.36310e+57
          1584.10440	         9.12184e+57
          1584.91070	         8.54644e+57
          1585.71700	         9.02793e+57
          1586.52330	         8.51784e+57
          1587.32960	         8.38603e+57
          1588.13590	         8.77107e+57
          1588.94220	         8.57646e+57
          1589.74850	         9.13016e+57
          1590.55480	         9.17236e+57
          1591.36110	         8.10764e+57
          1592.16740	         8.31845e+57
          1592.97370	         7.98920e+57
          1593.78000	         8.48093e+57
          1594.58630	         8.70028e+57
          1595.39260	         8.17075e+57
          1596.19890	         9.10646e+57
          1597.00520	         9.25928e+57
          1597.81150	         8.62743e+57
          1598.61780	         7.87364e+57
          1599.42410	         6.69992e+57
          1600.23040	         6.98713e+57
          1601.03670	         8.08262e+57
          1601.84300	         7.87476e+57
          1602.64930	         8.28698e+57
          1603.45560	         8.49228e+57
          1604.26190	         8.24029e+57
          1605.06820	         8.12696e+57
          1605.87450	         7.50354e+57
          1606.68080	         7.21066e+57
          1607.48710	         6.95151e+57
          1608.29340	         6.72828e+57
          1609.09970	         7.95278e+57
          1609.90600	         8.59010e+57
          1610.71230	         8.21012e+57
          1611.51860	         7.75776e+57
          1612.32490	         6.65728e+57
          1613.13120	         7.87497e+57
          1613.93750	         8.57232e+57
          1614.74380	         8.34984e+57
          1615.55010	         8.89619e+57
          1616.35640	         9.84913e+57
          1617.16270	         9.78856e+57
          1617.96900	         9.04374e+57
          1618.77530	         8.00968e+57
          1619.58160	         7.82453e+57
          1620.38790	         7.88176e+57
          1621.19420	         8.21575e+57
          1622.00050	         8.35139e+57
          1622.80680	         8.58214e+57
          1623.61310	         8.39673e+57
          1624.41940	         7.69382e+57
          1625.22570	         9.04040e+57
          1626.03200	         9.29140e+57
          1626.83830	         7.00632e+57
          1627.64460	         6.56035e+57
          1628.45090	         7.07406e+57
          1629.25720	         8.93490e+57
          1630.06350	         1.00881e+58
          1630.86980	         6.57405e+57
          1631.67610	         7.38666e+57
          1632.48240	         9.46816e+57
          1633.28870	         9.82641e+57
          1634.09500	         1.09344e+58
          1634.90130	         1.11176e+58
          1635.70760	         9.61194e+57
          1636.51390	         7.79873e+57
          1637.32020	         7.43302e+57
          1638.12650	         9.77630e+57
          1638.93280	         9.74684e+57
          1639.73910	         9.59671e+57
          1640.54540	         1.00496e+58
          1641.35170	         7.81183e+57
          1642.15800	         8.20199e+57
          1642.96430	         8.67391e+57
          1643.77060	         8.62307e+57
          1644.57690	         7.81007e+57
          1645.38320	         7.40708e+57
          1646.18950	         6.55447e+57
          1646.99580	         7.84442e+57
          1647.80210	         7.15624e+57
          1648.60840	         6.62820e+57
          1649.41470	         7.55184e+57
          1650.22100	         7.45953e+57
          1651.02730	         7.70103e+57
          1651.83360	         7.91235e+57
          1652.63990	         8.10070e+57
          1653.44620	         9.04847e+57
          1654.25250	         8.24144e+57
          1655.05880	         6.86878e+57
          1655.86510	         7.19231e+57
          1656.67140	         9.02480e+57
          1657.47770	         8.28114e+57
          1658.28400	         7.79036e+57
          1659.09030	         9.49342e+57
          1659.89660	         1.00842e+58
          1660.70290	         1.04776e+58
          1661.50920	         1.01276e+58
          1662.31550	         8.83293e+57
          1663.12180	         8.65234e+57
          1663.92810	         9.31927e+57
          1664.73440	         1.13413e+58
          1665.54070	         1.23589e+58
          1666.34700	         1.20727e+58
          1667.15330	         1.15040e+58
          1667.95960	         9.50417e+57
          1668.76590	         7.15850e+57
          1669.57220	         6.66073e+57
          1670.37850	         6.88699e+57
          1671.18480	         7.55314e+57
          1671.99110	         7.60381e+57
          1672.79740	         6.99748e+57
          1673.60370	         6.83384e+57
          1674.41000	         7.45983e+57
          1675.21630	         7.92252e+57
          1676.02260	         7.87883e+57
          1676.82890	         7.21217e+57
          1677.63520	         7.05459e+57
          1678.44150	         7.23234e+57
          1679.24780	         8.26665e+57
          1680.05410	         7.70557e+57
          1680.86040	         6.82612e+57
          1681.66670	         8.25482e+57
          1682.47300	         8.74293e+57
          1683.27930	         7.95885e+57
          1684.08560	         8.19230e+57
          1684.89190	         7.03300e+57
          1685.69820	         4.68301e+57
          1686.50450	         5.37245e+57
          1687.31080	         6.99123e+57
          1688.11710	         7.93063e+57
          1688.92340	         6.85646e+57
          1689.72970	         6.12446e+57
          1690.53600	         6.94714e+57
          1691.34230	         6.91005e+57
          1692.14860	         7.12061e+57
          1692.95490	         8.48206e+57
          1693.76120	         8.09368e+57
          1694.56750	         6.96985e+57
          1695.37380	         8.12782e+57
          1696.18010	         9.41353e+57
          1696.98640	         9.68593e+57
          1697.79270	         9.47458e+57
          1698.59900	         9.03955e+57
          1699.40530	         7.56099e+57
          1700.21160	         7.95224e+57
          1701.01790	         9.25382e+57
          1701.82420	         8.74217e+57
          1702.63050	         8.56293e+57
          1703.43680	         8.56298e+57
          1704.24310	         8.97398e+57
          1705.04940	         7.86089e+57
          1705.85570	         7.21850e+57
          1706.66200	         7.47125e+57
          1707.46830	         8.02908e+57
          1708.27460	         8.42227e+57
          1709.08090	         7.35149e+57
          1709.88720	         6.59315e+57
          1710.69350	         6.72353e+57
          1711.49980	         7.09398e+57
          1712.30610	         7.56701e+57
          1713.11240	         8.72312e+57
          1713.91870	         8.42866e+57
          1714.72500	         8.29623e+57
          1715.53130	         8.62993e+57
          1716.33760	         8.63248e+57
          1717.14390	         7.03239e+57
          1717.95020	         8.75939e+57
          1718.75650	         9.01584e+57
          1719.56280	         8.13032e+57
          1720.36910	         6.77126e+57
          1721.17540	         6.34988e+57
          1721.98170	         6.19606e+57
          1722.78800	         5.91109e+57
          1723.59430	         6.33810e+57
          1724.40060	         8.39574e+57
          1725.20690	         7.83846e+57
          1726.01320	         7.06651e+57
          1726.81950	         7.33758e+57
          1727.62580	         7.40465e+57
          1728.43210	         6.55960e+57
          1729.23840	         7.49723e+57
          1730.04470	         8.18432e+57
          1730.85100	         9.67392e+57
          1731.65730	         9.71183e+57
          1732.46360	         8.19225e+57
          1733.26990	         7.10713e+57
          1734.07620	         6.93292e+57
          1734.88250	         7.58768e+57
          1735.68880	         7.44432e+57
          1736.49510	         7.79970e+57
          1737.30140	         8.61552e+57
          1738.10770	         7.28906e+57
          1738.91400	         7.36721e+57
          1739.72030	         7.76255e+57
          1740.52660	         7.10433e+57
          1741.33290	         6.25049e+57
          1742.13920	         6.39948e+57
          1742.94550	         7.43258e+57
          1743.75180	         7.53043e+57
          1744.55810	         7.67214e+57
          1745.36440	         7.86643e+57
          1746.17070	         6.39708e+57
          1746.97700	         6.05016e+57
          1747.78330	         7.48607e+57
          1748.58960	         7.59329e+57
          1749.39590	         6.74400e+57
          1750.20220	         5.16949e+57
          1751.00850	         5.15226e+57
          1751.81480	         5.62900e+57
          1752.62110	         6.90839e+57
          1753.42740	         8.63210e+57
          1754.23370	         7.69225e+57
          1755.04000	         7.44327e+57
          1755.84630	         7.45924e+57
          1756.65260	         8.88277e+57
          1757.45890	         8.92087e+57
          1758.26520	         6.81650e+57
          1759.07150	         7.15448e+57
          1759.87780	         7.14711e+57
          1760.68410	         7.51680e+57
          1761.49040	         9.00617e+57
          1762.29670	         7.41636e+57
          1763.10300	         6.06746e+57
          1763.90930	         7.61912e+57
          1764.71560	         7.49706e+57
          1765.52190	         7.25155e+57
          1766.32820	         8.74682e+57
          1767.13450	         8.33555e+57
          1767.94080	         7.28884e+57
          1768.74710	         6.94698e+57
          1769.55340	         7.14793e+57
          1770.35970	         6.49918e+57
          1771.16600	         7.41132e+57
          1771.97230	         7.74700e+57
          1772.77860	         8.30644e+57
          1773.58490	         7.64492e+57
          1774.39120	         6.03436e+57
          1775.19750	         5.52829e+57
          1776.00380	         5.87387e+57
          1776.81010	         6.62738e+57
          1777.61640	         7.44763e+57
          1778.42270	         7.87013e+57
          1779.22900	         7.66347e+57
          1780.03530	         7.09689e+57
          1780.84160	         7.40503e+57
          1781.64790	         8.16744e+57
          1782.45420	         6.93192e+57
          1783.26050	         6.42251e+57
          1784.06680	         6.97644e+57
          1784.87310	         7.37014e+57
          1785.67940	         7.72661e+57
          1786.48570	         6.74378e+57
          1787.29200	         5.78996e+57
          1788.09830	         5.84516e+57
          1788.90460	         6.23400e+57
          1789.71090	         5.85201e+57
          1790.51720	         4.93340e+57
          1791.32350	         6.74503e+57
          1792.12980	         9.00117e+57
          1792.93610	         8.76351e+57
          1793.74240	         7.28430e+57
          1794.54870	         7.48735e+57
          1795.35500	         8.66827e+57
          1796.16130	         8.33001e+57
          1796.96760	         6.82153e+57
          1797.77390	         6.71380e+57
          1798.58020	         6.87981e+57
          1799.38650	         5.94234e+57
          1800.19280	         7.66663e+57
          1800.99910	         8.16473e+57
          1801.80540	         7.22728e+57
          1802.61170	         8.00274e+57
          1803.41800	         7.88822e+57
          1804.22430	         7.64702e+57
          1805.03060	         6.72004e+57
          1805.83690	         7.19499e+57
          1806.64320	         8.99345e+57
          1807.44950	         8.61329e+57
          1808.25580	         6.23897e+57
          1809.06210	         7.28273e+57
          1809.86840	         7.89626e+57
          1810.67470	         8.43013e+57
          1811.48100	         9.57641e+57
          1812.28730	         8.78373e+57
          1813.09360	         8.00321e+57
          1813.89990	         8.35414e+57
          1814.70620	         7.40721e+57
          1815.51250	         8.37033e+57
          1816.31880	         8.66431e+57
          1817.12510	         6.68473e+57
          1817.93140	         6.44004e+57
          1818.73770	         6.85277e+57
          1819.54400	         7.94374e+57
          1820.35030	         8.51169e+57
          1821.15660	         6.56774e+57
          1821.96290	         5.81415e+57
          1822.76920	         7.32196e+57
          1823.57550	         7.49440e+57
          1824.38180	         6.28115e+57
          1825.18810	         6.97644e+57
          1825.99440	         8.37524e+57
          1826.80070	         7.79411e+57
          1827.60700	         7.03843e+57
          1828.41330	         6.61079e+57
          1829.21960	         6.81189e+57
          1830.02590	         7.11483e+57
          1830.83220	         8.02661e+57
          1831.63850	         7.13262e+57
          1832.44480	         6.49057e+57
          1833.25110	         7.82620e+57
          1834.05740	         8.08628e+57
          1834.86370	         6.67045e+57
          1835.67000	         5.76853e+57
          1836.47630	         6.59812e+57
          1837.28260	         8.24162e+57
          1838.08890	         9.17377e+57
          1838.89520	         8.78869e+57
          1839.70150	         8.11680e+57
          1840.50780	         7.30381e+57
          1841.31410	         7.52441e+57
          1842.12040	         7.33303e+57
          1842.92670	         7.26834e+57
          1843.73300	         7.77833e+57
          1844.53930	         7.66820e+57
          1845.34560	         7.37479e+57
          1846.15190	         6.98354e+57
          1846.95820	         7.22197e+57
          1847.76450	         7.20875e+57
          1848.57080	         5.51661e+57
          1849.37710	         6.57998e+57
          1850.18340	         7.77000e+57
          1850.98970	         8.00557e+57
          1851.79600	         7.97878e+57
          1852.60230	         6.71367e+57
          1853.40860	         6.49148e+57
          1854.21490	         6.30995e+57
          1855.02120	         5.74411e+57
          1855.82750	         5.07446e+57
          1856.63380	         6.35023e+57
          1857.44010	         6.51157e+57
          1858.24640	         7.63869e+57
          1859.05270	         7.61446e+57
          1859.85900	         6.36658e+57
          1860.66530	         6.32555e+57
          1861.47160	         7.16303e+57
          1862.27790	         7.21141e+57
          1863.08420	         6.95175e+57
          1863.89050	         7.46665e+57
          1864.69680	         7.91353e+57
          1865.50310	         7.30747e+57
          1866.30940	         5.63680e+57
          1867.11570	         6.12142e+57
          1867.92200	         6.79687e+57
          1868.72830	         7.16347e+57
          1869.53460	         6.91131e+57
          1870.34090	         6.65373e+57
          1871.14720	         7.22713e+57
          1871.95350	         7.53536e+57
          1872.75980	         8.14095e+57
          1873.56610	         7.31100e+57
          1874.37240	         5.99011e+57
          1875.17870	         6.20504e+57
          1875.98500	         6.71740e+57
          1876.79130	         6.85199e+57
          1877.59760	         6.76609e+57
          1878.40390	         6.06319e+57
          1879.21020	         6.11390e+57
          1880.01650	         7.21250e+57
          1880.82280	         8.11630e+57
          1881.62910	         9.01445e+57
          1882.43540	         9.97535e+57
          1883.24170	         7.81720e+57
          1884.04800	         6.34011e+57
          1884.85430	         7.22565e+57
          1885.66060	         7.95132e+57
          1886.46690	         8.57761e+57
          1887.27320	         7.98068e+57
          1888.07950	         6.12027e+57
          1888.88580	         7.33330e+57
          1889.69210	         9.19317e+57
          1890.49840	         8.53578e+57
          1891.30470	         8.18493e+57
          1892.11100	         9.40274e+57
          1892.91730	         8.46186e+57
          1893.72360	         7.07889e+57
          1894.52990	         7.60683e+57
          1895.33620	         9.00649e+57
          1896.14250	         8.96386e+57
          1896.94880	         6.88385e+57
          1897.75510	         4.66802e+57
          1898.56140	         5.83304e+57
          1899.36770	         7.99327e+57
          1900.17400	         6.71538e+57
          1900.98030	         6.46646e+57
          1901.78660	         6.82766e+57
          1902.59290	         6.82942e+57
          1903.39920	         8.55734e+57
          1904.20550	         9.30609e+57
          1905.01180	         9.14532e+57
          1905.81810	         9.42694e+57
          1906.62440	         1.21853e+58
          1907.43070	         1.50227e+58
          1908.23700	         1.49886e+58
          1909.04330	         1.23156e+58
          1909.84960	         1.07621e+58
          1910.65590	         9.23267e+57
          1911.46220	         8.92744e+57
          1912.26850	         7.95385e+57
          1913.07480	         5.70448e+57
          1913.88110	         5.00667e+57
          1914.68740	         4.98765e+57
          1915.49370	         6.00927e+57
          1916.30000	         6.20225e+57
          1917.10630	         6.85693e+57
          1917.91260	         6.44980e+57
          1918.71890	         6.31067e+57
          1919.52520	         6.69520e+57
          1920.33150	         6.14047e+57
          1921.13780	         6.50124e+57
          1921.94410	         7.91453e+57
          1922.75040	         7.61711e+57
          1923.55670	         6.44369e+57
          1924.36300	         6.79862e+57
          1925.16930	         6.94738e+57
          1925.97560	         4.96600e+57
          1926.78190	         3.56031e+57
          1927.58820	         5.66976e+57
          1928.39450	         5.51582e+57
          1929.20080	         5.64271e+57
          1930.00710	         6.61990e+57
          1930.81340	         7.53720e+57
          1931.61970	         7.04494e+57
          1932.42600	         7.14909e+57
          1933.23230	         8.18815e+57
          1934.03860	         7.03136e+57
          1934.84490	         6.10538e+57
          1935.65120	         7.36191e+57
          1936.45750	         8.74912e+57
          1937.26380	         8.23752e+57
          1938.07010	         7.24973e+57
          1938.87640	         7.65738e+57
          1939.68270	         8.24689e+57
          1940.48900	         8.72525e+57
          1941.29530	         7.91053e+57
          1942.10160	         7.48861e+57
          1942.90790	         6.84831e+57
          1943.71420	         6.60710e+57
          1944.52050	         6.41236e+57
          1945.32680	         5.78296e+57
          1946.13310	         6.73250e+57
          1946.93940	         7.56159e+57
          1947.74570	         6.84577e+57
          1948.55200	         6.20385e+57
          1949.35830	         6.59582e+57
          1950.16460	         5.90965e+57
          1950.97090	         6.55933e+57
          1951.77720	         7.00492e+57
          1952.58350	         7.24444e+57
          1953.38980	         5.69571e+57
          1954.19610	         4.67578e+57
          1955.00240	         6.14308e+57
          1955.80870	         5.77591e+57
          1956.61500	         6.27106e+57
          1957.42130	         6.20085e+57
          1958.22760	         7.32021e+57
          1959.03390	         7.41563e+57
          1959.84020	         7.65525e+57
          1960.64650	         7.76026e+57
          1961.45280	         7.31373e+57
          1962.25910	         6.51131e+57
          1963.06540	         7.06903e+57
          1963.87170	         6.01584e+57
          1964.67800	         7.66781e+57
          1965.48430	         7.36286e+57
          1966.29060	         6.54312e+57
          1967.09690	         7.84050e+57
          1967.90320	         6.54816e+57
          1968.70950	         5.20802e+57
          1969.51580	         4.86539e+57
          1970.32210	         6.84691e+57
          1971.12840	         6.74849e+57
          1971.93470	         5.62622e+57
          1972.74100	         4.74146e+57
          1973.54730	         6.87666e+57
          1974.35360	         7.05119e+57
          1975.15990	         7.71151e+57
          1975.96620	         7.36953e+57
          1976.77250	         6.73149e+57
          1977.57880	         7.66036e+57
          1978.38510	         7.04179e+57
          1979.19140	         6.19101e+57
          1979.99770	         7.83193e+57
          1980.80400	         7.91153e+57
          1981.61030	         6.40813e+57
          1982.41660	         5.14747e+57
          1983.22290	         5.79933e+57
          1984.02920	         5.65056e+57
          1984.83550	         5.33179e+57
          1985.64180	         6.81046e+57
          1986.44810	         7.37576e+57
          1987.25440	         5.22256e+57
          1988.06070	         5.40145e+57
          1988.86700	         7.11177e+57
          1989.67330	         7.57492e+57
          1990.47960	         6.91883e+57
          1991.28590	         6.67078e+57
          1992.09220	         5.43308e+57
          1992.89850	         5.91546e+57
          1993.70480	         5.99195e+57
          1994.51110	         5.45470e+57
          1995.31740	         4.38653e+57
          1996.12370	         4.33728e+57
          1996.93000	         5.70108e+57
          1997.73630	         7.60271e+57
          1998.54260	         7.11024e+57
          1999.34890	         6.95221e+57
          2000.15520	         6.77194e+57
          2000.96150	         6.04356e+57
          2001.76780	         5.37053e+57
          2002.57410	         4.23256e+57
          2003.38040	         5.23654e+57
          2004.18670	         6.20830e+57
          2004.99300	         5.83157e+57
          2005.79930	         6.71349e+57
          2006.60560	         6.89670e+57
          2007.41190	         6.72687e+57
          2008.21820	         7.30852e+57
          2009.02450	         7.20440e+57
          2009.83080	         7.44103e+57
          2010.63710	         6.97690e+57
          2011.44340	         6.90255e+57
          2012.24970	         7.10778e+57
          2013.05600	         6.59196e+57
          2013.86230	         6.37177e+57
          2014.66860	         5.30712e+57
          2015.47490	         6.43414e+57
          2016.28120	         6.83420e+57
          2017.08750	         6.04874e+57
          2017.89380	         6.07429e+57
          2018.70010	         6.30842e+57
          2019.50640	         6.58018e+57
          2020.31270	         7.25592e+57
          2021.11900	         6.93551e+57
          2021.92530	         6.29946e+57
          2022.73160	         7.29386e+57
          2023.53790	         7.54583e+57
          2024.34420	         6.83864e+57
          2025.15050	         6.02137e+57
          2025.95680	         5.60358e+57
          2026.76310	         6.61848e+57
          2027.56940	         5.77500e+57
          2028.37570	         5.53200e+57
          2029.18200	         6.08550e+57
          2029.98830	         5.85961e+57
          2030.79460	         4.63644e+57
          2031.60090	         5.16547e+57
          2032.40720	         5.62930e+57
          2033.21350	         5.78876e+57
          2034.01980	         5.69088e+57
          2034.82610	         4.03969e+57
          2035.63240	         5.73165e+57
          2036.43870	         5.95014e+57
          2037.24500	         6.96045e+57
          2038.05130	         7.03963e+57
          2038.85760	         5.40759e+57
          2039.66390	         5.99067e+57
          2040.47020	         5.20059e+57
          2041.27650	         5.57125e+57
          2042.08280	         6.88589e+57
          2042.88910	         5.89903e+57
          2043.69540	         5.54485e+57
          2044.50170	         6.05021e+57
          2045.30800	         5.12748e+57
          2046.11430	         5.15094e+57
          2046.92060	         6.44727e+57
          2047.72690	         7.32358e+57
          2048.53320	         5.18747e+57
          2049.33950	         3.88058e+57
          2050.14580	         5.22473e+57
          2050.95210	         6.03519e+57
          2051.75840	         7.34866e+57
          2052.56470	         6.18432e+57
          2053.37100	         4.78989e+57
          2054.17730	         3.95958e+57
          2054.98360	         5.55109e+57
          2055.78990	         4.00692e+57
          2056.59620	         4.03936e+57
          2057.40250	         5.57169e+57
          2058.20880	         7.15307e+57
          2059.01510	         6.38047e+57
          2059.82140	         6.08972e+57
          2060.62770	         9.04809e+57
          2061.43400	         1.69068e+58
          2062.24030	         1.24263e+58
          2063.04660	         4.61540e+57
          2063.85290	         2.14292e+57
          2064.65920	        -2.76997e+57
          2065.46550	        -8.89644e+57
          2066.27180	        -8.90278e+57
          2067.07810	         3.03714e+57
          2067.88440	         7.41176e+57
          2068.69070	         6.91333e+57
          2069.49700	         4.97994e+57
          2070.30330	         4.81814e+57
          2071.10960	         6.14489e+57
          2071.91590	         6.51341e+57
          2072.72220	         4.05980e+57
          2073.52850	         5.87150e+57
          2074.33480	         5.30231e+57
          2075.14110	         5.31172e+57
          2075.94740	         5.59946e+57
          2076.75370	         5.12812e+57
          2077.56000	         5.11165e+57
          2078.36630	         5.98394e+57
          2079.17260	         5.36554e+57
          2079.97890	         4.97219e+57
          2080.78520	         5.98846e+57
          2081.59150	         4.29437e+57
          2082.39780	         3.96617e+57
          2083.20410	         3.80087e+57
          2084.01040	         2.54469e+57
          2084.81670	         4.12242e+57
          2085.62300	         4.36745e+57
          2086.42930	         3.45408e+57
          2087.23560	         3.36029e+57
          2088.04190	         3.78539e+57
          2088.84820	         4.37183e+57
          2089.65450	         1.81288e+57
          2090.46080	         1.63452e+57
          2091.26710	         2.20119e+57
          2092.07340	         3.01908e+57
          2092.87970	         3.01071e+57
          2093.68600	        -4.85509e+56
          2094.49230	         5.69069e+56
          2095.29860	         4.51419e+57
          2096.10490	         9.47341e+56
          2096.91120	        -8.11318e+56
          2097.71750	         8.78150e+56
          2098.52380	         2.22653e+57
          2099.33010	         3.12098e+57
          2100.13640	         6.48915e+56
          2100.94270	        -1.24113e+57
          2101.74900	         1.36243e+57
          2102.55530	         2.51086e+57
          2103.36160	         3.19854e+57
          2104.16790	         3.18960e+57
          2104.97420	         2.72982e+57
          2105.78050	         2.03107e+57
          2106.58680	         3.24575e+57
          2107.39310	         9.15680e+56
          2108.19940	         6.75067e+56
          2109.00570	        -2.67345e+57
          2109.81200	        -2.61151e+57
          2110.61830	         4.83045e+55
          2111.42460	        -5.07640e+56
          2112.23090	         2.07034e+57
          2113.03720	         4.38744e+56
          2113.84350	        -1.59481e+57
          2114.64980	         4.30281e+57
          2115.45610	        -3.07113e+57
          2116.26240	        -9.22135e+57
          2117.06870	        -1.84009e+57
          2117.87500	        -2.61245e+57
          2118.68130	        -5.62802e+56
          2119.48760	         3.64207e+57
          2120.29390	         1.86341e+56
          2121.10020	         1.07690e+56
          2121.90650	        -1.80833e+57
          2122.71280	        -5.29670e+56
          2123.51910	         3.59408e+57
          2124.32540	         1.37440e+57
          2125.13170	        -1.14751e+57
          2125.93800	         1.67894e+57
          2126.74430	        -8.95781e+56
          2127.55060	        -6.73550e+57
          2128.35690	        -7.58347e+57
          2129.16320	        -6.91659e+57
          2129.96950	        -2.56225e+57
          2130.77580	         9.85628e+56
          2131.58210	         5.52226e+57
          2132.38840	        -5.94702e+56
          2133.19470	        -5.74280e+57
          2134.00100	        -4.58400e+57
          2134.80730	        -5.11969e+57
          2135.61360	         1.03608e+57
          2136.41990	         3.92456e+57
          2137.22620	         7.33980e+57
          2138.03250	        -2.89755e+56
          2138.83880	        -4.31248e+57
          2139.64510	        -5.33156e+57
          2140.45140	        -6.49576e+57
          2141.25770	        -8.53073e+57
          2142.06400	        -5.90233e+57
          2142.87030	        -1.12385e+57
          2143.67660	         7.28551e+57
          2144.48290	         6.53408e+57
          2145.28920	         1.38618e+58
          2146.09550	        -3.86674e+57
          2146.90180	        -1.19302e+58
          2147.70810	        -2.64115e+57
          2148.51440	        -4.19191e+57
          2149.32070	        -1.19828e+58
          2150.12700	        -9.99448e+57
          2150.93330	         5.42990e+56
          2151.73960	         5.58720e+56
          2152.54590	        -6.84842e+56
          2153.35220	         3.98507e+57
          2154.15850	         4.00385e+56
          2154.96480	        -3.08285e+57
          2155.77110	        -3.97277e+57
          2156.57740	        -2.00933e+57
          2157.38370	        -3.39293e+57
          2158.19000	        -3.05983e+57
          2158.99630	        -6.17473e+57
          2159.80260	        -1.93252e+58
          2160.60890	        -1.23502e+56
          2161.41520	         6.27104e+57
          2162.22150	        -2.79802e+57
          2163.02780	        -1.11126e+57
          2163.83410	        -2.40397e+57
          2164.64040	        -1.17318e+58
          2165.44670	        -1.20039e+58
          2166.25300	        -3.88506e+57
          2167.05930	        -1.20346e+58
          2167.86560	        -1.03061e+58
          2168.67190	        -2.07364e+58
          2169.47820	        -3.47412e+57
          2170.28450	        -9.42909e+57
          2171.09080	         7.50576e+56
          2171.89710	         1.00392e+57
          2172.70340	         4.16652e+57
          2173.50970	        -8.99303e+57
          2174.31600	        -5.04812e+57
          2175.12230	         1.88165e+57
          2175.92860	        -5.95796e+57
          2176.73490	        -3.17283e+57
          2177.54120	        -7.99740e+57
          2178.34750	        -4.73558e+57
          2179.15380	                 nan
          2179.96010	                 nan
          2180.76640	                 nan
          2181.57270	                 nan
          2182.37900	                 nan
          2183.18530	                 nan
          2183.99160	                 nan
          2184.79790	                 nan
          2185.60420	                 nan
          2186.41050	                 nan
          2187.21680	                 nan
          2188.02310	                 nan
          2188.82940	                 nan
          2189.63570	                 nan
          2190.44200	                 nan
          2191.24830	                 nan
          2192.05460	                 nan
          2192.86090	                 nan
          2193.66720	                 nan
          2194.47350	                 nan
          2195.27980	                 nan
          2196.08610	                 nan
          2196.89240	                 nan
          2197.69870	                 nan
          2198.50500	                 nan
          2199.31130	                 nan
          2200.11760	                 nan
          2200.92390	                 nan
          2201.73020	                 nan
          2202.53650	                 nan
          2203.34280	                 nan
          2204.14910	                 nan
          2204.95540	                 nan
          2205.76170	                 nan
          2206.56800	                 nan
          2207.37430	                 nan
          2208.18060	                 nan
          2208.98690	                 nan
          2209.79320	                 nan
          2210.59950	                 nan
          2211.40580	                 nan
          2212.21210	                 nan
          2213.01840	                 nan
          2213.82470	                 nan
          2214.63100	                 nan
          2215.43730	         0.00000e+00
