#sample_32_stacked_spectrum_rest_UV-bands_median_H-alpha_noDC.txt
#median Lum: 1.67965e+42
#Rest-frame wavelength (A) | Luminosity (erg/s/A)
#
          1110.00000	         0.00000e+00
          1110.80630	         3.18972e+59
          1111.61260	        -1.06150e+59
          1112.41890	         6.28228e+58
          1113.22520	         4.97803e+58
          1114.03150	        -4.71862e+58
          1114.83780	         2.32501e+59
          1115.64410	         1.37763e+59
          1116.45040	         1.46971e+59
          1117.25670	         1.06099e+59
          1118.06300	         2.14202e+59
          1118.86930	         3.82248e+58
          1119.67560	         1.07841e+59
          1120.48190	        -8.75956e+58
          1121.28820	        -1.66351e+59
          1122.09450	         1.87048e+58
          1122.90080	         4.78497e+55
          1123.70710	         8.37819e+58
          1124.51340	         6.54750e+58
          1125.31970	         6.79642e+58
          1126.12600	         4.59276e+58
          1126.93230	        -3.73551e+58
          1127.73860	        -4.02738e+58
          1128.54490	        -1.49438e+58
          1129.35120	        -4.30851e+57
          1130.15750	         2.11996e+58
          1130.96380	         3.03529e+57
          1131.77010	         4.23743e+58
          1132.57640	         4.78306e+58
          1133.38270	         3.65018e+58
          1134.18900	         1.68234e+58
          1134.99530	         3.58218e+57
          1135.80160	         2.11196e+58
          1136.60790	         1.93016e+58
          1137.41420	        -1.85751e+58
          1138.22050	         1.24826e+58
          1139.02680	         3.26287e+58
          1139.83310	         2.03509e+58
          1140.63940	         1.93576e+58
          1141.44570	        -1.73914e+58
          1142.25200	        -1.34875e+58
          1143.05830	         1.46847e+58
          1143.86460	         2.69375e+58
          1144.67090	         1.62029e+58
          1145.47720	         1.24806e+58
          1146.28350	         3.43609e+57
          1147.08980	         1.70677e+58
          1147.89610	         1.92134e+58
          1148.70240	         2.00692e+58
          1149.50870	         2.56153e+58
          1150.31500	         7.47262e+57
          1151.12130	         9.50472e+57
          1151.92760	         1.51970e+57
          1152.73390	        -3.47694e+57
          1153.54020	        -6.64536e+56
          1154.34650	         9.27520e+57
          1155.15280	         1.08242e+58
          1155.95910	         9.36685e+57
          1156.76540	         1.31924e+58
          1157.57170	        -4.57965e+57
          1158.37800	        -2.43756e+57
          1159.18430	        -6.18232e+57
          1159.99060	         9.38863e+56
          1160.79690	         3.24357e+57
          1161.60320	         1.55594e+58
          1162.40950	         2.25678e+58
          1163.21580	         2.03034e+58
          1164.02210	         1.72006e+58
          1164.82840	         1.24167e+58
          1165.63470	         2.68419e+58
          1166.44100	         3.32995e+58
          1167.24730	         1.98638e+58
          1168.05360	         3.95820e+57
          1168.85990	         2.97187e+57
          1169.66620	         2.91402e+57
          1170.47250	         1.07564e+58
          1171.27880	         8.19136e+57
          1172.08510	         1.13192e+58
          1172.89140	         1.16599e+58
          1173.69770	         5.43450e+57
          1174.50400	         1.14803e+58
          1175.31030	         1.99506e+58
          1176.11660	         2.06040e+58
          1176.92290	         1.06693e+58
          1177.72920	         1.32664e+58
          1178.53550	         7.97141e+57
          1179.34180	         5.68838e+57
          1180.14810	         4.06943e+57
          1180.95440	         9.35240e+57
          1181.76070	         1.26206e+58
          1182.56700	         9.67263e+57
          1183.37330	         4.93016e+57
          1184.17960	         1.07830e+58
          1184.98590	         1.00580e+58
          1185.79220	         8.64719e+57
          1186.59850	         6.67358e+57
          1187.40480	         1.16537e+58
          1188.21110	         1.25031e+58
          1189.01740	         5.72853e+57
          1189.82370	         7.37472e+57
          1190.63000	         1.19965e+58
          1191.43630	         1.30009e+58
          1192.24260	         9.89557e+57
          1193.04890	         9.20577e+57
          1193.85520	         1.58475e+58
          1194.66150	         7.58498e+57
          1195.46780	         9.97637e+57
          1196.27410	         9.39530e+57
          1197.08040	         6.31445e+57
          1197.88670	         1.38981e+58
          1198.69300	         1.78762e+58
          1199.49930	         1.75819e+58
          1200.30560	         1.40191e+58
          1201.11190	         1.09985e+58
          1201.91820	         6.61834e+57
          1202.72450	         7.94898e+57
          1203.53080	         1.14881e+58
          1204.33710	         6.59846e+57
          1205.14340	         7.25356e+57
          1205.94970	         7.68961e+57
          1206.75600	         9.10677e+57
          1207.56230	         4.61277e+57
          1208.36860	         8.30685e+57
          1209.17490	         5.40973e+57
          1209.98120	         5.25809e+57
          1210.78750	         7.61427e+57
          1211.59380	         1.25658e+58
          1212.40010	         1.90001e+58
          1213.20640	         1.77298e+58
          1214.01270	         2.04855e+58
          1214.81900	         2.76609e+58
          1215.62530	         4.80802e+58
          1216.43160	         8.96054e+58
          1217.23790	         1.47089e+59
          1218.04420	         1.16190e+59
          1218.85050	         9.00950e+58
          1219.65680	         5.38625e+58
          1220.46310	         3.37694e+58
          1221.26940	         2.58555e+58
          1222.07570	         1.56933e+58
          1222.88200	         1.33109e+58
          1223.68830	         1.07220e+58
          1224.49460	         7.21079e+57
          1225.30090	         5.91800e+57
          1226.10720	         6.57032e+57
          1226.91350	         1.01210e+58
          1227.71980	         9.39669e+57
          1228.52610	         1.30873e+58
          1229.33240	         7.95393e+57
          1230.13870	         8.27865e+57
          1230.94500	         6.61674e+57
          1231.75130	         5.29004e+57
          1232.55760	         8.86239e+57
          1233.36390	         9.36134e+57
          1234.17020	         8.98122e+57
          1234.97650	         7.35762e+57
          1235.78280	         7.40396e+57
          1236.58910	         7.94519e+57
          1237.39540	         1.04479e+58
          1238.20170	         1.00908e+58
          1239.00800	         1.23386e+58
          1239.81430	         1.45930e+58
          1240.62060	         1.19023e+58
          1241.42690	         9.80227e+57
          1242.23320	         9.51971e+57
          1243.03950	         9.16936e+57
          1243.84580	         7.67971e+57
          1244.65210	         1.00021e+58
          1245.45840	         1.01255e+58
          1246.26470	         7.63067e+57
          1247.07100	         7.57183e+57
          1247.87730	         9.47636e+57
          1248.68360	         2.99387e+57
          1249.48990	         6.80444e+57
          1250.29620	         8.30679e+57
          1251.10250	         7.42414e+57
          1251.90880	         4.74807e+57
          1252.71510	         8.37873e+57
          1253.52140	         9.68478e+57
          1254.32770	         1.01188e+58
          1255.13400	         1.28853e+58
          1255.94030	         1.15974e+58
          1256.74660	         1.15526e+58
          1257.55290	         1.09902e+58
          1258.35920	         9.87317e+57
          1259.16550	         8.77598e+57
          1259.97180	         5.68100e+57
          1260.77810	         9.78295e+57
          1261.58440	         1.31716e+58
          1262.39070	         1.04156e+58
          1263.19700	         8.47373e+57
          1264.00330	         8.91971e+57
          1264.80960	         9.19406e+57
          1265.61590	         1.17729e+58
          1266.42220	         1.31562e+58
          1267.22850	         1.23523e+58
          1268.03480	         1.54661e+58
          1268.84110	         1.68674e+58
          1269.64740	         1.37023e+58
          1270.45370	         1.32561e+58
          1271.26000	         1.10111e+58
          1272.06630	         1.12882e+58
          1272.87260	         1.27770e+58
          1273.67890	         1.42417e+58
          1274.48520	         1.50592e+58
          1275.29150	         1.48710e+58
          1276.09780	         1.24397e+58
          1276.90410	         1.36669e+58
          1277.71040	         1.14379e+58
          1278.51670	         1.18358e+58
          1279.32300	         1.36182e+58
          1280.12930	         1.07805e+58
          1280.93560	         8.98004e+57
          1281.74190	         9.43841e+57
          1282.54820	         9.26103e+57
          1283.35450	         9.11185e+57
          1284.16080	         1.39318e+58
          1284.96710	         1.54250e+58
          1285.77340	         1.34940e+58
          1286.57970	         1.34950e+58
          1287.38600	         1.65997e+58
          1288.19230	         1.89566e+58
          1288.99860	         1.60097e+58
          1289.80490	         1.16526e+58
          1290.61120	         1.25854e+58
          1291.41750	         1.43039e+58
          1292.22380	         1.33905e+58
          1293.03010	         1.14577e+58
          1293.83640	         1.16226e+58
          1294.64270	         9.71489e+57
          1295.44900	         7.30727e+57
          1296.25530	         7.47712e+57
          1297.06160	         1.01679e+58
          1297.86790	         1.16707e+58
          1298.67420	         9.29702e+57
          1299.48050	         1.16234e+58
          1300.28680	         1.13499e+58
          1301.09310	         5.59319e+57
          1301.89940	         3.78694e+57
          1302.70570	         5.62339e+57
          1303.51200	         8.59002e+57
          1304.31830	         1.01161e+58
          1305.12460	         1.03275e+58
          1305.93090	         1.03344e+58
          1306.73720	         1.21064e+58
          1307.54350	         1.49452e+58
          1308.34980	         1.48322e+58
          1309.15610	         1.50989e+58
          1309.96240	         1.54614e+58
          1310.76870	         1.25181e+58
          1311.57500	         1.07462e+58
          1312.38130	         8.97844e+57
          1313.18760	         1.13099e+58
          1313.99390	         1.52209e+58
          1314.80020	         1.46015e+58
          1315.60650	         1.42877e+58
          1316.41280	         1.35455e+58
          1317.21910	         1.31573e+58
          1318.02540	         1.35325e+58
          1318.83170	         1.31696e+58
          1319.63800	         1.33762e+58
          1320.44430	         1.19640e+58
          1321.25060	         1.11000e+58
          1322.05690	         1.22383e+58
          1322.86320	         1.18493e+58
          1323.66950	         1.10374e+58
          1324.47580	         9.55171e+57
          1325.28210	         8.87474e+57
          1326.08840	         1.01787e+58
          1326.89470	         1.09717e+58
          1327.70100	         9.27838e+57
          1328.50730	         8.11712e+57
          1329.31360	         8.25858e+57
          1330.11990	         8.99414e+57
          1330.92620	         9.65788e+57
          1331.73250	         1.04361e+58
          1332.53880	         9.01638e+57
          1333.34510	         8.85716e+57
          1334.15140	         9.41963e+57
          1334.95770	         8.55940e+57
          1335.76400	         1.02560e+58
          1336.57030	         1.22570e+58
          1337.37660	         1.18474e+58
          1338.18290	         1.10144e+58
          1338.98920	         1.17612e+58
          1339.79550	         1.17384e+58
          1340.60180	         1.11142e+58
          1341.40810	         1.22041e+58
          1342.21440	         1.21388e+58
          1343.02070	         1.34776e+58
          1343.82700	         1.40570e+58
          1344.63330	         1.34253e+58
          1345.43960	         1.32607e+58
          1346.24590	         1.14012e+58
          1347.05220	         1.11671e+58
          1347.85850	         1.17217e+58
          1348.66480	         1.19151e+58
          1349.47110	         1.26589e+58
          1350.27740	         1.28946e+58
          1351.08370	         1.20251e+58
          1351.89000	         1.09808e+58
          1352.69630	         1.04033e+58
          1353.50260	         1.04480e+58
          1354.30890	         1.23566e+58
          1355.11520	         1.10739e+58
          1355.92150	         9.48341e+57
          1356.72780	         1.01050e+58
          1357.53410	         1.13291e+58
          1358.34040	         1.20328e+58
          1359.14670	         1.12607e+58
          1359.95300	         1.18958e+58
          1360.75930	         1.09667e+58
          1361.56560	         1.02829e+58
          1362.37190	         9.88962e+57
          1363.17820	         9.71484e+57
          1363.98450	         1.05077e+58
          1364.79080	         1.31338e+58
          1365.59710	         1.38635e+58
          1366.40340	         1.23185e+58
          1367.20970	         1.18037e+58
          1368.01600	         1.01565e+58
          1368.82230	         1.16172e+58
          1369.62860	         1.14126e+58
          1370.43490	         9.56674e+57
          1371.24120	         9.71927e+57
          1372.04750	         7.96935e+57
          1372.85380	         9.25950e+57
          1373.66010	         1.14467e+58
          1374.46640	         1.11077e+58
          1375.27270	         1.11642e+58
          1376.07900	         9.61924e+57
          1376.88530	         9.58221e+57
          1377.69160	         8.93288e+57
          1378.49790	         7.27772e+57
          1379.30420	         7.12336e+57
          1380.11050	         8.31852e+57
          1380.91680	         9.26149e+57
          1381.72310	         8.74379e+57
          1382.52940	         9.21845e+57
          1383.33570	         1.00519e+58
          1384.14200	         1.03105e+58
          1384.94830	         1.04479e+58
          1385.75460	         1.13694e+58
          1386.56090	         1.23403e+58
          1387.36720	         1.21557e+58
          1388.17350	         1.27145e+58
          1388.97980	         1.13456e+58
          1389.78610	         9.78318e+57
          1390.59240	         9.05109e+57
          1391.39870	         7.56378e+57
          1392.20500	         7.66668e+57
          1393.01130	         6.65250e+57
          1393.81760	         6.72676e+57
          1394.62390	         7.48883e+57
          1395.43020	         6.67406e+57
          1396.23650	         6.55575e+57
          1397.04280	         7.36633e+57
          1397.84910	         8.27137e+57
          1398.65540	         9.38984e+57
          1399.46170	         1.05683e+58
          1400.26800	         8.86611e+57
          1401.07430	         7.06633e+57
          1401.88060	         7.44125e+57
          1402.68690	         9.60542e+57
          1403.49320	         9.95575e+57
          1404.29950	         9.03082e+57
          1405.10580	         9.72757e+57
          1405.91210	         1.04676e+58
          1406.71840	         1.10719e+58
          1407.52470	         1.11044e+58
          1408.33100	         1.12320e+58
          1409.13730	         1.14394e+58
          1409.94360	         1.08106e+58
          1410.74990	         1.11314e+58
          1411.55620	         9.98292e+57
          1412.36250	         8.11039e+57
          1413.16880	         7.47822e+57
          1413.97510	         7.22894e+57
          1414.78140	         8.17278e+57
          1415.58770	         9.80959e+57
          1416.39400	         1.14280e+58
          1417.20030	         1.16050e+58
          1418.00660	         8.16837e+57
          1418.81290	         9.69953e+57
          1419.61920	         1.12327e+58
          1420.42550	         1.28927e+58
          1421.23180	         1.43590e+58
          1422.03810	         1.23917e+58
          1422.84440	         1.12831e+58
          1423.65070	         1.29982e+58
          1424.45700	         1.17907e+58
          1425.26330	         8.96772e+57
          1426.06960	         8.74340e+57
          1426.87590	         1.00460e+58
          1427.68220	         1.04808e+58
          1428.48850	         1.08669e+58
          1429.29480	         1.05621e+58
          1430.10110	         1.05022e+58
          1430.90740	         1.02566e+58
          1431.71370	         9.76655e+57
          1432.52000	         9.89648e+57
          1433.32630	         8.84903e+57
          1434.13260	         8.57384e+57
          1434.93890	         9.05071e+57
          1435.74520	         9.34720e+57
          1436.55150	         9.63054e+57
          1437.35780	         8.87382e+57
          1438.16410	         9.32099e+57
          1438.97040	         9.56446e+57
          1439.77670	         9.14045e+57
          1440.58300	         9.05478e+57
          1441.38930	         9.13302e+57
          1442.19560	         9.09786e+57
          1443.00190	         9.14306e+57
          1443.80820	         1.08411e+58
          1444.61450	         9.26316e+57
          1445.42080	         8.32591e+57
          1446.22710	         1.06823e+58
          1447.03340	         1.07305e+58
          1447.83970	         1.10378e+58
          1448.64600	         1.02228e+58
          1449.45230	         9.97708e+57
          1450.25860	         1.05206e+58
          1451.06490	         8.33825e+57
          1451.87120	         7.09148e+57
          1452.67750	         7.56296e+57
          1453.48380	         8.99208e+57
          1454.29010	         7.77474e+57
          1455.09640	         7.44534e+57
          1455.90270	         9.26246e+57
          1456.70900	         9.12716e+57
          1457.51530	         1.02384e+58
          1458.32160	         1.24819e+58
          1459.12790	         1.17370e+58
          1459.93420	         1.03380e+58
          1460.74050	         7.92877e+57
          1461.54680	         8.45591e+57
          1462.35310	         9.96269e+57
          1463.15940	         1.08417e+58
          1463.96570	         1.19440e+58
          1464.77200	         1.28963e+58
          1465.57830	         1.05859e+58
          1466.38460	         9.77699e+57
          1467.19090	         9.24510e+57
          1467.99720	         9.00372e+57
          1468.80350	         8.90696e+57
          1469.60980	         9.60773e+57
          1470.41610	         1.09957e+58
          1471.22240	         9.83652e+57
          1472.02870	         9.42817e+57
          1472.83500	         9.54403e+57
          1473.64130	         9.06042e+57
          1474.44760	         8.63555e+57
          1475.25390	         9.35200e+57
          1476.06020	         9.47959e+57
          1476.86650	         9.13630e+57
          1477.67280	         7.92697e+57
          1478.47910	         6.85394e+57
          1479.28540	         8.26166e+57
          1480.09170	         8.72613e+57
          1480.89800	         8.09244e+57
          1481.70430	         7.66158e+57
          1482.51060	         7.99550e+57
          1483.31690	         7.95326e+57
          1484.12320	         7.18411e+57
          1484.92950	         7.44967e+57
          1485.73580	         8.00962e+57
          1486.54210	         8.27447e+57
          1487.34840	         8.43544e+57
          1488.15470	         8.27132e+57
          1488.96100	         8.65528e+57
          1489.76730	         9.43591e+57
          1490.57360	         8.12109e+57
          1491.37990	         6.19503e+57
          1492.18620	         7.14332e+57
          1492.99250	         7.49947e+57
          1493.79880	         8.34802e+57
          1494.60510	         8.64903e+57
          1495.41140	         8.29342e+57
          1496.21770	         9.29043e+57
          1497.02400	         1.06189e+58
          1497.83030	         8.39511e+57
          1498.63660	         6.14046e+57
          1499.44290	         6.75691e+57
          1500.24920	         7.74250e+57
          1501.05550	         7.78806e+57
          1501.86180	         8.85804e+57
          1502.66810	         9.96395e+57
          1503.47440	         9.23716e+57
          1504.28070	         8.99994e+57
          1505.08700	         9.48931e+57
          1505.89330	         8.58151e+57
          1506.69960	         8.84732e+57
          1507.50590	         8.99672e+57
          1508.31220	         8.99278e+57
          1509.11850	         9.63093e+57
          1509.92480	         1.04190e+58
          1510.73110	         1.01115e+58
          1511.53740	         8.36598e+57
          1512.34370	         6.84505e+57
          1513.15000	         9.15315e+57
          1513.95630	         1.05390e+58
          1514.76260	         9.26033e+57
          1515.56890	         7.68072e+57
          1516.37520	         8.38902e+57
          1517.18150	         8.65168e+57
          1517.98780	         7.53138e+57
          1518.79410	         6.84698e+57
          1519.60040	         7.54904e+57
          1520.40670	         8.84828e+57
          1521.21300	         8.74829e+57
          1522.01930	         7.79069e+57
          1522.82560	         8.78884e+57
          1523.63190	         1.08897e+58
          1524.43820	         9.43903e+57
          1525.24450	         5.75691e+57
          1526.05080	         5.49841e+57
          1526.85710	         5.92435e+57
          1527.66340	         6.34076e+57
          1528.46970	         8.42877e+57
          1529.27600	         8.65664e+57
          1530.08230	         8.44267e+57
          1530.88860	         7.83838e+57
          1531.69490	         7.77170e+57
          1532.50120	         8.94797e+57
          1533.30750	         9.32062e+57
          1534.11380	         9.22581e+57
          1534.92010	         8.40173e+57
          1535.72640	         9.50899e+57
          1536.53270	         1.02850e+58
          1537.33900	         9.23305e+57
          1538.14530	         8.59840e+57
          1538.95160	         9.05629e+57
          1539.75790	         9.47843e+57
          1540.56420	         9.11066e+57
          1541.37050	         8.07199e+57
          1542.17680	         7.79145e+57
          1542.98310	         7.00718e+57
          1543.78940	         7.17745e+57
          1544.59570	         6.88258e+57
          1545.40200	         7.79314e+57
          1546.20830	         9.79256e+57
          1547.01460	         1.18186e+58
          1547.82090	         1.10869e+58
          1548.62720	         1.17029e+58
          1549.43350	         1.10304e+58
          1550.23980	         1.08770e+58
          1551.04610	         1.17833e+58
          1551.85240	         1.22258e+58
          1552.65870	         1.23304e+58
          1553.46500	         1.09367e+58
          1554.27130	         9.98038e+57
          1555.07760	         9.87454e+57
          1555.88390	         9.14115e+57
          1556.69020	         9.44851e+57
          1557.49650	         9.73264e+57
          1558.30280	         9.05526e+57
          1559.10910	         8.92001e+57
          1559.91540	         9.61873e+57
          1560.72170	         9.39318e+57
          1561.52800	         9.21442e+57
          1562.33430	         8.91912e+57
          1563.14060	         8.19654e+57
          1563.94690	         8.56805e+57
          1564.75320	         8.66921e+57
          1565.55950	         6.80289e+57
          1566.36580	         7.38459e+57
          1567.17210	         9.29717e+57
          1567.97840	         9.27560e+57
          1568.78470	         8.67052e+57
          1569.59100	         8.88243e+57
          1570.39730	         8.72497e+57
          1571.20360	         7.17466e+57
          1572.00990	         7.45769e+57
          1572.81620	         9.34493e+57
          1573.62250	         1.09137e+58
          1574.42880	         9.56455e+57
          1575.23510	         8.05718e+57
          1576.04140	         8.43729e+57
          1576.84770	         8.92318e+57
          1577.65400	         9.27845e+57
          1578.46030	         1.02562e+58
          1579.26660	         1.05752e+58
          1580.07290	         1.04678e+58
          1580.87920	         8.39717e+57
          1581.68550	         7.68453e+57
          1582.49180	         8.71876e+57
          1583.29810	         8.31960e+57
          1584.10440	         8.36000e+57
          1584.91070	         8.55691e+57
          1585.71700	         8.36585e+57
          1586.52330	         8.61864e+57
          1587.32960	         8.92014e+57
          1588.13590	         9.46227e+57
          1588.94220	         8.58286e+57
          1589.74850	         9.63153e+57
          1590.55480	         9.70895e+57
          1591.36110	         7.33256e+57
          1592.16740	         7.61922e+57
          1592.97370	         8.38196e+57
          1593.78000	         9.39527e+57
          1594.58630	         1.01818e+58
          1595.39260	         9.15914e+57
          1596.19890	         8.39370e+57
          1597.00520	         8.82063e+57
          1597.81150	         8.90316e+57
          1598.61780	         8.25932e+57
          1599.42410	         6.97644e+57
          1600.23040	         6.83166e+57
          1601.03670	         7.88487e+57
          1601.84300	         7.53393e+57
          1602.64930	         8.71459e+57
          1603.45560	         9.07465e+57
          1604.26190	         8.83149e+57
          1605.06820	         8.19589e+57
          1605.87450	         7.26235e+57
          1606.68080	         7.07320e+57
          1607.48710	         6.09581e+57
          1608.29340	         6.36396e+57
          1609.09970	         7.52548e+57
          1609.90600	         7.68255e+57
          1610.71230	         7.03733e+57
          1611.51860	         7.28844e+57
          1612.32490	         6.51292e+57
          1613.13120	         7.52152e+57
          1613.93750	         8.17793e+57
          1614.74380	         9.45195e+57
          1615.55010	         9.01294e+57
          1616.35640	         9.38659e+57
          1617.16270	         1.09328e+58
          1617.96900	         1.07039e+58
          1618.77530	         8.31285e+57
          1619.58160	         7.61216e+57
          1620.38790	         8.28960e+57
          1621.19420	         9.61416e+57
          1622.00050	         7.27904e+57
          1622.80680	         7.19728e+57
          1623.61310	         8.94044e+57
          1624.41940	         8.80797e+57
          1625.22570	         9.05904e+57
          1626.03200	         8.68664e+57
          1626.83830	         7.76504e+57
          1627.64460	         5.94953e+57
          1628.45090	         6.61287e+57
          1629.25720	         8.85610e+57
          1630.06350	         8.99041e+57
          1630.86980	         6.96862e+57
          1631.67610	         8.60748e+57
          1632.48240	         9.48976e+57
          1633.28870	         9.56995e+57
          1634.09500	         9.70433e+57
          1634.90130	         1.01694e+58
          1635.70760	         8.45236e+57
          1636.51390	         8.31817e+57
          1637.32020	         8.24648e+57
          1638.12650	         9.25055e+57
          1638.93280	         1.02685e+58
          1639.73910	         1.01050e+58
          1640.54540	         1.02735e+58
          1641.35170	         8.44135e+57
          1642.15800	         8.36036e+57
          1642.96430	         8.83634e+57
          1643.77060	         8.53580e+57
          1644.57690	         7.42051e+57
          1645.38320	         7.89715e+57
          1646.18950	         6.95324e+57
          1646.99580	         8.23712e+57
          1647.80210	         8.15097e+57
          1648.60840	         7.27313e+57
          1649.41470	         7.88539e+57
          1650.22100	         6.01501e+57
          1651.02730	         6.89992e+57
          1651.83360	         7.49227e+57
          1652.63990	         7.41927e+57
          1653.44620	         9.21926e+57
          1654.25250	         8.98105e+57
          1655.05880	         7.75270e+57
          1655.86510	         8.14757e+57
          1656.67140	         9.12573e+57
          1657.47770	         8.90057e+57
          1658.28400	         8.64642e+57
          1659.09030	         8.84657e+57
          1659.89660	         8.74288e+57
          1660.70290	         9.73498e+57
          1661.50920	         9.68480e+57
          1662.31550	         8.50685e+57
          1663.12180	         8.24646e+57
          1663.92810	         9.86343e+57
          1664.73440	         1.16156e+58
          1665.54070	         1.21396e+58
          1666.34700	         1.25804e+58
          1667.15330	         1.08792e+58
          1667.95960	         8.43090e+57
          1668.76590	         7.79542e+57
          1669.57220	         7.22875e+57
          1670.37850	         7.85214e+57
          1671.18480	         8.38257e+57
          1671.99110	         8.31328e+57
          1672.79740	         7.13709e+57
          1673.60370	         6.94412e+57
          1674.41000	         7.91160e+57
          1675.21630	         7.60358e+57
          1676.02260	         6.74333e+57
          1676.82890	         6.73681e+57
          1677.63520	         6.86678e+57
          1678.44150	         7.77480e+57
          1679.24780	         9.13729e+57
          1680.05410	         7.60523e+57
          1680.86040	         6.02418e+57
          1681.66670	         7.30877e+57
          1682.47300	         8.86631e+57
          1683.27930	         8.29789e+57
          1684.08560	         8.57445e+57
          1684.89190	         7.74260e+57
          1685.69820	         5.46169e+57
          1686.50450	         5.18826e+57
          1687.31080	         6.77484e+57
          1688.11710	         7.23422e+57
          1688.92340	         7.43872e+57
          1689.72970	         6.93587e+57
          1690.53600	         6.03624e+57
          1691.34230	         7.10151e+57
          1692.14860	         7.54665e+57
          1692.95490	         6.77556e+57
          1693.76120	         5.95429e+57
          1694.56750	         6.77689e+57
          1695.37380	         8.34647e+57
          1696.18010	         8.23881e+57
          1696.98640	         8.59067e+57
          1697.79270	         8.45856e+57
          1698.59900	         8.27957e+57
          1699.40530	         7.76817e+57
          1700.21160	         7.22886e+57
          1701.01790	         9.18409e+57
          1701.82420	         8.58849e+57
          1702.63050	         7.89415e+57
          1703.43680	         7.95107e+57
          1704.24310	         8.50363e+57
          1705.04940	         8.61871e+57
          1705.85570	         7.95540e+57
          1706.66200	         7.61079e+57
          1707.46830	         8.36716e+57
          1708.27460	         8.01844e+57
          1709.08090	         5.85139e+57
          1709.88720	         6.10372e+57
          1710.69350	         7.84755e+57
          1711.49980	         7.49675e+57
          1712.30610	         7.13894e+57
          1713.11240	         7.83784e+57
          1713.91870	         7.87916e+57
          1714.72500	         8.52917e+57
          1715.53130	         8.75811e+57
          1716.33760	         7.53716e+57
          1717.14390	         7.42592e+57
          1717.95020	         8.62843e+57
          1718.75650	         8.56851e+57
          1719.56280	         9.19835e+57
          1720.36910	         7.10669e+57
          1721.17540	         6.36082e+57
          1721.98170	         6.79198e+57
          1722.78800	         6.68553e+57
          1723.59430	         6.64949e+57
          1724.40060	         7.47711e+57
          1725.20690	         8.16987e+57
          1726.01320	         7.75017e+57
          1726.81950	         8.31110e+57
          1727.62580	         7.78612e+57
          1728.43210	         6.52354e+57
          1729.23840	         6.99255e+57
          1730.04470	         6.41755e+57
          1730.85100	         7.20516e+57
          1731.65730	         7.86484e+57
          1732.46360	         7.61710e+57
          1733.26990	         7.61377e+57
          1734.07620	         7.11651e+57
          1734.88250	         7.00539e+57
          1735.68880	         8.20057e+57
          1736.49510	         8.65213e+57
          1737.30140	         7.66011e+57
          1738.10770	         6.55140e+57
          1738.91400	         7.34920e+57
          1739.72030	         7.59291e+57
          1740.52660	         6.59516e+57
          1741.33290	         6.41619e+57
          1742.13920	         6.03502e+57
          1742.94550	         6.81096e+57
          1743.75180	         7.60346e+57
          1744.55810	         7.90351e+57
          1745.36440	         7.11324e+57
          1746.17070	         5.97026e+57
          1746.97700	         6.01521e+57
          1747.78330	         7.35610e+57
          1748.58960	         7.63696e+57
          1749.39590	         6.69383e+57
          1750.20220	         6.01186e+57
          1751.00850	         5.58131e+57
          1751.81480	         5.16760e+57
          1752.62110	         6.65025e+57
          1753.42740	         7.88861e+57
          1754.23370	         6.38663e+57
          1755.04000	         7.11285e+57
          1755.84630	         8.24248e+57
          1756.65260	         9.43258e+57
          1757.45890	         8.77371e+57
          1758.26520	         6.46612e+57
          1759.07150	         8.52415e+57
          1759.87780	         9.14281e+57
          1760.68410	         7.52685e+57
          1761.49040	         8.57812e+57
          1762.29670	         6.98567e+57
          1763.10300	         7.87021e+57
          1763.90930	         7.42056e+57
          1764.71560	         6.45208e+57
          1765.52190	         6.64245e+57
          1766.32820	         8.07373e+57
          1767.13450	         8.72494e+57
          1767.94080	         6.53094e+57
          1768.74710	         6.26126e+57
          1769.55340	         7.98382e+57
          1770.35970	         6.98916e+57
          1771.16600	         7.40311e+57
          1771.97230	         8.69447e+57
          1772.77860	         8.51448e+57
          1773.58490	         6.98714e+57
          1774.39120	         5.67906e+57
          1775.19750	         5.89821e+57
          1776.00380	         6.37980e+57
          1776.81010	         7.41139e+57
          1777.61640	         7.11191e+57
          1778.42270	         7.60403e+57
          1779.22900	         6.39262e+57
          1780.03530	         5.26083e+57
          1780.84160	         7.60177e+57
          1781.64790	         9.07506e+57
          1782.45420	         6.94727e+57
          1783.26050	         6.77840e+57
          1784.06680	         7.35545e+57
          1784.87310	         7.36553e+57
          1785.67940	         7.09790e+57
          1786.48570	         7.20978e+57
          1787.29200	         6.29766e+57
          1788.09830	         6.19411e+57
          1788.90460	         6.08536e+57
          1789.71090	         5.84462e+57
          1790.51720	         5.62437e+57
          1791.32350	         7.63722e+57
          1792.12980	         8.78605e+57
          1792.93610	         7.92923e+57
          1793.74240	         7.66406e+57
          1794.54870	         8.15929e+57
          1795.35500	         7.81684e+57
          1796.16130	         7.72225e+57
          1796.96760	         6.93827e+57
          1797.77390	         8.35658e+57
          1798.58020	         8.10047e+57
          1799.38650	         6.75681e+57
          1800.19280	         7.07254e+57
          1800.99910	         8.02474e+57
          1801.80540	         7.73210e+57
          1802.61170	         8.70050e+57
          1803.41800	         8.75026e+57
          1804.22430	         6.90584e+57
          1805.03060	         6.31367e+57
          1805.83690	         6.94485e+57
          1806.64320	         8.11687e+57
          1807.44950	         8.34643e+57
          1808.25580	         7.86302e+57
          1809.06210	         8.58367e+57
          1809.86840	         7.45620e+57
          1810.67470	         6.30131e+57
          1811.48100	         7.55474e+57
          1812.28730	         8.61938e+57
          1813.09360	         7.54085e+57
          1813.89990	         7.62237e+57
          1814.70620	         7.16815e+57
          1815.51250	         8.02699e+57
          1816.31880	         8.05333e+57
          1817.12510	         6.96900e+57
          1817.93140	         7.19583e+57
          1818.73770	         6.92188e+57
          1819.54400	         7.52039e+57
          1820.35030	         7.86504e+57
          1821.15660	         6.94293e+57
          1821.96290	         6.89536e+57
          1822.76920	         7.93905e+57
          1823.57550	         7.77385e+57
          1824.38180	         6.49520e+57
          1825.18810	         6.89149e+57
          1825.99440	         7.86887e+57
          1826.80070	         7.32995e+57
          1827.60700	         6.98627e+57
          1828.41330	         6.31494e+57
          1829.21960	         6.72109e+57
          1830.02590	         7.75629e+57
          1830.83220	         7.10618e+57
          1831.63850	         6.65664e+57
          1832.44480	         7.93085e+57
          1833.25110	         8.00465e+57
          1834.05740	         8.40119e+57
          1834.86370	         7.17114e+57
          1835.67000	         6.19893e+57
          1836.47630	         8.06710e+57
          1837.28260	         9.40211e+57
          1838.08890	         8.60049e+57
          1838.89520	         8.63637e+57
          1839.70150	         7.50244e+57
          1840.50780	         6.60903e+57
          1841.31410	         6.87932e+57
          1842.12040	         6.69591e+57
          1842.92670	         6.33138e+57
          1843.73300	         6.42209e+57
          1844.53930	         6.77233e+57
          1845.34560	         6.76561e+57
          1846.15190	         7.17737e+57
          1846.95820	         7.73915e+57
          1847.76450	         7.35738e+57
          1848.57080	         6.40265e+57
          1849.37710	         6.07212e+57
          1850.18340	         7.62342e+57
          1850.98970	         8.13380e+57
          1851.79600	         7.71033e+57
          1852.60230	         6.58083e+57
          1853.40860	         7.04114e+57
          1854.21490	         7.03716e+57
          1855.02120	         6.94542e+57
          1855.82750	         5.37428e+57
          1856.63380	         5.84690e+57
          1857.44010	         7.30249e+57
          1858.24640	         7.61717e+57
          1859.05270	         7.58547e+57
          1859.85900	         5.29956e+57
          1860.66530	         5.33277e+57
          1861.47160	         5.87223e+57
          1862.27790	         7.24729e+57
          1863.08420	         7.63348e+57
          1863.89050	         7.95850e+57
          1864.69680	         7.40037e+57
          1865.50310	         6.25722e+57
          1866.30940	         5.73321e+57
          1867.11570	         5.56532e+57
          1867.92200	         6.78651e+57
          1868.72830	         7.30088e+57
          1869.53460	         6.81282e+57
          1870.34090	         8.31313e+57
          1871.14720	         8.41757e+57
          1871.95350	         7.10500e+57
          1872.75980	         6.15820e+57
          1873.56610	         5.85523e+57
          1874.37240	         5.74188e+57
          1875.17870	         6.49210e+57
          1875.98500	         7.20774e+57
          1876.79130	         7.44753e+57
          1877.59760	         7.58027e+57
          1878.40390	         6.99502e+57
          1879.21020	         6.80054e+57
          1880.01650	         7.30693e+57
          1880.82280	         8.10604e+57
          1881.62910	         8.36383e+57
          1882.43540	         9.25778e+57
          1883.24170	         7.85555e+57
          1884.04800	         7.02295e+57
          1884.85430	         8.47116e+57
          1885.66060	         8.60900e+57
          1886.46690	         8.45483e+57
          1887.27320	         6.66452e+57
          1888.07950	         5.68168e+57
          1888.88580	         6.66354e+57
          1889.69210	         8.32317e+57
          1890.49840	         8.70749e+57
          1891.30470	         7.91488e+57
          1892.11100	         8.99830e+57
          1892.91730	         9.46414e+57
          1893.72360	         8.21433e+57
          1894.52990	         7.85766e+57
          1895.33620	         8.83591e+57
          1896.14250	         7.67895e+57
          1896.94880	         6.39425e+57
          1897.75510	         5.20657e+57
          1898.56140	         5.64559e+57
          1899.36770	         7.72869e+57
          1900.17400	         5.95194e+57
          1900.98030	         5.74487e+57
          1901.78660	         7.18574e+57
          1902.59290	         7.00633e+57
          1903.39920	         8.07905e+57
          1904.20550	         8.36910e+57
          1905.01180	         9.06123e+57
          1905.81810	         9.65280e+57
          1906.62440	         1.12676e+58
          1907.43070	         1.42020e+58
          1908.23700	         1.51527e+58
          1909.04330	         1.27927e+58
          1909.84960	         1.10837e+58
          1910.65590	         1.01797e+58
          1911.46220	         9.08337e+57
          1912.26850	         7.12972e+57
          1913.07480	         5.40236e+57
          1913.88110	         5.04234e+57
          1914.68740	         4.97787e+57
          1915.49370	         6.42490e+57
          1916.30000	         6.91561e+57
          1917.10630	         6.95214e+57
          1917.91260	         6.44089e+57
          1918.71890	         6.77214e+57
          1919.52520	         6.24945e+57
          1920.33150	         6.03884e+57
          1921.13780	         7.00179e+57
          1921.94410	         8.25681e+57
          1922.75040	         8.10387e+57
          1923.55670	         7.72844e+57
          1924.36300	         6.66106e+57
          1925.16930	         5.95090e+57
          1925.97560	         5.11296e+57
          1926.78190	         4.48994e+57
          1927.58820	         6.37248e+57
          1928.39450	         6.15186e+57
          1929.20080	         5.13736e+57
          1930.00710	         7.13713e+57
          1930.81340	         8.82550e+57
          1931.61970	         7.74014e+57
          1932.42600	         7.92305e+57
          1933.23230	         8.90741e+57
          1934.03860	         7.15686e+57
          1934.84490	         5.50594e+57
          1935.65120	         7.46738e+57
          1936.45750	         8.82174e+57
          1937.26380	         7.89147e+57
          1938.07010	         7.38713e+57
          1938.87640	         6.98242e+57
          1939.68270	         7.49223e+57
          1940.48900	         7.87087e+57
          1941.29530	         8.17094e+57
          1942.10160	         7.87449e+57
          1942.90790	         7.28687e+57
          1943.71420	         6.85379e+57
          1944.52050	         6.20539e+57
          1945.32680	         6.05962e+57
          1946.13310	         7.44380e+57
          1946.93940	         7.74148e+57
          1947.74570	         6.90259e+57
          1948.55200	         6.68080e+57
          1949.35830	         6.72862e+57
          1950.16460	         6.38867e+57
          1950.97090	         6.54753e+57
          1951.77720	         6.84036e+57
          1952.58350	         7.75382e+57
          1953.38980	         7.36305e+57
          1954.19610	         5.59255e+57
          1955.00240	         5.20659e+57
          1955.80870	         5.10938e+57
          1956.61500	         5.54049e+57
          1957.42130	         6.10616e+57
          1958.22760	         6.28225e+57
          1959.03390	         6.23915e+57
          1959.84020	         6.76626e+57
          1960.64650	         6.86706e+57
          1961.45280	         6.66839e+57
          1962.25910	         6.86758e+57
          1963.06540	         7.30923e+57
          1963.87170	         6.37020e+57
          1964.67800	         7.36268e+57
          1965.48430	         5.39898e+57
          1966.29060	         5.13759e+57
          1967.09690	         6.41000e+57
          1967.90320	         7.11248e+57
          1968.70950	         6.39828e+57
          1969.51580	         5.68276e+57
          1970.32210	         6.82615e+57
          1971.12840	         7.89073e+57
          1971.93470	         4.93418e+57
          1972.74100	         4.51587e+57
          1973.54730	         6.17367e+57
          1974.35360	         7.01924e+57
          1975.15990	         7.71943e+57
          1975.96620	         7.18433e+57
          1976.77250	         8.11300e+57
          1977.57880	         8.26504e+57
          1978.38510	         6.81614e+57
          1979.19140	         6.52059e+57
          1979.99770	         7.16234e+57
          1980.80400	         7.76268e+57
          1981.61030	         5.89846e+57
          1982.41660	         6.25367e+57
          1983.22290	         6.09581e+57
          1984.02920	         5.55075e+57
          1984.83550	         5.50677e+57
          1985.64180	         6.41172e+57
          1986.44810	         7.10295e+57
          1987.25440	         6.20242e+57
          1988.06070	         5.96346e+57
          1988.86700	         6.68147e+57
          1989.67330	         7.49238e+57
          1990.47960	         5.94735e+57
          1991.28590	         6.72241e+57
          1992.09220	         6.14932e+57
          1992.89850	         5.47483e+57
          1993.70480	         5.18011e+57
          1994.51110	         4.32550e+57
          1995.31740	         3.77606e+57
          1996.12370	         5.09363e+57
          1996.93000	         5.49580e+57
          1997.73630	         7.26843e+57
          1998.54260	         8.10530e+57
          1999.34890	         7.54398e+57
          2000.15520	         6.17324e+57
          2000.96150	         6.29487e+57
          2001.76780	         5.54782e+57
          2002.57410	         5.09375e+57
          2003.38040	         5.05688e+57
          2004.18670	         5.72663e+57
          2004.99300	         6.46710e+57
          2005.79930	         8.37772e+57
          2006.60560	         6.92173e+57
          2007.41190	         5.44245e+57
          2008.21820	         7.20340e+57
          2009.02450	         6.90508e+57
          2009.83080	         6.31612e+57
          2010.63710	         5.49858e+57
          2011.44340	         5.84215e+57
          2012.24970	         7.32247e+57
          2013.05600	         6.61171e+57
          2013.86230	         6.52464e+57
          2014.66860	         5.72778e+57
          2015.47490	         5.81801e+57
          2016.28120	         6.87889e+57
          2017.08750	         6.36611e+57
          2017.89380	         6.92026e+57
          2018.70010	         6.65335e+57
          2019.50640	         6.74668e+57
          2020.31270	         6.52928e+57
          2021.11900	         7.06036e+57
          2021.92530	         6.71275e+57
          2022.73160	         7.70493e+57
          2023.53790	         6.11019e+57
          2024.34420	         5.74096e+57
          2025.15050	         6.01168e+57
          2025.95680	         5.86201e+57
          2026.76310	         5.81274e+57
          2027.56940	         6.63311e+57
          2028.37570	         6.08152e+57
          2029.18200	         5.30520e+57
          2029.98830	         5.76534e+57
          2030.79460	         7.02143e+57
          2031.60090	         6.14653e+57
          2032.40720	         5.47144e+57
          2033.21350	         6.00131e+57
          2034.01980	         6.23270e+57
          2034.82610	         4.94984e+57
          2035.63240	         5.64543e+57
          2036.43870	         5.91505e+57
          2037.24500	         6.05972e+57
          2038.05130	         6.44548e+57
          2038.85760	         6.41115e+57
          2039.66390	         7.23428e+57
          2040.47020	         6.17526e+57
          2041.27650	         7.13937e+57
          2042.08280	         6.38696e+57
          2042.88910	         5.95409e+57
          2043.69540	         6.88260e+57
          2044.50170	         7.42781e+57
          2045.30800	         6.58110e+57
          2046.11430	         4.07204e+57
          2046.92060	         4.46028e+57
          2047.72690	         5.06830e+57
          2048.53320	         4.31816e+57
          2049.33950	         4.39591e+57
          2050.14580	         6.43674e+57
          2050.95210	         7.17152e+57
          2051.75840	         6.60454e+57
          2052.56470	         4.08928e+57
          2053.37100	         2.50683e+57
          2054.17730	         4.08087e+57
          2054.98360	         4.95282e+57
          2055.78990	         3.87580e+57
          2056.59620	         3.50417e+57
          2057.40250	         5.24390e+57
          2058.20880	         6.05143e+57
          2059.01510	         5.77719e+57
          2059.82140	         7.05181e+57
          2060.62770	         9.45364e+57
          2061.43400	         1.65195e+58
          2062.24030	         1.30449e+58
          2063.04660	         4.82894e+57
          2063.85290	         1.95505e+57
          2064.65920	        -3.35853e+57
          2065.46550	        -1.04354e+58
          2066.27180	        -8.48682e+57
          2067.07810	         4.16855e+57
          2067.88440	         5.07406e+57
          2068.69070	         6.76639e+57
          2069.49700	         5.69733e+57
          2070.30330	         6.12707e+57
          2071.10960	         5.33593e+57
          2071.91590	         5.94527e+57
          2072.72220	         4.20703e+57
          2073.52850	         3.86082e+57
          2074.33480	         3.94019e+57
          2075.14110	         4.93571e+57
          2075.94740	         4.51553e+57
          2076.75370	         4.56750e+57
          2077.56000	         4.64076e+57
          2078.36630	         4.68974e+57
          2079.17260	         3.61293e+57
          2079.97890	         4.66374e+57
          2080.78520	         4.60954e+57
          2081.59150	         3.80277e+57
          2082.39780	         4.66520e+57
          2083.20410	         2.84142e+57
          2084.01040	         2.35152e+57
          2084.81670	         2.95969e+57
          2085.62300	         3.08191e+57
          2086.42930	         3.49758e+57
          2087.23560	         3.61531e+57
          2088.04190	         3.48388e+57
          2088.84820	         3.53363e+57
          2089.65450	         3.06214e+57
          2090.46080	         2.57450e+57
          2091.26710	         2.48802e+57
          2092.07340	         3.35065e+57
          2092.87970	         4.98029e+57
          2093.68600	         6.93879e+56
          2094.49230	         2.76931e+57
          2095.29860	         3.25357e+57
          2096.10490	         2.15559e+57
          2096.91120	         8.77441e+55
          2097.71750	         4.05632e+57
          2098.52380	        -1.00222e+56
          2099.33010	         6.62669e+56
          2100.13640	         1.92710e+57
          2100.94270	         2.08289e+57
          2101.74900	         1.07172e+57
          2102.55530	         1.36362e+57
          2103.36160	         1.49158e+57
          2104.16790	         3.39356e+57
          2104.97420	         3.15103e+57
          2105.78050	         1.25427e+57
          2106.58680	         1.40374e+57
          2107.39310	        -1.30026e+57
          2108.19940	        -6.04712e+56
          2109.00570	        -2.90975e+56
          2109.81200	        -1.65941e+57
          2110.61830	         2.14725e+57
          2111.42460	         1.68298e+57
          2112.23090	         5.52356e+56
          2113.03720	         3.00518e+56
          2113.84350	        -6.80047e+56
          2114.64980	         3.95793e+57
          2115.45610	         7.26865e+56
          2116.26240	        -7.15464e+57
          2117.06870	        -2.56468e+57
          2117.87500	         1.61839e+57
          2118.68130	         3.44917e+57
          2119.48760	         3.03825e+57
          2120.29390	         1.71611e+57
          2121.10020	        -5.26038e+57
          2121.90650	        -8.66710e+57
          2122.71280	         1.49065e+56
          2123.51910	         1.83449e+56
          2124.32540	        -3.56856e+57
          2125.13170	        -6.09170e+57
          2125.93800	        -9.64805e+57
          2126.74430	        -1.00780e+58
          2127.55060	        -7.82271e+57
          2128.35690	        -5.24684e+57
          2129.16320	        -6.74202e+57
          2129.96950	        -3.03184e+57
          2130.77580	         7.25156e+56
          2131.58210	        -1.62156e+57
          2132.38840	        -2.80347e+56
          2133.19470	        -1.96496e+57
          2134.00100	         4.73755e+57
          2134.80730	        -2.74924e+57
          2135.61360	         2.32618e+56
          2136.41990	         2.68445e+57
          2137.22620	         4.84140e+57
          2138.03250	        -6.22860e+56
          2138.83880	        -7.56246e+57
          2139.64510	        -3.67687e+57
          2140.45140	         3.87656e+56
          2141.25770	        -1.24140e+58
          2142.06400	        -7.64809e+57
          2142.87030	         9.12925e+56
          2143.67660	        -1.23141e+57
          2144.48290	         3.23487e+57
          2145.28920	         1.03266e+58
          2146.09550	        -6.29250e+57
          2146.90180	        -5.77860e+57
          2147.70810	        -3.87510e+57
          2148.51440	        -3.47611e+57
          2149.32070	        -9.81609e+57
          2150.12700	        -1.17860e+58
          2150.93330	        -7.59763e+57
          2151.73960	        -4.29475e+55
          2152.54590	         5.83696e+56
          2153.35220	        -1.50855e+56
          2154.15850	        -2.22094e+57
          2154.96480	        -1.10360e+58
          2155.77110	        -2.87794e+57
          2156.57740	        -3.21699e+57
          2157.38370	        -7.11505e+57
          2158.19000	        -7.18022e+57
          2158.99630	        -7.13510e+56
          2159.80260	        -1.06290e+58
          2160.60890	        -1.38564e+58
          2161.41520	         3.57282e+57
          2162.22150	        -1.82757e+57
          2163.02780	        -2.72689e+57
          2163.83410	        -8.77443e+57
          2164.64040	        -2.49272e+57
          2165.44670	        -5.74457e+57
          2166.25300	        -1.70727e+58
          2167.05930	        -5.66993e+56
          2167.86560	        -4.18650e+57
          2168.67190	        -6.58230e+57
          2169.47820	        -1.14713e+58
          2170.28450	        -1.48955e+58
          2171.09080	        -5.82368e+57
          2171.89710	         2.82087e+57
          2172.70340	         5.10652e+57
          2173.50970	        -6.33524e+57
          2174.31600	        -7.09711e+57
          2175.12230	         8.37424e+56
          2175.92860	        -5.48920e+57
          2176.73490	        -3.63874e+57
          2177.54120	        -8.51250e+57
          2178.34750	        -4.63307e+57
          2179.15380	                 nan
          2179.96010	                 nan
          2180.76640	                 nan
          2181.57270	                 nan
          2182.37900	                 nan
          2183.18530	                 nan
          2183.99160	                 nan
          2184.79790	                 nan
          2185.60420	                 nan
          2186.41050	                 nan
          2187.21680	                 nan
          2188.02310	                 nan
          2188.82940	                 nan
          2189.63570	                 nan
          2190.44200	                 nan
          2191.24830	                 nan
          2192.05460	                 nan
          2192.86090	                 nan
          2193.66720	                 nan
          2194.47350	                 nan
          2195.27980	                 nan
          2196.08610	                 nan
          2196.89240	                 nan
          2197.69870	                 nan
          2198.50500	                 nan
          2199.31130	                 nan
          2200.11760	                 nan
          2200.92390	                 nan
          2201.73020	                 nan
          2202.53650	                 nan
          2203.34280	                 nan
          2204.14910	                 nan
          2204.95540	                 nan
          2205.76170	                 nan
          2206.56800	                 nan
          2207.37430	                 nan
          2208.18060	                 nan
          2208.98690	                 nan
          2209.79320	                 nan
          2210.59950	                 nan
          2211.40580	                 nan
          2212.21210	                 nan
          2213.01840	                 nan
          2213.82470	                 nan
          2214.63100	                 nan
          2215.43730	         0.00000e+00
