#sample_193_stacked_spectrum_rest_UV-bands_median_H-alpha_noDC.txt
#median Lum: 1.70846e+42
#Rest-frame wavelength (A) | Luminosity (erg/s/A)
#
          1110.00000	         0.00000e+00
          1110.80630	         4.16207e+59
          1111.61260	         1.15749e+59
          1112.41890	         2.79581e+59
          1113.22520	         8.67513e+58
          1114.03150	        -3.29156e+59
          1114.83780	         6.58826e+58
          1115.64410	         7.09720e+58
          1116.45040	        -8.29281e+56
          1117.25670	         5.72893e+58
          1118.06300	         7.50339e+58
          1118.86930	        -3.59976e+58
          1119.67560	         1.36606e+59
          1120.48190	         5.63148e+58
          1121.28820	        -1.73194e+59
          1122.09450	         4.29842e+58
          1122.90080	         1.03842e+58
          1123.70710	         6.51393e+58
          1124.51340	         3.62646e+58
          1125.31970	        -3.59274e+58
          1126.12600	         4.78400e+57
          1126.93230	        -6.17983e+58
          1127.73860	        -6.58293e+58
          1128.54490	        -4.19414e+58
          1129.35120	        -9.71485e+57
          1130.15750	        -3.23857e+58
          1130.96380	         1.04246e+58
          1131.77010	         4.44434e+58
          1132.57640	         3.07400e+58
          1133.38270	         2.95180e+58
          1134.18900	         1.35732e+58
          1134.99530	         6.69649e+57
          1135.80160	         8.84964e+57
          1136.60790	         2.60680e+58
          1137.41420	         7.83010e+57
          1138.22050	         9.84753e+57
          1139.02680	         2.91503e+58
          1139.83310	         2.17055e+58
          1140.63940	         1.93417e+58
          1141.44570	        -1.06227e+58
          1142.25200	        -6.93914e+57
          1143.05830	         1.16421e+58
          1143.86460	         1.13688e+58
          1144.67090	         2.80976e+58
          1145.47720	         1.34580e+58
          1146.28350	         1.50558e+58
          1147.08980	         1.73170e+58
          1147.89610	         8.14739e+57
          1148.70240	         1.57171e+58
          1149.50870	         1.79747e+58
          1150.31500	         1.46780e+58
          1151.12130	         1.51476e+58
          1151.92760	         7.79170e+57
          1152.73390	         1.31558e+58
          1153.54020	         3.86768e+57
          1154.34650	         2.27826e+58
          1155.15280	         2.30120e+58
          1155.95910	         1.10334e+58
          1156.76540	         2.96301e+57
          1157.57170	         6.39071e+56
          1158.37800	        -4.63461e+57
          1159.18430	         2.52061e+57
          1159.99060	         5.71860e+57
          1160.79690	         5.87748e+57
          1161.60320	         1.13438e+58
          1162.40950	         1.65153e+58
          1163.21580	         1.85069e+58
          1164.02210	         1.63329e+58
          1164.82840	         1.36884e+58
          1165.63470	         2.41619e+58
          1166.44100	         2.55916e+58
          1167.24730	         1.11220e+58
          1168.05360	         6.93458e+57
          1168.85990	         1.07134e+58
          1169.66620	         1.75667e+58
          1170.47250	         1.61876e+58
          1171.27880	         1.61685e+58
          1172.08510	         1.92968e+58
          1172.89140	         1.18349e+58
          1173.69770	         5.31018e+56
          1174.50400	         1.94798e+57
          1175.31030	         1.26765e+58
          1176.11660	         1.74819e+58
          1176.92290	         1.50213e+58
          1177.72920	         1.05168e+58
          1178.53550	         7.62642e+57
          1179.34180	         4.66506e+57
          1180.14810	         3.59655e+57
          1180.95440	         9.69256e+57
          1181.76070	         2.72098e+57
          1182.56700	         9.21363e+56
          1183.37330	         7.90405e+57
          1184.17960	         1.34490e+58
          1184.98590	         1.17008e+58
          1185.79220	         6.69458e+57
          1186.59850	         1.10221e+58
          1187.40480	         1.54120e+58
          1188.21110	         2.63805e+58
          1189.01740	         1.42505e+58
          1189.82370	         5.53571e+57
          1190.63000	         5.67196e+57
          1191.43630	         1.26544e+58
          1192.24260	         1.31054e+58
          1193.04890	         9.45549e+57
          1193.85520	         1.45582e+58
          1194.66150	         7.94322e+57
          1195.46780	         9.67985e+57
          1196.27410	         9.77016e+57
          1197.08040	         7.14832e+57
          1197.88670	         1.05648e+58
          1198.69300	         1.41801e+58
          1199.49930	         1.48545e+58
          1200.30560	         1.36340e+58
          1201.11190	         1.43083e+58
          1201.91820	         8.87495e+57
          1202.72450	         6.88846e+57
          1203.53080	         1.45041e+58
          1204.33710	         7.24916e+57
          1205.14340	         8.53722e+57
          1205.94970	         7.24520e+57
          1206.75600	         7.12723e+57
          1207.56230	         4.47131e+57
          1208.36860	         4.78385e+57
          1209.17490	         6.74498e+57
          1209.98120	         7.05235e+57
          1210.78750	         9.93450e+57
          1211.59380	         1.28483e+58
          1212.40010	         1.92240e+58
          1213.20640	         1.94441e+58
          1214.01270	         2.00930e+58
          1214.81900	         2.63632e+58
          1215.62530	         4.51432e+58
          1216.43160	         8.99907e+58
          1217.23790	         1.50832e+59
          1218.04420	         1.16403e+59
          1218.85050	         8.98948e+58
          1219.65680	         6.08237e+58
          1220.46310	         3.27100e+58
          1221.26940	         2.64248e+58
          1222.07570	         1.74501e+58
          1222.88200	         9.74878e+57
          1223.68830	         9.84039e+57
          1224.49460	         8.41170e+57
          1225.30090	         7.49106e+57
          1226.10720	         9.04296e+57
          1226.91350	         8.53871e+57
          1227.71980	         9.00090e+57
          1228.52610	         8.38028e+57
          1229.33240	         6.69211e+57
          1230.13870	         8.44212e+57
          1230.94500	         9.39880e+57
          1231.75130	         2.96653e+57
          1232.55760	         6.97281e+57
          1233.36390	         8.50676e+57
          1234.17020	         8.74228e+57
          1234.97650	         8.99721e+57
          1235.78280	         9.24894e+57
          1236.58910	         7.51196e+57
          1237.39540	         7.07776e+57
          1238.20170	         8.42906e+57
          1239.00800	         1.21995e+58
          1239.81430	         1.36634e+58
          1240.62060	         1.01752e+58
          1241.42690	         9.69427e+57
          1242.23320	         1.26215e+58
          1243.03950	         9.89882e+57
          1243.84580	         9.21503e+57
          1244.65210	         1.03072e+58
          1245.45840	         7.83048e+57
          1246.26470	         8.68593e+57
          1247.07100	         7.87765e+57
          1247.87730	         5.83958e+57
          1248.68360	         4.69591e+57
          1249.48990	         5.88633e+57
          1250.29620	         1.05443e+58
          1251.10250	         1.11287e+58
          1251.90880	         7.26508e+57
          1252.71510	         6.41938e+57
          1253.52140	         5.99010e+57
          1254.32770	         8.34965e+57
          1255.13400	         1.20946e+58
          1255.94030	         1.25985e+58
          1256.74660	         9.21316e+57
          1257.55290	         1.01369e+58
          1258.35920	         7.46224e+57
          1259.16550	         5.32776e+57
          1259.97180	         4.56935e+57
          1260.77810	         6.84572e+57
          1261.58440	         1.01120e+58
          1262.39070	         6.29898e+57
          1263.19700	         7.59794e+57
          1264.00330	         9.85299e+57
          1264.80960	         9.38122e+57
          1265.61590	         1.08290e+58
          1266.42220	         1.22207e+58
          1267.22850	         1.23776e+58
          1268.03480	         1.30255e+58
          1268.84110	         1.35556e+58
          1269.64740	         1.28709e+58
          1270.45370	         1.34766e+58
          1271.26000	         1.28728e+58
          1272.06630	         1.28375e+58
          1272.87260	         1.22187e+58
          1273.67890	         1.13422e+58
          1274.48520	         1.42591e+58
          1275.29150	         1.57479e+58
          1276.09780	         1.35401e+58
          1276.90410	         1.50984e+58
          1277.71040	         1.38489e+58
          1278.51670	         1.18626e+58
          1279.32300	         1.50788e+58
          1280.12930	         1.39644e+58
          1280.93560	         1.02734e+58
          1281.74190	         1.10226e+58
          1282.54820	         1.32635e+58
          1283.35450	         1.31160e+58
          1284.16080	         1.08638e+58
          1284.96710	         1.08110e+58
          1285.77340	         1.11490e+58
          1286.57970	         1.14502e+58
          1287.38600	         1.38317e+58
          1288.19230	         1.70932e+58
          1288.99860	         1.26584e+58
          1289.80490	         9.32215e+57
          1290.61120	         1.29679e+58
          1291.41750	         1.56609e+58
          1292.22380	         1.32119e+58
          1293.03010	         1.13192e+58
          1293.83640	         1.17561e+58
          1294.64270	         1.05929e+58
          1295.44900	         7.07073e+57
          1296.25530	         5.78299e+57
          1297.06160	         8.95609e+57
          1297.86790	         1.04301e+58
          1298.67420	         8.97094e+57
          1299.48050	         1.08217e+58
          1300.28680	         1.19801e+58
          1301.09310	         8.81124e+57
          1301.89940	         5.94878e+57
          1302.70570	         7.26738e+57
          1303.51200	         7.21320e+57
          1304.31830	         1.06581e+58
          1305.12460	         1.13207e+58
          1305.93090	         1.22988e+58
          1306.73720	         1.27197e+58
          1307.54350	         1.26642e+58
          1308.34980	         1.30533e+58
          1309.15610	         1.70322e+58
          1309.96240	         1.76376e+58
          1310.76870	         1.30389e+58
          1311.57500	         1.10910e+58
          1312.38130	         1.11927e+58
          1313.18760	         1.29980e+58
          1313.99390	         1.46771e+58
          1314.80020	         1.48659e+58
          1315.60650	         1.44460e+58
          1316.41280	         1.27965e+58
          1317.21910	         1.06333e+58
          1318.02540	         1.26172e+58
          1318.83170	         1.23126e+58
          1319.63800	         1.04706e+58
          1320.44430	         1.10438e+58
          1321.25060	         1.25973e+58
          1322.05690	         1.20641e+58
          1322.86320	         1.37633e+58
          1323.66950	         1.26219e+58
          1324.47580	         9.32609e+57
          1325.28210	         1.00304e+58
          1326.08840	         1.03728e+58
          1326.89470	         1.21646e+58
          1327.70100	         1.05799e+58
          1328.50730	         9.13920e+57
          1329.31360	         9.61611e+57
          1330.11990	         1.03319e+58
          1330.92620	         9.68173e+57
          1331.73250	         1.02061e+58
          1332.53880	         1.07722e+58
          1333.34510	         1.00158e+58
          1334.15140	         8.03976e+57
          1334.95770	         8.60129e+57
          1335.76400	         1.08696e+58
          1336.57030	         1.10903e+58
          1337.37660	         1.08782e+58
          1338.18290	         1.13068e+58
          1338.98920	         1.23350e+58
          1339.79550	         1.11379e+58
          1340.60180	         1.17499e+58
          1341.40810	         1.34778e+58
          1342.21440	         1.21180e+58
          1343.02070	         1.34744e+58
          1343.82700	         1.28340e+58
          1344.63330	         9.48995e+57
          1345.43960	         1.08706e+58
          1346.24590	         1.08731e+58
          1347.05220	         1.11887e+58
          1347.85850	         1.15624e+58
          1348.66480	         1.31145e+58
          1349.47110	         1.32754e+58
          1350.27740	         1.26569e+58
          1351.08370	         1.30123e+58
          1351.89000	         1.16668e+58
          1352.69630	         1.18954e+58
          1353.50260	         1.22380e+58
          1354.30890	         1.12695e+58
          1355.11520	         1.23459e+58
          1355.92150	         1.30934e+58
          1356.72780	         1.13664e+58
          1357.53410	         8.95717e+57
          1358.34040	         9.79186e+57
          1359.14670	         9.53220e+57
          1359.95300	         1.04956e+58
          1360.75930	         1.31083e+58
          1361.56560	         1.18879e+58
          1362.37190	         1.07692e+58
          1363.17820	         1.10725e+58
          1363.98450	         1.22326e+58
          1364.79080	         1.20997e+58
          1365.59710	         1.19851e+58
          1366.40340	         1.21095e+58
          1367.20970	         1.20030e+58
          1368.01600	         1.04543e+58
          1368.82230	         1.06240e+58
          1369.62860	         1.22057e+58
          1370.43490	         9.95737e+57
          1371.24120	         9.28732e+57
          1372.04750	         8.53961e+57
          1372.85380	         1.04777e+58
          1373.66010	         1.03521e+58
          1374.46640	         9.61368e+57
          1375.27270	         1.17256e+58
          1376.07900	         1.01229e+58
          1376.88530	         9.18549e+57
          1377.69160	         8.56677e+57
          1378.49790	         6.79000e+57
          1379.30420	         7.32784e+57
          1380.11050	         9.40923e+57
          1380.91680	         9.37244e+57
          1381.72310	         8.77649e+57
          1382.52940	         8.91294e+57
          1383.33570	         8.87681e+57
          1384.14200	         1.01955e+58
          1384.94830	         9.59072e+57
          1385.75460	         8.10645e+57
          1386.56090	         1.05730e+58
          1387.36720	         1.14378e+58
          1388.17350	         1.19209e+58
          1388.97980	         1.19216e+58
          1389.78610	         9.07378e+57
          1390.59240	         7.22745e+57
          1391.39870	         6.61364e+57
          1392.20500	         7.46722e+57
          1393.01130	         6.34191e+57
          1393.81760	         7.08160e+57
          1394.62390	         7.55202e+57
          1395.43020	         6.02022e+57
          1396.23650	         5.63453e+57
          1397.04280	         6.38001e+57
          1397.84910	         9.00082e+57
          1398.65540	         9.07035e+57
          1399.46170	         9.46928e+57
          1400.26800	         9.02039e+57
          1401.07430	         8.58362e+57
          1401.88060	         8.50180e+57
          1402.68690	         9.29387e+57
          1403.49320	         1.01459e+58
          1404.29950	         9.72069e+57
          1405.10580	         1.03750e+58
          1405.91210	         1.04615e+58
          1406.71840	         1.07700e+58
          1407.52470	         1.06927e+58
          1408.33100	         1.03006e+58
          1409.13730	         1.10307e+58
          1409.94360	         1.24110e+58
          1410.74990	         1.18895e+58
          1411.55620	         9.50783e+57
          1412.36250	         9.03287e+57
          1413.16880	         9.73761e+57
          1413.97510	         8.30189e+57
          1414.78140	         7.17425e+57
          1415.58770	         8.22550e+57
          1416.39400	         1.09981e+58
          1417.20030	         1.16523e+58
          1418.00660	         1.00719e+58
          1418.81290	         9.49976e+57
          1419.61920	         1.10782e+58
          1420.42550	         1.18792e+58
          1421.23180	         1.30722e+58
          1422.03810	         1.32149e+58
          1422.84440	         1.16605e+58
          1423.65070	         1.21582e+58
          1424.45700	         1.17587e+58
          1425.26330	         9.39956e+57
          1426.06960	         9.31372e+57
          1426.87590	         1.07516e+58
          1427.68220	         1.05736e+58
          1428.48850	         1.07214e+58
          1429.29480	         1.14646e+58
          1430.10110	         1.05055e+58
          1430.90740	         9.32799e+57
          1431.71370	         9.00454e+57
          1432.52000	         8.47506e+57
          1433.32630	         7.92256e+57
          1434.13260	         7.31594e+57
          1434.93890	         8.16787e+57
          1435.74520	         9.60642e+57
          1436.55150	         1.01404e+58
          1437.35780	         9.16740e+57
          1438.16410	         8.86846e+57
          1438.97040	         8.64480e+57
          1439.77670	         8.67234e+57
          1440.58300	         8.45917e+57
          1441.38930	         9.09928e+57
          1442.19560	         9.31549e+57
          1443.00190	         9.56824e+57
          1443.80820	         1.16227e+58
          1444.61450	         1.02693e+58
          1445.42080	         8.24695e+57
          1446.22710	         9.42603e+57
          1447.03340	         1.04562e+58
          1447.83970	         1.12247e+58
          1448.64600	         1.10457e+58
          1449.45230	         1.08833e+58
          1450.25860	         1.05908e+58
          1451.06490	         8.67070e+57
          1451.87120	         6.91709e+57
          1452.67750	         7.48832e+57
          1453.48380	         8.91399e+57
          1454.29010	         8.30020e+57
          1455.09640	         8.68956e+57
          1455.90270	         1.02876e+58
          1456.70900	         9.60359e+57
          1457.51530	         9.29885e+57
          1458.32160	         1.16509e+58
          1459.12790	         1.13227e+58
          1459.93420	         9.10825e+57
          1460.74050	         7.68619e+57
          1461.54680	         8.20363e+57
          1462.35310	         6.97115e+57
          1463.15940	         7.45270e+57
          1463.96570	         1.03403e+58
          1464.77200	         1.16401e+58
          1465.57830	         1.09881e+58
          1466.38460	         9.33470e+57
          1467.19090	         8.02727e+57
          1467.99720	         8.24683e+57
          1468.80350	         8.48418e+57
          1469.60980	         9.27904e+57
          1470.41610	         1.10028e+58
          1471.22240	         9.70831e+57
          1472.02870	         9.78133e+57
          1472.83500	         9.61097e+57
          1473.64130	         9.18345e+57
          1474.44760	         8.80099e+57
          1475.25390	         8.60701e+57
          1476.06020	         8.78296e+57
          1476.86650	         7.86763e+57
          1477.67280	         7.37357e+57
          1478.47910	         6.38886e+57
          1479.28540	         6.86352e+57
          1480.09170	         8.69861e+57
          1480.89800	         8.76895e+57
          1481.70430	         8.81370e+57
          1482.51060	         8.86797e+57
          1483.31690	         7.81260e+57
          1484.12320	         7.78914e+57
          1484.92950	         8.59406e+57
          1485.73580	         9.37930e+57
          1486.54210	         9.19097e+57
          1487.34840	         8.65571e+57
          1488.15470	         8.50054e+57
          1488.96100	         8.88731e+57
          1489.76730	         9.38709e+57
          1490.57360	         7.70879e+57
          1491.37990	         6.45114e+57
          1492.18620	         7.35103e+57
          1492.99250	         8.79341e+57
          1493.79880	         8.61043e+57
          1494.60510	         8.31701e+57
          1495.41140	         6.94661e+57
          1496.21770	         8.29350e+57
          1497.02400	         1.05966e+58
          1497.83030	         8.47449e+57
          1498.63660	         6.75704e+57
          1499.44290	         7.06118e+57
          1500.24920	         7.20911e+57
          1501.05550	         8.20665e+57
          1501.86180	         9.36677e+57
          1502.66810	         9.94198e+57
          1503.47440	         9.15322e+57
          1504.28070	         9.11797e+57
          1505.08700	         9.30377e+57
          1505.89330	         9.05599e+57
          1506.69960	         8.17391e+57
          1507.50590	         7.46843e+57
          1508.31220	         7.86646e+57
          1509.11850	         8.87144e+57
          1509.92480	         8.79524e+57
          1510.73110	         8.17587e+57
          1511.53740	         7.11538e+57
          1512.34370	         6.00578e+57
          1513.15000	         8.29026e+57
          1513.95630	         1.01877e+58
          1514.76260	         8.94897e+57
          1515.56890	         8.66551e+57
          1516.37520	         9.20863e+57
          1517.18150	         8.28210e+57
          1517.98780	         6.22145e+57
          1518.79410	         6.39396e+57
          1519.60040	         7.62799e+57
          1520.40670	         8.56284e+57
          1521.21300	         7.98848e+57
          1522.01930	         8.05014e+57
          1522.82560	         8.69011e+57
          1523.63190	         9.61837e+57
          1524.43820	         8.32407e+57
          1525.24450	         6.68127e+57
          1526.05080	         6.28444e+57
          1526.85710	         6.43450e+57
          1527.66340	         7.83094e+57
          1528.46970	         8.48584e+57
          1529.27600	         7.99492e+57
          1530.08230	         7.58503e+57
          1530.88860	         8.34109e+57
          1531.69490	         9.56001e+57
          1532.50120	         1.03328e+58
          1533.30750	         1.03457e+58
          1534.11380	         9.48613e+57
          1534.92010	         9.89639e+57
          1535.72640	         9.89244e+57
          1536.53270	         8.86843e+57
          1537.33900	         7.81896e+57
          1538.14530	         8.51512e+57
          1538.95160	         9.00561e+57
          1539.75790	         8.82899e+57
          1540.56420	         9.29495e+57
          1541.37050	         8.46982e+57
          1542.17680	         7.47963e+57
          1542.98310	         7.49506e+57
          1543.78940	         7.02536e+57
          1544.59570	         7.23238e+57
          1545.40200	         8.06312e+57
          1546.20830	         8.68940e+57
          1547.01460	         1.05814e+58
          1547.82090	         1.15540e+58
          1548.62720	         1.26255e+58
          1549.43350	         1.17690e+58
          1550.23980	         1.09351e+58
          1551.04610	         1.25873e+58
          1551.85240	         1.21727e+58
          1552.65870	         1.19557e+58
          1553.46500	         1.00028e+58
          1554.27130	         9.62833e+57
          1555.07760	         1.01169e+58
          1555.88390	         9.52231e+57
          1556.69020	         8.85377e+57
          1557.49650	         7.97258e+57
          1558.30280	         7.26325e+57
          1559.10910	         8.90006e+57
          1559.91540	         8.90240e+57
          1560.72170	         8.35795e+57
          1561.52800	         9.10320e+57
          1562.33430	         8.77025e+57
          1563.14060	         7.53348e+57
          1563.94690	         7.43611e+57
          1564.75320	         7.67783e+57
          1565.55950	         6.67286e+57
          1566.36580	         6.91894e+57
          1567.17210	         8.87840e+57
          1567.97840	         9.91428e+57
          1568.78470	         9.18920e+57
          1569.59100	         9.27203e+57
          1570.39730	         7.83513e+57
          1571.20360	         7.51402e+57
          1572.00990	         8.57500e+57
          1572.81620	         8.70221e+57
          1573.62250	         9.88033e+57
          1574.42880	         9.47784e+57
          1575.23510	         8.55903e+57
          1576.04140	         9.04914e+57
          1576.84770	         8.93354e+57
          1577.65400	         8.74080e+57
          1578.46030	         9.45924e+57
          1579.26660	         1.04395e+58
          1580.07290	         9.40417e+57
          1580.87920	         8.02524e+57
          1581.68550	         7.33192e+57
          1582.49180	         7.54213e+57
          1583.29810	         7.84013e+57
          1584.10440	         8.07311e+57
          1584.91070	         8.58166e+57
          1585.71700	         9.16614e+57
          1586.52330	         9.20340e+57
          1587.32960	         9.43131e+57
          1588.13590	         9.21276e+57
          1588.94220	         8.55088e+57
          1589.74850	         9.29092e+57
          1590.55480	         8.59691e+57
          1591.36110	         7.94548e+57
          1592.16740	         8.58271e+57
          1592.97370	         8.52720e+57
          1593.78000	         8.66550e+57
          1594.58630	         8.56108e+57
          1595.39260	         8.11685e+57
          1596.19890	         8.68220e+57
          1597.00520	         9.11376e+57
          1597.81150	         8.84445e+57
          1598.61780	         7.84627e+57
          1599.42410	         7.41568e+57
          1600.23040	         6.25523e+57
          1601.03670	         7.25403e+57
          1601.84300	         7.49897e+57
          1602.64930	         8.91845e+57
          1603.45560	         9.73910e+57
          1604.26190	         8.58787e+57
          1605.06820	         7.32678e+57
          1605.87450	         7.26814e+57
          1606.68080	         6.48855e+57
          1607.48710	         5.57269e+57
          1608.29340	         5.50399e+57
          1609.09970	         6.59462e+57
          1609.90600	         7.46356e+57
          1610.71230	         7.37300e+57
          1611.51860	         7.36714e+57
          1612.32490	         6.89769e+57
          1613.13120	         7.90005e+57
          1613.93750	         8.27271e+57
          1614.74380	         8.40832e+57
          1615.55010	         7.85317e+57
          1616.35640	         8.26203e+57
          1617.16270	         9.85902e+57
          1617.96900	         9.76979e+57
          1618.77530	         8.16688e+57
          1619.58160	         7.96047e+57
          1620.38790	         8.40130e+57
          1621.19420	         8.84367e+57
          1622.00050	         8.20456e+57
          1622.80680	         8.47314e+57
          1623.61310	         9.12454e+57
          1624.41940	         9.01424e+57
          1625.22570	         8.96727e+57
          1626.03200	         8.19617e+57
          1626.83830	         7.83173e+57
          1627.64460	         7.81882e+57
          1628.45090	         6.54050e+57
          1629.25720	         9.15282e+57
          1630.06350	         1.04366e+58
          1630.86980	         7.13334e+57
          1631.67610	         7.41767e+57
          1632.48240	         8.26958e+57
          1633.28870	         8.33492e+57
          1634.09500	         9.67341e+57
          1634.90130	         1.14706e+58
          1635.70760	         9.99596e+57
          1636.51390	         8.43061e+57
          1637.32020	         8.55566e+57
          1638.12650	         1.11347e+58
          1638.93280	         1.03474e+58
          1639.73910	         8.71903e+57
          1640.54540	         9.31653e+57
          1641.35170	         8.42769e+57
          1642.15800	         9.12981e+57
          1642.96430	         9.34447e+57
          1643.77060	         7.41648e+57
          1644.57690	         7.10505e+57
          1645.38320	         8.34747e+57
          1646.18950	         7.31560e+57
          1646.99580	         9.32131e+57
          1647.80210	         8.28362e+57
          1648.60840	         7.48249e+57
          1649.41470	         8.76500e+57
          1650.22100	         8.48283e+57
          1651.02730	         8.27835e+57
          1651.83360	         7.76784e+57
          1652.63990	         9.03688e+57
          1653.44620	         9.30035e+57
          1654.25250	         8.50501e+57
          1655.05880	         8.35646e+57
          1655.86510	         7.09626e+57
          1656.67140	         7.79701e+57
          1657.47770	         8.44821e+57
          1658.28400	         7.99743e+57
          1659.09030	         9.00664e+57
          1659.89660	         8.70672e+57
          1660.70290	         9.97522e+57
          1661.50920	         1.03192e+58
          1662.31550	         8.16972e+57
          1663.12180	         7.95784e+57
          1663.92810	         9.81169e+57
          1664.73440	         1.04643e+58
          1665.54070	         1.14162e+58
          1666.34700	         1.17787e+58
          1667.15330	         1.11907e+58
          1667.95960	         8.62121e+57
          1668.76590	         7.25543e+57
          1669.57220	         7.19787e+57
          1670.37850	         7.62741e+57
          1671.18480	         8.42735e+57
          1671.99110	         8.50112e+57
          1672.79740	         7.94284e+57
          1673.60370	         7.47665e+57
          1674.41000	         7.81030e+57
          1675.21630	         8.22953e+57
          1676.02260	         7.37900e+57
          1676.82890	         6.13247e+57
          1677.63520	         6.08562e+57
          1678.44150	         6.94902e+57
          1679.24780	         8.48676e+57
          1680.05410	         7.45633e+57
          1680.86040	         5.92432e+57
          1681.66670	         6.57205e+57
          1682.47300	         7.39996e+57
          1683.27930	         8.16310e+57
          1684.08560	         8.96004e+57
          1684.89190	         8.10395e+57
          1685.69820	         5.34455e+57
          1686.50450	         5.02998e+57
          1687.31080	         6.68258e+57
          1688.11710	         7.84756e+57
          1688.92340	         7.02228e+57
          1689.72970	         6.18035e+57
          1690.53600	         7.18051e+57
          1691.34230	         7.21251e+57
          1692.14860	         7.96645e+57
          1692.95490	         8.21093e+57
          1693.76120	         8.36649e+57
          1694.56750	         7.75114e+57
          1695.37380	         8.16414e+57
          1696.18010	         8.80233e+57
          1696.98640	         8.63445e+57
          1697.79270	         7.86360e+57
          1698.59900	         7.97943e+57
          1699.40530	         8.04183e+57
          1700.21160	         7.87850e+57
          1701.01790	         7.78405e+57
          1701.82420	         6.87955e+57
          1702.63050	         6.67101e+57
          1703.43680	         8.23870e+57
          1704.24310	         8.08697e+57
          1705.04940	         7.88427e+57
          1705.85570	         8.39603e+57
          1706.66200	         8.02983e+57
          1707.46830	         8.82414e+57
          1708.27460	         7.40822e+57
          1709.08090	         6.66558e+57
          1709.88720	         5.70207e+57
          1710.69350	         5.57642e+57
          1711.49980	         6.75935e+57
          1712.30610	         7.73236e+57
          1713.11240	         8.21569e+57
          1713.91870	         6.91551e+57
          1714.72500	         8.28763e+57
          1715.53130	         9.13101e+57
          1716.33760	         6.50963e+57
          1717.14390	         6.38615e+57
          1717.95020	         8.34013e+57
          1718.75650	         9.44989e+57
          1719.56280	         9.29514e+57
          1720.36910	         7.79167e+57
          1721.17540	         7.03041e+57
          1721.98170	         6.55561e+57
          1722.78800	         7.08686e+57
          1723.59430	         7.20277e+57
          1724.40060	         8.47368e+57
          1725.20690	         9.07798e+57
          1726.01320	         8.60109e+57
          1726.81950	         7.71106e+57
          1727.62580	         6.80980e+57
          1728.43210	         6.50571e+57
          1729.23840	         7.33999e+57
          1730.04470	         8.36708e+57
          1730.85100	         9.04665e+57
          1731.65730	         8.75308e+57
          1732.46360	         8.22794e+57
          1733.26990	         7.54053e+57
          1734.07620	         6.64894e+57
          1734.88250	         7.70314e+57
          1735.68880	         8.00409e+57
          1736.49510	         8.22755e+57
          1737.30140	         7.38852e+57
          1738.10770	         6.66686e+57
          1738.91400	         7.26483e+57
          1739.72030	         7.33528e+57
          1740.52660	         6.56887e+57
          1741.33290	         6.38352e+57
          1742.13920	         6.00558e+57
          1742.94550	         6.87599e+57
          1743.75180	         7.78627e+57
          1744.55810	         8.02140e+57
          1745.36440	         7.64623e+57
          1746.17070	         5.81543e+57
          1746.97700	         5.12261e+57
          1747.78330	         7.19860e+57
          1748.58960	         7.66896e+57
          1749.39590	         7.28896e+57
          1750.20220	         7.08608e+57
          1751.00850	         7.14696e+57
          1751.81480	         6.46902e+57
          1752.62110	         6.26544e+57
          1753.42740	         7.76702e+57
          1754.23370	         7.02029e+57
          1755.04000	         6.44485e+57
          1755.84630	         7.25660e+57
          1756.65260	         8.67545e+57
          1757.45890	         9.17358e+57
          1758.26520	         7.01268e+57
          1759.07150	         7.82309e+57
          1759.87780	         7.95349e+57
          1760.68410	         7.78827e+57
          1761.49040	         8.04363e+57
          1762.29670	         6.28158e+57
          1763.10300	         7.04059e+57
          1763.90930	         7.60244e+57
          1764.71560	         7.56613e+57
          1765.52190	         7.82793e+57
          1766.32820	         8.51162e+57
          1767.13450	         8.61179e+57
          1767.94080	         7.23423e+57
          1768.74710	         7.55918e+57
          1769.55340	         7.54294e+57
          1770.35970	         6.80403e+57
          1771.16600	         6.97243e+57
          1771.97230	         7.65246e+57
          1772.77860	         8.29161e+57
          1773.58490	         8.06709e+57
          1774.39120	         6.98023e+57
          1775.19750	         6.09649e+57
          1776.00380	         6.58593e+57
          1776.81010	         6.47047e+57
          1777.61640	         6.82159e+57
          1778.42270	         7.27742e+57
          1779.22900	         6.78980e+57
          1780.03530	         6.32959e+57
          1780.84160	         6.99521e+57
          1781.64790	         8.17681e+57
          1782.45420	         7.74696e+57
          1783.26050	         6.99733e+57
          1784.06680	         6.83304e+57
          1784.87310	         8.05467e+57
          1785.67940	         8.52955e+57
          1786.48570	         7.02856e+57
          1787.29200	         6.84925e+57
          1788.09830	         6.19771e+57
          1788.90460	         5.93089e+57
          1789.71090	         5.50899e+57
          1790.51720	         5.74225e+57
          1791.32350	         7.15308e+57
          1792.12980	         8.10607e+57
          1792.93610	         7.45422e+57
          1793.74240	         6.91211e+57
          1794.54870	         7.92802e+57
          1795.35500	         8.57519e+57
          1796.16130	         7.36846e+57
          1796.96760	         6.35106e+57
          1797.77390	         6.94890e+57
          1798.58020	         8.10842e+57
          1799.38650	         6.51702e+57
          1800.19280	         6.29606e+57
          1800.99910	         6.97708e+57
          1801.80540	         7.64421e+57
          1802.61170	         7.87987e+57
          1803.41800	         8.46182e+57
          1804.22430	         7.76494e+57
          1805.03060	         6.96197e+57
          1805.83690	         6.69466e+57
          1806.64320	         7.31899e+57
          1807.44950	         7.80759e+57
          1808.25580	         8.48754e+57
          1809.06210	         8.67182e+57
          1809.86840	         6.81175e+57
          1810.67470	         6.37162e+57
          1811.48100	         8.31009e+57
          1812.28730	         8.22188e+57
          1813.09360	         7.07188e+57
          1813.89990	         6.88563e+57
          1814.70620	         6.83741e+57
          1815.51250	         8.05327e+57
          1816.31880	         8.05410e+57
          1817.12510	         7.45253e+57
          1817.93140	         6.68236e+57
          1818.73770	         6.56206e+57
          1819.54400	         9.02759e+57
          1820.35030	         9.06355e+57
          1821.15660	         6.82631e+57
          1821.96290	         6.07997e+57
          1822.76920	         6.62553e+57
          1823.57550	         6.40814e+57
          1824.38180	         6.64397e+57
          1825.18810	         8.32776e+57
          1825.99440	         8.39982e+57
          1826.80070	         8.23437e+57
          1827.60700	         6.73211e+57
          1828.41330	         6.61928e+57
          1829.21960	         6.42288e+57
          1830.02590	         7.03763e+57
          1830.83220	         7.90477e+57
          1831.63850	         7.56592e+57
          1832.44480	         6.71997e+57
          1833.25110	         8.21051e+57
          1834.05740	         8.83351e+57
          1834.86370	         7.50438e+57
          1835.67000	         6.45910e+57
          1836.47630	         7.29396e+57
          1837.28260	         8.31724e+57
          1838.08890	         9.08622e+57
          1838.89520	         9.03798e+57
          1839.70150	         8.30893e+57
          1840.50780	         8.37687e+57
          1841.31410	         7.28201e+57
          1842.12040	         6.56807e+57
          1842.92670	         7.51454e+57
          1843.73300	         7.04313e+57
          1844.53930	         5.41267e+57
          1845.34560	         5.99063e+57
          1846.15190	         7.11927e+57
          1846.95820	         7.36581e+57
          1847.76450	         7.09501e+57
          1848.57080	         5.89535e+57
          1849.37710	         5.63471e+57
          1850.18340	         7.53359e+57
          1850.98970	         8.76426e+57
          1851.79600	         8.59541e+57
          1852.60230	         6.78417e+57
          1853.40860	         7.43806e+57
          1854.21490	         7.79074e+57
          1855.02120	         6.26621e+57
          1855.82750	         4.45601e+57
          1856.63380	         4.78593e+57
          1857.44010	         6.05906e+57
          1858.24640	         7.12680e+57
          1859.05270	         6.61882e+57
          1859.85900	         6.38152e+57
          1860.66530	         6.68226e+57
          1861.47160	         7.34399e+57
          1862.27790	         7.18707e+57
          1863.08420	         6.95274e+57
          1863.89050	         7.19708e+57
          1864.69680	         6.57108e+57
          1865.50310	         6.71373e+57
          1866.30940	         6.65579e+57
          1867.11570	         6.87348e+57
          1867.92200	         7.04501e+57
          1868.72830	         7.50017e+57
          1869.53460	         7.73404e+57
          1870.34090	         7.54736e+57
          1871.14720	         7.61800e+57
          1871.95350	         6.93853e+57
          1872.75980	         6.30393e+57
          1873.56610	         6.58100e+57
          1874.37240	         5.63731e+57
          1875.17870	         6.07521e+57
          1875.98500	         7.16692e+57
          1876.79130	         8.01139e+57
          1877.59760	         6.67024e+57
          1878.40390	         6.30953e+57
          1879.21020	         6.23702e+57
          1880.01650	         7.37097e+57
          1880.82280	         8.57714e+57
          1881.62910	         8.32822e+57
          1882.43540	         9.91479e+57
          1883.24170	         7.96754e+57
          1884.04800	         6.25573e+57
          1884.85430	         6.84775e+57
          1885.66060	         7.89382e+57
          1886.46690	         7.77036e+57
          1887.27320	         7.16992e+57
          1888.07950	         5.41284e+57
          1888.88580	         6.73551e+57
          1889.69210	         9.22708e+57
          1890.49840	         8.87700e+57
          1891.30470	         6.68407e+57
          1892.11100	         7.89338e+57
          1892.91730	         8.31159e+57
          1893.72360	         8.37727e+57
          1894.52990	         6.62520e+57
          1895.33620	         7.86923e+57
          1896.14250	         7.77187e+57
          1896.94880	         5.92117e+57
          1897.75510	         4.06864e+57
          1898.56140	         4.93584e+57
          1899.36770	         8.26184e+57
          1900.17400	         7.76738e+57
          1900.98030	         6.04448e+57
          1901.78660	         6.61559e+57
          1902.59290	         7.02255e+57
          1903.39920	         8.47103e+57
          1904.20550	         8.45967e+57
          1905.01180	         8.65363e+57
          1905.81810	         9.88544e+57
          1906.62440	         1.24602e+58
          1907.43070	         1.53126e+58
          1908.23700	         1.46328e+58
          1909.04330	         1.24041e+58
          1909.84960	         1.10895e+58
          1910.65590	         9.53765e+57
          1911.46220	         8.94059e+57
          1912.26850	         8.10166e+57
          1913.07480	         5.46937e+57
          1913.88110	         5.85169e+57
          1914.68740	         5.91728e+57
          1915.49370	         5.37667e+57
          1916.30000	         6.21567e+57
          1917.10630	         6.85242e+57
          1917.91260	         6.87785e+57
          1918.71890	         7.09588e+57
          1919.52520	         6.50251e+57
          1920.33150	         5.12227e+57
          1921.13780	         6.04067e+57
          1921.94410	         7.83293e+57
          1922.75040	         6.92552e+57
          1923.55670	         7.69948e+57
          1924.36300	         7.92437e+57
          1925.16930	         5.73030e+57
          1925.97560	         5.19161e+57
          1926.78190	         4.34796e+57
          1927.58820	         4.97857e+57
          1928.39450	         6.24596e+57
          1929.20080	         6.51820e+57
          1930.00710	         7.27041e+57
          1930.81340	         7.01218e+57
          1931.61970	         6.83882e+57
          1932.42600	         7.51432e+57
          1933.23230	         7.57702e+57
          1934.03860	         7.02384e+57
          1934.84490	         5.56132e+57
          1935.65120	         7.11444e+57
          1936.45750	         9.35847e+57
          1937.26380	         7.73249e+57
          1938.07010	         5.87375e+57
          1938.87640	         6.88604e+57
          1939.68270	         6.54143e+57
          1940.48900	         6.59447e+57
          1941.29530	         7.38130e+57
          1942.10160	         8.16657e+57
          1942.90790	         6.99335e+57
          1943.71420	         6.02303e+57
          1944.52050	         4.76997e+57
          1945.32680	         5.82692e+57
          1946.13310	         7.85168e+57
          1946.93940	         8.02461e+57
          1947.74570	         7.42400e+57
          1948.55200	         6.54130e+57
          1949.35830	         6.24707e+57
          1950.16460	         5.66352e+57
          1950.97090	         6.12922e+57
          1951.77720	         7.49430e+57
          1952.58350	         7.77064e+57
          1953.38980	         7.02408e+57
          1954.19610	         5.11099e+57
          1955.00240	         4.78053e+57
          1955.80870	         5.81895e+57
          1956.61500	         5.86521e+57
          1957.42130	         5.93890e+57
          1958.22760	         6.78560e+57
          1959.03390	         6.76511e+57
          1959.84020	         6.59897e+57
          1960.64650	         6.19095e+57
          1961.45280	         5.50629e+57
          1962.25910	         4.73436e+57
          1963.06540	         5.10498e+57
          1963.87170	         6.07099e+57
          1964.67800	         6.57699e+57
          1965.48430	         5.90774e+57
          1966.29060	         5.73221e+57
          1967.09690	         6.24093e+57
          1967.90320	         6.45353e+57
          1968.70950	         7.00522e+57
          1969.51580	         6.13752e+57
          1970.32210	         6.07230e+57
          1971.12840	         6.41778e+57
          1971.93470	         5.30109e+57
          1972.74100	         4.43916e+57
          1973.54730	         6.48595e+57
          1974.35360	         7.80740e+57
          1975.15990	         8.04638e+57
          1975.96620	         7.13330e+57
          1976.77250	         7.50532e+57
          1977.57880	         6.31538e+57
          1978.38510	         6.03487e+57
          1979.19140	         8.53461e+57
          1979.99770	         8.00471e+57
          1980.80400	         7.80053e+57
          1981.61030	         7.01619e+57
          1982.41660	         5.86670e+57
          1983.22290	         6.48485e+57
          1984.02920	         4.84240e+57
          1984.83550	         4.56710e+57
          1985.64180	         5.84835e+57
          1986.44810	         6.16392e+57
          1987.25440	         6.72126e+57
          1988.06070	         6.28408e+57
          1988.86700	         7.51572e+57
          1989.67330	         7.09834e+57
          1990.47960	         5.85260e+57
          1991.28590	         6.74365e+57
          1992.09220	         6.40840e+57
          1992.89850	         6.10551e+57
          1993.70480	         6.06265e+57
          1994.51110	         4.88886e+57
          1995.31740	         5.38116e+57
          1996.12370	         6.13522e+57
          1996.93000	         6.05477e+57
          1997.73630	         7.51110e+57
          1998.54260	         7.75285e+57
          1999.34890	         6.42523e+57
          2000.15520	         5.53629e+57
          2000.96150	         6.65569e+57
          2001.76780	         6.08600e+57
          2002.57410	         5.82026e+57
          2003.38040	         6.53545e+57
          2004.18670	         6.61985e+57
          2004.99300	         5.54654e+57
          2005.79930	         6.51493e+57
          2006.60560	         7.70343e+57
          2007.41190	         6.84350e+57
          2008.21820	         6.59096e+57
          2009.02450	         7.40722e+57
          2009.83080	         6.78131e+57
          2010.63710	         6.72827e+57
          2011.44340	         7.19995e+57
          2012.24970	         7.13021e+57
          2013.05600	         6.92473e+57
          2013.86230	         6.76308e+57
          2014.66860	         5.45558e+57
          2015.47490	         6.08236e+57
          2016.28120	         5.90640e+57
          2017.08750	         5.45376e+57
          2017.89380	         6.06685e+57
          2018.70010	         6.81628e+57
          2019.50640	         6.53005e+57
          2020.31270	         6.81798e+57
          2021.11900	         7.40640e+57
          2021.92530	         7.44710e+57
          2022.73160	         6.91240e+57
          2023.53790	         6.50351e+57
          2024.34420	         6.22700e+57
          2025.15050	         3.77022e+57
          2025.95680	         5.03080e+57
          2026.76310	         5.12736e+57
          2027.56940	         6.34178e+57
          2028.37570	         5.90664e+57
          2029.18200	         6.09201e+57
          2029.98830	         6.42986e+57
          2030.79460	         5.77110e+57
          2031.60090	         5.87648e+57
          2032.40720	         5.56250e+57
          2033.21350	         6.43805e+57
          2034.01980	         5.70679e+57
          2034.82610	         4.51185e+57
          2035.63240	         5.70073e+57
          2036.43870	         4.65848e+57
          2037.24500	         5.18654e+57
          2038.05130	         6.40849e+57
          2038.85760	         5.51854e+57
          2039.66390	         5.98326e+57
          2040.47020	         5.63562e+57
          2041.27650	         5.38600e+57
          2042.08280	         4.96262e+57
          2042.88910	         4.31059e+57
          2043.69540	         5.16069e+57
          2044.50170	         6.55137e+57
          2045.30800	         5.70546e+57
          2046.11430	         4.49227e+57
          2046.92060	         6.16029e+57
          2047.72690	         6.24814e+57
          2048.53320	         6.61193e+57
          2049.33950	         5.24139e+57
          2050.14580	         4.77720e+57
          2050.95210	         7.55246e+57
          2051.75840	         7.95630e+57
          2052.56470	         5.16038e+57
          2053.37100	         4.17034e+57
          2054.17730	         4.15555e+57
          2054.98360	         4.26618e+57
          2055.78990	         2.84170e+57
          2056.59620	         2.37273e+57
          2057.40250	         5.32265e+57
          2058.20880	         6.70739e+57
          2059.01510	         6.42925e+57
          2059.82140	         6.76565e+57
          2060.62770	         9.17625e+57
          2061.43400	         1.60428e+58
          2062.24030	         1.20918e+58
          2063.04660	         3.78707e+57
          2063.85290	         7.94224e+56
          2064.65920	        -2.51629e+57
          2065.46550	        -7.20733e+57
          2066.27180	        -7.76059e+57
          2067.07810	         3.37871e+57
          2067.88440	         5.37983e+57
          2068.69070	         5.50688e+57
          2069.49700	         4.54717e+57
          2070.30330	         5.16623e+57
          2071.10960	         5.97579e+57
          2071.91590	         6.22838e+57
          2072.72220	         4.08829e+57
          2073.52850	         5.11374e+57
          2074.33480	         5.02298e+57
          2075.14110	         4.99701e+57
          2075.94740	         4.60780e+57
          2076.75370	         4.35617e+57
          2077.56000	         5.05268e+57
          2078.36630	         5.94807e+57
          2079.17260	         3.89895e+57
          2079.97890	         5.73819e+57
          2080.78520	         6.87670e+57
          2081.59150	         5.33914e+57
          2082.39780	         4.08956e+57
          2083.20410	         2.56784e+57
          2084.01040	         2.00672e+57
          2084.81670	         2.27932e+57
          2085.62300	         3.14494e+57
          2086.42930	         2.29204e+57
          2087.23560	         4.62661e+57
          2088.04190	         4.42693e+57
          2088.84820	         3.91841e+57
          2089.65450	         2.23401e+57
          2090.46080	         2.28408e+57
          2091.26710	         2.93124e+57
          2092.07340	         4.37903e+57
          2092.87970	         3.44394e+57
          2093.68600	        -2.73746e+56
          2094.49230	        -1.15586e+57
          2095.29860	         3.60299e+57
          2096.10490	         4.13434e+57
          2096.91120	         2.02665e+57
          2097.71750	         1.76230e+57
          2098.52380	         2.24337e+57
          2099.33010	         1.40261e+57
          2100.13640	         5.81068e+56
          2100.94270	         2.12565e+57
          2101.74900	         2.48988e+57
          2102.55530	         3.41117e+57
          2103.36160	         3.69082e+57
          2104.16790	         3.46490e+57
          2104.97420	         2.24658e+57
          2105.78050	         2.70909e+57
          2106.58680	         1.85097e+57
          2107.39310	         3.25806e+56
          2108.19940	         5.93053e+56
          2109.00570	        -2.47311e+57
          2109.81200	        -3.16521e+57
          2110.61830	         3.43087e+57
          2111.42460	         6.78301e+56
          2112.23090	        -6.77178e+56
          2113.03720	         1.40151e+57
          2113.84350	         2.26072e+57
          2114.64980	         5.68082e+57
          2115.45610	        -1.46509e+57
          2116.26240	        -3.52662e+57
          2117.06870	         4.95173e+56
          2117.87500	        -2.64022e+57
          2118.68130	         1.70925e+57
          2119.48760	         3.74698e+57
          2120.29390	        -1.40276e+57
          2121.10020	        -6.15462e+57
          2121.90650	        -1.40583e+57
          2122.71280	        -2.15443e+57
          2123.51910	         4.96615e+57
          2124.32540	         1.77841e+57
          2125.13170	         5.38511e+56
          2125.93800	         1.95748e+57
          2126.74430	         3.13007e+57
          2127.55060	        -5.27620e+57
          2128.35690	        -4.92144e+57
          2129.16320	        -1.92733e+57
          2129.96950	        -5.62514e+57
          2130.77580	         2.14002e+57
          2131.58210	        -2.99518e+57
          2132.38840	         6.47293e+55
          2133.19470	        -4.42481e+56
          2134.00100	        -1.24277e+57
          2134.80730	        -7.17192e+57
          2135.61360	        -3.86897e+57
          2136.41990	        -3.73693e+56
          2137.22620	         1.27854e+57
          2138.03250	        -1.07825e+57
          2138.83880	        -6.71236e+57
          2139.64510	        -3.38813e+57
          2140.45140	        -4.72104e+57
          2141.25770	        -5.76195e+57
          2142.06400	        -4.76115e+57
          2142.87030	         7.28013e+57
          2143.67660	         5.64842e+57
          2144.48290	         1.62454e+57
          2145.28920	         7.86260e+57
          2146.09550	         3.38167e+57
          2146.90180	        -1.72361e+57
          2147.70810	         5.66984e+57
          2148.51440	         1.10544e+56
          2149.32070	        -1.35988e+58
          2150.12700	        -1.02843e+58
          2150.93330	        -6.13212e+57
          2151.73960	        -4.75039e+57
          2152.54590	         5.76069e+56
          2153.35220	        -1.26818e+58
          2154.15850	        -7.54253e+57
          2154.96480	        -4.40324e+56
          2155.77110	        -3.91328e+57
          2156.57740	        -9.54065e+57
          2157.38370	        -1.74798e+56
          2158.19000	        -8.27058e+57
          2158.99630	        -9.47003e+57
          2159.80260	        -1.59345e+58
          2160.60890	        -1.34334e+58
          2161.41520	        -8.09734e+57
          2162.22150	        -3.33825e+57
          2163.02780	        -4.03108e+57
          2163.83410	        -8.57942e+56
          2164.64040	        -8.63640e+57
          2165.44670	        -9.78166e+57
          2166.25300	        -5.10427e+57
          2167.05930	        -6.51894e+57
          2167.86560	        -1.16771e+58
          2168.67190	        -1.34607e+58
          2169.47820	         2.97957e+57
          2170.28450	         5.22148e+57
          2171.09080	         1.28350e+57
          2171.89710	         8.57556e+56
          2172.70340	        -1.60467e+57
          2173.50970	        -8.04211e+57
          2174.31600	        -2.99664e+57
          2175.12230	        -1.78792e+58
          2175.92860	        -3.37388e+57
          2176.73490	        -9.33531e+57
          2177.54120	        -7.88474e+57
          2178.34750	        -3.30623e+57
          2179.15380	                 nan
          2179.96010	                 nan
          2180.76640	                 nan
          2181.57270	                 nan
          2182.37900	                 nan
          2183.18530	                 nan
          2183.99160	                 nan
          2184.79790	                 nan
          2185.60420	                 nan
          2186.41050	                 nan
          2187.21680	                 nan
          2188.02310	                 nan
          2188.82940	                 nan
          2189.63570	                 nan
          2190.44200	                 nan
          2191.24830	                 nan
          2192.05460	                 nan
          2192.86090	                 nan
          2193.66720	                 nan
          2194.47350	                 nan
          2195.27980	                 nan
          2196.08610	                 nan
          2196.89240	                 nan
          2197.69870	                 nan
          2198.50500	                 nan
          2199.31130	                 nan
          2200.11760	                 nan
          2200.92390	                 nan
          2201.73020	                 nan
          2202.53650	                 nan
          2203.34280	                 nan
          2204.14910	                 nan
          2204.95540	                 nan
          2205.76170	                 nan
          2206.56800	                 nan
          2207.37430	                 nan
          2208.18060	                 nan
          2208.98690	                 nan
          2209.79320	                 nan
          2210.59950	                 nan
          2211.40580	                 nan
          2212.21210	                 nan
          2213.01840	                 nan
          2213.82470	                 nan
          2214.63100	                 nan
          2215.43730	         0.00000e+00
