#sample_80_stacked_spectrum_rest_UV-bands_median_H-alpha_noDC.txt
#median Lum: 1.67599e+42
#Rest-frame wavelength (A) | Luminosity (erg/s/A)
#
          1110.00000	         0.00000e+00
          1110.80630	         5.86090e+59
          1111.61260	        -3.17114e+58
          1112.41890	        -7.01628e+58
          1113.22520	         5.10927e+58
          1114.03150	        -1.70230e+59
          1114.83780	        -6.43474e+58
          1115.64410	         3.66706e+58
          1116.45040	         4.58185e+58
          1117.25670	         6.13715e+58
          1118.06300	         1.29028e+59
          1118.86930	         7.11400e+58
          1119.67560	         9.43406e+58
          1120.48190	        -8.41371e+57
          1121.28820	        -1.56002e+59
          1122.09450	        -5.34034e+58
          1122.90080	         2.30463e+58
          1123.70710	         1.04584e+59
          1124.51340	         6.52487e+58
          1125.31970	        -4.05750e+57
          1126.12600	         2.72727e+58
          1126.93230	        -4.08933e+58
          1127.73860	        -5.82582e+58
          1128.54490	         2.02905e+58
          1129.35120	         1.95685e+58
          1130.15750	         1.75631e+58
          1130.96380	        -3.66353e+58
          1131.77010	         6.13143e+58
          1132.57640	         1.98805e+58
          1133.38270	         2.45639e+58
          1134.18900	         2.70000e+58
          1134.99530	         1.13762e+58
          1135.80160	         9.67543e+57
          1136.60790	         2.21578e+58
          1137.41420	         1.00633e+57
          1138.22050	         5.04330e+58
          1139.02680	         1.93416e+58
          1139.83310	         3.07877e+58
          1140.63940	         1.50267e+58
          1141.44570	        -1.61289e+58
          1142.25200	         4.14470e+57
          1143.05830	         1.60796e+58
          1143.86460	         9.18958e+57
          1144.67090	        -2.47325e+56
          1145.47720	         7.30961e+57
          1146.28350	         1.87119e+58
          1147.08980	         5.69329e+57
          1147.89610	         1.63995e+58
          1148.70240	         3.64074e+58
          1149.50870	         2.80228e+58
          1150.31500	         1.37089e+58
          1151.12130	        -7.20016e+56
          1151.92760	         4.04686e+57
          1152.73390	         7.97386e+57
          1153.54020	         3.74494e+57
          1154.34650	         2.34855e+58
          1155.15280	         2.28498e+58
          1155.95910	         1.19810e+58
          1156.76540	         1.19740e+58
          1157.57170	         5.08135e+57
          1158.37800	         1.35496e+57
          1159.18430	        -2.93510e+55
          1159.99060	         5.73292e+57
          1160.79690	         3.48836e+57
          1161.60320	         1.50851e+58
          1162.40950	         1.17791e+58
          1163.21580	         1.52766e+58
          1164.02210	         1.11016e+58
          1164.82840	         1.16553e+58
          1165.63470	         2.64759e+58
          1166.44100	         3.21655e+58
          1167.24730	         1.21916e+58
          1168.05360	         1.79962e+57
          1168.85990	         1.01656e+58
          1169.66620	         1.16957e+58
          1170.47250	         1.41424e+58
          1171.27880	         1.08363e+58
          1172.08510	         1.16456e+58
          1172.89140	         1.40675e+58
          1173.69770	         8.65464e+57
          1174.50400	         1.39215e+58
          1175.31030	         1.22622e+58
          1176.11660	         1.34397e+58
          1176.92290	         1.71946e+58
          1177.72920	         9.42007e+57
          1178.53550	         6.88253e+57
          1179.34180	         7.02545e+57
          1180.14810	         7.17240e+57
          1180.95440	         8.23121e+57
          1181.76070	         8.51720e+57
          1182.56700	         1.00140e+58
          1183.37330	         4.93611e+57
          1184.17960	         8.61969e+57
          1184.98590	         1.25340e+58
          1185.79220	         1.31427e+58
          1186.59850	         1.09675e+58
          1187.40480	         5.05512e+57
          1188.21110	         1.55747e+58
          1189.01740	         3.52077e+57
          1189.82370	         4.79064e+57
          1190.63000	         1.56553e+58
          1191.43630	         1.51986e+58
          1192.24260	         1.07788e+58
          1193.04890	         1.21286e+58
          1193.85520	         1.11429e+58
          1194.66150	         6.99915e+57
          1195.46780	         1.10066e+58
          1196.27410	         1.50505e+58
          1197.08040	         1.50715e+58
          1197.88670	         1.88795e+58
          1198.69300	         1.50117e+58
          1199.49930	         1.63830e+58
          1200.30560	         1.21483e+58
          1201.11190	         1.31099e+58
          1201.91820	         1.33645e+58
          1202.72450	         1.01327e+58
          1203.53080	         1.14782e+58
          1204.33710	         6.86536e+57
          1205.14340	         5.63285e+57
          1205.94970	         5.60440e+57
          1206.75600	         4.78363e+57
          1207.56230	         4.83393e+57
          1208.36860	         7.58628e+57
          1209.17490	         2.17579e+57
          1209.98120	         5.38380e+57
          1210.78750	         6.86193e+57
          1211.59380	         8.53579e+57
          1212.40010	         1.50691e+58
          1213.20640	         2.13751e+58
          1214.01270	         2.20972e+58
          1214.81900	         2.97701e+58
          1215.62530	         4.95472e+58
          1216.43160	         9.12089e+58
          1217.23790	         1.52294e+59
          1218.04420	         1.11293e+59
          1218.85050	         8.86497e+58
          1219.65680	         5.89791e+58
          1220.46310	         3.09765e+58
          1221.26940	         1.96021e+58
          1222.07570	         1.24367e+58
          1222.88200	         8.61543e+57
          1223.68830	         9.54116e+57
          1224.49460	         8.74267e+57
          1225.30090	         8.08815e+57
          1226.10720	         6.41025e+57
          1226.91350	         5.67703e+57
          1227.71980	         1.04889e+58
          1228.52610	         1.28928e+58
          1229.33240	         8.85096e+57
          1230.13870	         9.94710e+57
          1230.94500	         9.48756e+57
          1231.75130	         6.25919e+57
          1232.55760	         8.75087e+57
          1233.36390	         1.04343e+58
          1234.17020	         9.71202e+57
          1234.97650	         9.37456e+57
          1235.78280	         8.96111e+57
          1236.58910	         8.73618e+57
          1237.39540	         1.25937e+58
          1238.20170	         1.21375e+58
          1239.00800	         1.36607e+58
          1239.81430	         1.56838e+58
          1240.62060	         1.20635e+58
          1241.42690	         1.09811e+58
          1242.23320	         1.22140e+58
          1243.03950	         8.73529e+57
          1243.84580	         7.94790e+57
          1244.65210	         9.73275e+57
          1245.45840	         8.02178e+57
          1246.26470	         7.58448e+57
          1247.07100	         7.67407e+57
          1247.87730	         7.73769e+57
          1248.68360	         6.86657e+57
          1249.48990	         1.11029e+58
          1250.29620	         9.17699e+57
          1251.10250	         6.29194e+57
          1251.90880	         3.84957e+57
          1252.71510	         5.79252e+57
          1253.52140	         8.22628e+57
          1254.32770	         1.13696e+58
          1255.13400	         1.39532e+58
          1255.94030	         1.26395e+58
          1256.74660	         9.27801e+57
          1257.55290	         8.75842e+57
          1258.35920	         9.13234e+57
          1259.16550	         7.33777e+57
          1259.97180	         5.77108e+57
          1260.77810	         8.34556e+57
          1261.58440	         1.14207e+58
          1262.39070	         9.39771e+57
          1263.19700	         7.91294e+57
          1264.00330	         9.32843e+57
          1264.80960	         1.05819e+58
          1265.61590	         1.13109e+58
          1266.42220	         1.10120e+58
          1267.22850	         1.10729e+58
          1268.03480	         1.54267e+58
          1268.84110	         1.51957e+58
          1269.64740	         1.33026e+58
          1270.45370	         1.39738e+58
          1271.26000	         1.17467e+58
          1272.06630	         1.02786e+58
          1272.87260	         1.12311e+58
          1273.67890	         1.20176e+58
          1274.48520	         1.09672e+58
          1275.29150	         1.14666e+58
          1276.09780	         1.21319e+58
          1276.90410	         1.56743e+58
          1277.71040	         1.39513e+58
          1278.51670	         1.28165e+58
          1279.32300	         1.33736e+58
          1280.12930	         1.22020e+58
          1280.93560	         9.75680e+57
          1281.74190	         8.68559e+57
          1282.54820	         1.39888e+58
          1283.35450	         1.32092e+58
          1284.16080	         1.14958e+58
          1284.96710	         1.37178e+58
          1285.77340	         1.04759e+58
          1286.57970	         9.73824e+57
          1287.38600	         1.40957e+58
          1288.19230	         1.73931e+58
          1288.99860	         1.39368e+58
          1289.80490	         9.71411e+57
          1290.61120	         1.12675e+58
          1291.41750	         1.26915e+58
          1292.22380	         1.18802e+58
          1293.03010	         1.24983e+58
          1293.83640	         1.32359e+58
          1294.64270	         9.77204e+57
          1295.44900	         6.64528e+57
          1296.25530	         7.60974e+57
          1297.06160	         8.34128e+57
          1297.86790	         8.24785e+57
          1298.67420	         9.51458e+57
          1299.48050	         1.10822e+58
          1300.28680	         1.07802e+58
          1301.09310	         7.89611e+57
          1301.89940	         3.67751e+57
          1302.70570	         7.17515e+57
          1303.51200	         8.17511e+57
          1304.31830	         9.66155e+57
          1305.12460	         1.08672e+58
          1305.93090	         1.10406e+58
          1306.73720	         1.16790e+58
          1307.54350	         1.23145e+58
          1308.34980	         1.41906e+58
          1309.15610	         1.35856e+58
          1309.96240	         1.58353e+58
          1310.76870	         1.43099e+58
          1311.57500	         1.01673e+58
          1312.38130	         1.07645e+58
          1313.18760	         1.32954e+58
          1313.99390	         1.58344e+58
          1314.80020	         1.52170e+58
          1315.60650	         1.51920e+58
          1316.41280	         1.31687e+58
          1317.21910	         1.16883e+58
          1318.02540	         1.21264e+58
          1318.83170	         1.16455e+58
          1319.63800	         1.31168e+58
          1320.44430	         1.34751e+58
          1321.25060	         1.30896e+58
          1322.05690	         1.08358e+58
          1322.86320	         1.16681e+58
          1323.66950	         1.12517e+58
          1324.47580	         8.20005e+57
          1325.28210	         8.06705e+57
          1326.08840	         1.01965e+58
          1326.89470	         1.28058e+58
          1327.70100	         1.00603e+58
          1328.50730	         7.23668e+57
          1329.31360	         9.86411e+57
          1330.11990	         9.46069e+57
          1330.92620	         9.95297e+57
          1331.73250	         1.11937e+58
          1332.53880	         1.03064e+58
          1333.34510	         8.30805e+57
          1334.15140	         8.82800e+57
          1334.95770	         8.82764e+57
          1335.76400	         1.02638e+58
          1336.57030	         1.16177e+58
          1337.37660	         1.08888e+58
          1338.18290	         1.06032e+58
          1338.98920	         1.22651e+58
          1339.79550	         1.26738e+58
          1340.60180	         1.13423e+58
          1341.40810	         1.18793e+58
          1342.21440	         1.18385e+58
          1343.02070	         1.20555e+58
          1343.82700	         1.36062e+58
          1344.63330	         1.34610e+58
          1345.43960	         1.20816e+58
          1346.24590	         1.10308e+58
          1347.05220	         1.30286e+58
          1347.85850	         1.10726e+58
          1348.66480	         1.15384e+58
          1349.47110	         1.19911e+58
          1350.27740	         1.14789e+58
          1351.08370	         1.15687e+58
          1351.89000	         1.15995e+58
          1352.69630	         1.04607e+58
          1353.50260	         1.09956e+58
          1354.30890	         1.15789e+58
          1355.11520	         1.11848e+58
          1355.92150	         9.94322e+57
          1356.72780	         1.01269e+58
          1357.53410	         1.05331e+58
          1358.34040	         1.09372e+58
          1359.14670	         1.09480e+58
          1359.95300	         1.11054e+58
          1360.75930	         1.07891e+58
          1361.56560	         9.94511e+57
          1362.37190	         1.17590e+58
          1363.17820	         1.20803e+58
          1363.98450	         1.19830e+58
          1364.79080	         1.18315e+58
          1365.59710	         1.13854e+58
          1366.40340	         1.04114e+58
          1367.20970	         9.76159e+57
          1368.01600	         1.01404e+58
          1368.82230	         9.41032e+57
          1369.62860	         1.08365e+58
          1370.43490	         1.00781e+58
          1371.24120	         9.79659e+57
          1372.04750	         8.95483e+57
          1372.85380	         1.02990e+58
          1373.66010	         1.10850e+58
          1374.46640	         1.07766e+58
          1375.27270	         1.17564e+58
          1376.07900	         1.01861e+58
          1376.88530	         8.82652e+57
          1377.69160	         8.54821e+57
          1378.49790	         7.30995e+57
          1379.30420	         8.08344e+57
          1380.11050	         9.91082e+57
          1380.91680	         9.79843e+57
          1381.72310	         8.28074e+57
          1382.52940	         8.60812e+57
          1383.33570	         9.25709e+57
          1384.14200	         1.07475e+58
          1384.94830	         1.20628e+58
          1385.75460	         1.11654e+58
          1386.56090	         9.17714e+57
          1387.36720	         8.64018e+57
          1388.17350	         1.35964e+58
          1388.97980	         1.31653e+58
          1389.78610	         1.02453e+58
          1390.59240	         9.66311e+57
          1391.39870	         8.63977e+57
          1392.20500	         8.35476e+57
          1393.01130	         7.84101e+57
          1393.81760	         7.61758e+57
          1394.62390	         8.82397e+57
          1395.43020	         6.74622e+57
          1396.23650	         5.90302e+57
          1397.04280	         6.56571e+57
          1397.84910	         8.59010e+57
          1398.65540	         9.22088e+57
          1399.46170	         1.01591e+58
          1400.26800	         8.58580e+57
          1401.07430	         7.01320e+57
          1401.88060	         6.61707e+57
          1402.68690	         7.88178e+57
          1403.49320	         9.06646e+57
          1404.29950	         9.63267e+57
          1405.10580	         1.13744e+58
          1405.91210	         1.15003e+58
          1406.71840	         1.04428e+58
          1407.52470	         9.25770e+57
          1408.33100	         9.33408e+57
          1409.13730	         1.18257e+58
          1409.94360	         1.32040e+58
          1410.74990	         1.19527e+58
          1411.55620	         1.06720e+58
          1412.36250	         1.05121e+58
          1413.16880	         9.17196e+57
          1413.97510	         8.05664e+57
          1414.78140	         6.92638e+57
          1415.58770	         9.00944e+57
          1416.39400	         1.01582e+58
          1417.20030	         9.77111e+57
          1418.00660	         9.12230e+57
          1418.81290	         9.73433e+57
          1419.61920	         1.10918e+58
          1420.42550	         1.37697e+58
          1421.23180	         1.41209e+58
          1422.03810	         1.30125e+58
          1422.84440	         1.15326e+58
          1423.65070	         1.10921e+58
          1424.45700	         1.08352e+58
          1425.26330	         9.92599e+57
          1426.06960	         8.71128e+57
          1426.87590	         8.59909e+57
          1427.68220	         9.27086e+57
          1428.48850	         1.10676e+58
          1429.29480	         1.15755e+58
          1430.10110	         9.78761e+57
          1430.90740	         7.82544e+57
          1431.71370	         7.96779e+57
          1432.52000	         8.23431e+57
          1433.32630	         7.58475e+57
          1434.13260	         6.71710e+57
          1434.93890	         7.07320e+57
          1435.74520	         8.26607e+57
          1436.55150	         8.46456e+57
          1437.35780	         8.38246e+57
          1438.16410	         8.58194e+57
          1438.97040	         9.33145e+57
          1439.77670	         9.14915e+57
          1440.58300	         8.70886e+57
          1441.38930	         9.47114e+57
          1442.19560	         1.00716e+58
          1443.00190	         8.75282e+57
          1443.80820	         1.00982e+58
          1444.61450	         1.01418e+58
          1445.42080	         8.17948e+57
          1446.22710	         1.03572e+58
          1447.03340	         1.09732e+58
          1447.83970	         1.10596e+58
          1448.64600	         1.08167e+58
          1449.45230	         1.03667e+58
          1450.25860	         1.03115e+58
          1451.06490	         9.38486e+57
          1451.87120	         7.68302e+57
          1452.67750	         7.62129e+57
          1453.48380	         8.23211e+57
          1454.29010	         7.41307e+57
          1455.09640	         8.04452e+57
          1455.90270	         9.79694e+57
          1456.70900	         9.03529e+57
          1457.51530	         1.02334e+58
          1458.32160	         1.38593e+58
          1459.12790	         1.38063e+58
          1459.93420	         1.06809e+58
          1460.74050	         7.39566e+57
          1461.54680	         7.31860e+57
          1462.35310	         9.16678e+57
          1463.15940	         1.00744e+58
          1463.96570	         1.08271e+58
          1464.77200	         1.19355e+58
          1465.57830	         1.12844e+58
          1466.38460	         8.80135e+57
          1467.19090	         7.62273e+57
          1467.99720	         8.78873e+57
          1468.80350	         9.74727e+57
          1469.60980	         9.47419e+57
          1470.41610	         1.06497e+58
          1471.22240	         9.85699e+57
          1472.02870	         1.01007e+58
          1472.83500	         1.17521e+58
          1473.64130	         1.12625e+58
          1474.44760	         1.09420e+58
          1475.25390	         9.85759e+57
          1476.06020	         1.00686e+58
          1476.86650	         9.16769e+57
          1477.67280	         8.47732e+57
          1478.47910	         7.04591e+57
          1479.28540	         6.92728e+57
          1480.09170	         8.82600e+57
          1480.89800	         8.54591e+57
          1481.70430	         8.85112e+57
          1482.51060	         8.58259e+57
          1483.31690	         8.33564e+57
          1484.12320	         7.66785e+57
          1484.92950	         8.29892e+57
          1485.73580	         9.40332e+57
          1486.54210	         8.88802e+57
          1487.34840	         8.38673e+57
          1488.15470	         8.12163e+57
          1488.96100	         8.01822e+57
          1489.76730	         8.89129e+57
          1490.57360	         8.51942e+57
          1491.37990	         6.95691e+57
          1492.18620	         8.81558e+57
          1492.99250	         9.99505e+57
          1493.79880	         8.81189e+57
          1494.60510	         8.23769e+57
          1495.41140	         6.57720e+57
          1496.21770	         7.97442e+57
          1497.02400	         1.11222e+58
          1497.83030	         9.77176e+57
          1498.63660	         7.12827e+57
          1499.44290	         6.45461e+57
          1500.24920	         7.05404e+57
          1501.05550	         7.31342e+57
          1501.86180	         8.46120e+57
          1502.66810	         9.83769e+57
          1503.47440	         8.79624e+57
          1504.28070	         8.65875e+57
          1505.08700	         8.86853e+57
          1505.89330	         8.49227e+57
          1506.69960	         7.72153e+57
          1507.50590	         7.24860e+57
          1508.31220	         7.57087e+57
          1509.11850	         7.96208e+57
          1509.92480	         9.58487e+57
          1510.73110	         9.88201e+57
          1511.53740	         7.41722e+57
          1512.34370	         6.51788e+57
          1513.15000	         8.74045e+57
          1513.95630	         1.04960e+58
          1514.76260	         8.75677e+57
          1515.56890	         8.20166e+57
          1516.37520	         8.46446e+57
          1517.18150	         8.31598e+57
          1517.98780	         7.54835e+57
          1518.79410	         7.64948e+57
          1519.60040	         8.42275e+57
          1520.40670	         9.00299e+57
          1521.21300	         8.85602e+57
          1522.01930	         8.51551e+57
          1522.82560	         9.68423e+57
          1523.63190	         9.88495e+57
          1524.43820	         8.09203e+57
          1525.24450	         6.80593e+57
          1526.05080	         6.56837e+57
          1526.85710	         6.84269e+57
          1527.66340	         7.22224e+57
          1528.46970	         7.88120e+57
          1529.27600	         7.62264e+57
          1530.08230	         7.28421e+57
          1530.88860	         6.83573e+57
          1531.69490	         8.49735e+57
          1532.50120	         9.67080e+57
          1533.30750	         9.73683e+57
          1534.11380	         9.99757e+57
          1534.92010	         9.48813e+57
          1535.72640	         9.26919e+57
          1536.53270	         9.44481e+57
          1537.33900	         7.86768e+57
          1538.14530	         8.51564e+57
          1538.95160	         9.27772e+57
          1539.75790	         9.43547e+57
          1540.56420	         9.63516e+57
          1541.37050	         8.43497e+57
          1542.17680	         6.82231e+57
          1542.98310	         6.73627e+57
          1543.78940	         6.49338e+57
          1544.59570	         6.08190e+57
          1545.40200	         7.21859e+57
          1546.20830	         9.32657e+57
          1547.01460	         1.09281e+58
          1547.82090	         1.22235e+58
          1548.62720	         1.23679e+58
          1549.43350	         1.20051e+58
          1550.23980	         1.12311e+58
          1551.04610	         1.25754e+58
          1551.85240	         1.09050e+58
          1552.65870	         1.08539e+58
          1553.46500	         1.02590e+58
          1554.27130	         9.59674e+57
          1555.07760	         9.48313e+57
          1555.88390	         8.27157e+57
          1556.69020	         8.79500e+57
          1557.49650	         9.00106e+57
          1558.30280	         8.39811e+57
          1559.10910	         7.79959e+57
          1559.91540	         9.12954e+57
          1560.72170	         9.50557e+57
          1561.52800	         8.53442e+57
          1562.33430	         8.09441e+57
          1563.14060	         7.84678e+57
          1563.94690	         8.16131e+57
          1564.75320	         8.77992e+57
          1565.55950	         7.21839e+57
          1566.36580	         6.79558e+57
          1567.17210	         9.57080e+57
          1567.97840	         9.56235e+57
          1568.78470	         8.81448e+57
          1569.59100	         9.08570e+57
          1570.39730	         9.21846e+57
          1571.20360	         8.50930e+57
          1572.00990	         7.52367e+57
          1572.81620	         8.65933e+57
          1573.62250	         1.00101e+58
          1574.42880	         9.14615e+57
          1575.23510	         7.84546e+57
          1576.04140	         8.24140e+57
          1576.84770	         9.24735e+57
          1577.65400	         9.18077e+57
          1578.46030	         9.23903e+57
          1579.26660	         9.64973e+57
          1580.07290	         9.51968e+57
          1580.87920	         7.31788e+57
          1581.68550	         6.54535e+57
          1582.49180	         7.84359e+57
          1583.29810	         7.65699e+57
          1584.10440	         7.87619e+57
          1584.91070	         9.14708e+57
          1585.71700	         8.49841e+57
          1586.52330	         9.17649e+57
          1587.32960	         9.27816e+57
          1588.13590	         8.05251e+57
          1588.94220	         8.52775e+57
          1589.74850	         9.19230e+57
          1590.55480	         8.93435e+57
          1591.36110	         7.94709e+57
          1592.16740	         8.57031e+57
          1592.97370	         8.96440e+57
          1593.78000	         9.17034e+57
          1594.58630	         9.64963e+57
          1595.39260	         8.56421e+57
          1596.19890	         8.97862e+57
          1597.00520	         9.97044e+57
          1597.81150	         8.73789e+57
          1598.61780	         7.38886e+57
          1599.42410	         7.53380e+57
          1600.23040	         6.58741e+57
          1601.03670	         6.84336e+57
          1601.84300	         7.25224e+57
          1602.64930	         7.64461e+57
          1603.45560	         8.28565e+57
          1604.26190	         7.85594e+57
          1605.06820	         7.03214e+57
          1605.87450	         7.37502e+57
          1606.68080	         8.09932e+57
          1607.48710	         6.22261e+57
          1608.29340	         5.46900e+57
          1609.09970	         6.29219e+57
          1609.90600	         6.50080e+57
          1610.71230	         6.57527e+57
          1611.51860	         7.51309e+57
          1612.32490	         7.60881e+57
          1613.13120	         8.73119e+57
          1613.93750	         8.36718e+57
          1614.74380	         8.15282e+57
          1615.55010	         9.05415e+57
          1616.35640	         9.51002e+57
          1617.16270	         9.39036e+57
          1617.96900	         9.66056e+57
          1618.77530	         9.12005e+57
          1619.58160	         9.21390e+57
          1620.38790	         8.69203e+57
          1621.19420	         9.53774e+57
          1622.00050	         8.27598e+57
          1622.80680	         8.27433e+57
          1623.61310	         8.00808e+57
          1624.41940	         7.33125e+57
          1625.22570	         8.74557e+57
          1626.03200	         9.23320e+57
          1626.83830	         7.80830e+57
          1627.64460	         5.32523e+57
          1628.45090	         5.48589e+57
          1629.25720	         8.56877e+57
          1630.06350	         1.06109e+58
          1630.86980	         7.29948e+57
          1631.67610	         7.43689e+57
          1632.48240	         8.63412e+57
          1633.28870	         7.92041e+57
          1634.09500	         9.63987e+57
          1634.90130	         1.02500e+58
          1635.70760	         7.67730e+57
          1636.51390	         6.92892e+57
          1637.32020	         7.85397e+57
          1638.12650	         9.09029e+57
          1638.93280	         1.05811e+58
          1639.73910	         1.16854e+58
          1640.54540	         1.06236e+58
          1641.35170	         8.69964e+57
          1642.15800	         8.49810e+57
          1642.96430	         8.75617e+57
          1643.77060	         8.99905e+57
          1644.57690	         8.14570e+57
          1645.38320	         7.49489e+57
          1646.18950	         6.74624e+57
          1646.99580	         8.54089e+57
          1647.80210	         8.02769e+57
          1648.60840	         6.89975e+57
          1649.41470	         8.00338e+57
          1650.22100	         7.28166e+57
          1651.02730	         7.18326e+57
          1651.83360	         7.41465e+57
          1652.63990	         7.37465e+57
          1653.44620	         8.16033e+57
          1654.25250	         7.99513e+57
          1655.05880	         7.94147e+57
          1655.86510	         8.26357e+57
          1656.67140	         8.85813e+57
          1657.47770	         7.92986e+57
          1658.28400	         8.36953e+57
          1659.09030	         8.84853e+57
          1659.89660	         8.85383e+57
          1660.70290	         1.01512e+58
          1661.50920	         9.95928e+57
          1662.31550	         8.74672e+57
          1663.12180	         8.50102e+57
          1663.92810	         9.57822e+57
          1664.73440	         1.10035e+58
          1665.54070	         1.17647e+58
          1666.34700	         1.20367e+58
          1667.15330	         1.09387e+58
          1667.95960	         8.58242e+57
          1668.76590	         6.60608e+57
          1669.57220	         6.66170e+57
          1670.37850	         7.52363e+57
          1671.18480	         8.49244e+57
          1671.99110	         8.51285e+57
          1672.79740	         6.79396e+57
          1673.60370	         6.07498e+57
          1674.41000	         6.96897e+57
          1675.21630	         7.76822e+57
          1676.02260	         6.78776e+57
          1676.82890	         6.10026e+57
          1677.63520	         6.91461e+57
          1678.44150	         7.80389e+57
          1679.24780	         8.62014e+57
          1680.05410	         7.56839e+57
          1680.86040	         5.36297e+57
          1681.66670	         6.97720e+57
          1682.47300	         8.37751e+57
          1683.27930	         7.51803e+57
          1684.08560	         8.57580e+57
          1684.89190	         8.28744e+57
          1685.69820	         5.82830e+57
          1686.50450	         5.95962e+57
          1687.31080	         7.10317e+57
          1688.11710	         7.07859e+57
          1688.92340	         6.37628e+57
          1689.72970	         6.79504e+57
          1690.53600	         6.85650e+57
          1691.34230	         7.57216e+57
          1692.14860	         8.20350e+57
          1692.95490	         8.07110e+57
          1693.76120	         6.61590e+57
          1694.56750	         6.28061e+57
          1695.37380	         8.30211e+57
          1696.18010	         8.66745e+57
          1696.98640	         8.66672e+57
          1697.79270	         8.48647e+57
          1698.59900	         7.47947e+57
          1699.40530	         7.15204e+57
          1700.21160	         6.83040e+57
          1701.01790	         7.75148e+57
          1701.82420	         8.30232e+57
          1702.63050	         8.77682e+57
          1703.43680	         9.17017e+57
          1704.24310	         7.87074e+57
          1705.04940	         8.49171e+57
          1705.85570	         8.18623e+57
          1706.66200	         7.63921e+57
          1707.46830	         7.88422e+57
          1708.27460	         7.67095e+57
          1709.08090	         6.48073e+57
          1709.88720	         5.24504e+57
          1710.69350	         5.96901e+57
          1711.49980	         7.02087e+57
          1712.30610	         7.17383e+57
          1713.11240	         8.46649e+57
          1713.91870	         7.25075e+57
          1714.72500	         7.74627e+57
          1715.53130	         9.09655e+57
          1716.33760	         8.10977e+57
          1717.14390	         7.57822e+57
          1717.95020	         8.30680e+57
          1718.75650	         8.84137e+57
          1719.56280	         9.02123e+57
          1720.36910	         7.51048e+57
          1721.17540	         6.84378e+57
          1721.98170	         6.19307e+57
          1722.78800	         5.68831e+57
          1723.59430	         6.41819e+57
          1724.40060	         8.42948e+57
          1725.20690	         9.02285e+57
          1726.01320	         8.01972e+57
          1726.81950	         7.67826e+57
          1727.62580	         7.87828e+57
          1728.43210	         8.20389e+57
          1729.23840	         7.11653e+57
          1730.04470	         8.28038e+57
          1730.85100	         8.63998e+57
          1731.65730	         7.86185e+57
          1732.46360	         7.82691e+57
          1733.26990	         7.51400e+57
          1734.07620	         7.88379e+57
          1734.88250	         9.03408e+57
          1735.68880	         9.01330e+57
          1736.49510	         8.35671e+57
          1737.30140	         7.90401e+57
          1738.10770	         6.54056e+57
          1738.91400	         7.24267e+57
          1739.72030	         7.76830e+57
          1740.52660	         6.10811e+57
          1741.33290	         6.22677e+57
          1742.13920	         6.56372e+57
          1742.94550	         7.07093e+57
          1743.75180	         7.34588e+57
          1744.55810	         7.57185e+57
          1745.36440	         8.07135e+57
          1746.17070	         5.92915e+57
          1746.97700	         5.28970e+57
          1747.78330	         6.95830e+57
          1748.58960	         7.34599e+57
          1749.39590	         6.78778e+57
          1750.20220	         6.19890e+57
          1751.00850	         6.10584e+57
          1751.81480	         6.15793e+57
          1752.62110	         6.97917e+57
          1753.42740	         7.29500e+57
          1754.23370	         6.99334e+57
          1755.04000	         6.47389e+57
          1755.84630	         8.17610e+57
          1756.65260	         9.35760e+57
          1757.45890	         8.69996e+57
          1758.26520	         7.30483e+57
          1759.07150	         9.20148e+57
          1759.87780	         9.10365e+57
          1760.68410	         7.70896e+57
          1761.49040	         7.54005e+57
          1762.29670	         6.06824e+57
          1763.10300	         6.91409e+57
          1763.90930	         7.68531e+57
          1764.71560	         7.98587e+57
          1765.52190	         7.62920e+57
          1766.32820	         8.13050e+57
          1767.13450	         8.07512e+57
          1767.94080	         6.67455e+57
          1768.74710	         7.48741e+57
          1769.55340	         8.11745e+57
          1770.35970	         7.35030e+57
          1771.16600	         6.90432e+57
          1771.97230	         8.63690e+57
          1772.77860	         8.75759e+57
          1773.58490	         7.32767e+57
          1774.39120	         7.10769e+57
          1775.19750	         6.98757e+57
          1776.00380	         6.52501e+57
          1776.81010	         6.69996e+57
          1777.61640	         6.96229e+57
          1778.42270	         8.10651e+57
          1779.22900	         6.91925e+57
          1780.03530	         6.28867e+57
          1780.84160	         7.54744e+57
          1781.64790	         8.05447e+57
          1782.45420	         7.04242e+57
          1783.26050	         6.34124e+57
          1784.06680	         6.87287e+57
          1784.87310	         6.82178e+57
          1785.67940	         7.48941e+57
          1786.48570	         7.65113e+57
          1787.29200	         6.13286e+57
          1788.09830	         6.07325e+57
          1788.90460	         6.18911e+57
          1789.71090	         6.82631e+57
          1790.51720	         5.83000e+57
          1791.32350	         7.36737e+57
          1792.12980	         8.31971e+57
          1792.93610	         7.10203e+57
          1793.74240	         6.82212e+57
          1794.54870	         7.14625e+57
          1795.35500	         7.91865e+57
          1796.16130	         7.04805e+57
          1796.96760	         6.44353e+57
          1797.77390	         7.50108e+57
          1798.58020	         7.01261e+57
          1799.38650	         6.23968e+57
          1800.19280	         6.88740e+57
          1800.99910	         7.90124e+57
          1801.80540	         8.13140e+57
          1802.61170	         7.88399e+57
          1803.41800	         8.26897e+57
          1804.22430	         8.23598e+57
          1805.03060	         8.18274e+57
          1805.83690	         8.47436e+57
          1806.64320	         8.76172e+57
          1807.44950	         7.74958e+57
          1808.25580	         8.25805e+57
          1809.06210	         9.64128e+57
          1809.86840	         8.24188e+57
          1810.67470	         7.61305e+57
          1811.48100	         9.80279e+57
          1812.28730	         9.14326e+57
          1813.09360	         7.25508e+57
          1813.89990	         7.38446e+57
          1814.70620	         6.98066e+57
          1815.51250	         8.04320e+57
          1816.31880	         8.57265e+57
          1817.12510	         8.04580e+57
          1817.93140	         6.61939e+57
          1818.73770	         6.85135e+57
          1819.54400	         7.78367e+57
          1820.35030	         8.83391e+57
          1821.15660	         7.57443e+57
          1821.96290	         6.77673e+57
          1822.76920	         7.39996e+57
          1823.57550	         8.15604e+57
          1824.38180	         6.91691e+57
          1825.18810	         6.99934e+57
          1825.99440	         8.49611e+57
          1826.80070	         8.43121e+57
          1827.60700	         6.43802e+57
          1828.41330	         6.51150e+57
          1829.21960	         6.49419e+57
          1830.02590	         7.42908e+57
          1830.83220	         8.89665e+57
          1831.63850	         8.31651e+57
          1832.44480	         7.76422e+57
          1833.25110	         8.91837e+57
          1834.05740	         8.84230e+57
          1834.86370	         7.19850e+57
          1835.67000	         6.07808e+57
          1836.47630	         6.84127e+57
          1837.28260	         9.51201e+57
          1838.08890	         9.46661e+57
          1838.89520	         8.24116e+57
          1839.70150	         7.88662e+57
          1840.50780	         7.84550e+57
          1841.31410	         7.32993e+57
          1842.12040	         7.67805e+57
          1842.92670	         6.79020e+57
          1843.73300	         6.08668e+57
          1844.53930	         6.66718e+57
          1845.34560	         7.64293e+57
          1846.15190	         7.70792e+57
          1846.95820	         7.59619e+57
          1847.76450	         7.19220e+57
          1848.57080	         5.44836e+57
          1849.37710	         6.16223e+57
          1850.18340	         7.85944e+57
          1850.98970	         7.31473e+57
          1851.79600	         7.33350e+57
          1852.60230	         6.19825e+57
          1853.40860	         7.18287e+57
          1854.21490	         7.86258e+57
          1855.02120	         6.29068e+57
          1855.82750	         4.07458e+57
          1856.63380	         5.36037e+57
          1857.44010	         7.12355e+57
          1858.24640	         6.97122e+57
          1859.05270	         7.38786e+57
          1859.85900	         6.52939e+57
          1860.66530	         6.63480e+57
          1861.47160	         7.27956e+57
          1862.27790	         6.31302e+57
          1863.08420	         7.12407e+57
          1863.89050	         7.38330e+57
          1864.69680	         7.98080e+57
          1865.50310	         7.77628e+57
          1866.30940	         6.36717e+57
          1867.11570	         5.61503e+57
          1867.92200	         7.30637e+57
          1868.72830	         7.50793e+57
          1869.53460	         6.91241e+57
          1870.34090	         7.38673e+57
          1871.14720	         8.28687e+57
          1871.95350	         7.92152e+57
          1872.75980	         8.01262e+57
          1873.56610	         7.57576e+57
          1874.37240	         6.46455e+57
          1875.17870	         6.33776e+57
          1875.98500	         7.31017e+57
          1876.79130	         8.69573e+57
          1877.59760	         6.94995e+57
          1878.40390	         5.83268e+57
          1879.21020	         6.11015e+57
          1880.01650	         6.84214e+57
          1880.82280	         8.11959e+57
          1881.62910	         8.45869e+57
          1882.43540	         9.58158e+57
          1883.24170	         8.23626e+57
          1884.04800	         6.65535e+57
          1884.85430	         6.00361e+57
          1885.66060	         7.31377e+57
          1886.46690	         8.45784e+57
          1887.27320	         8.16242e+57
          1888.07950	         6.14596e+57
          1888.88580	         6.78932e+57
          1889.69210	         9.34889e+57
          1890.49840	         8.49917e+57
          1891.30470	         7.36088e+57
          1892.11100	         8.18442e+57
          1892.91730	         7.77992e+57
          1893.72360	         7.60421e+57
          1894.52990	         8.28764e+57
          1895.33620	         9.04423e+57
          1896.14250	         7.59007e+57
          1896.94880	         6.07145e+57
          1897.75510	         5.01103e+57
          1898.56140	         6.09000e+57
          1899.36770	         8.66084e+57
          1900.17400	         6.97377e+57
          1900.98030	         6.26479e+57
          1901.78660	         7.16722e+57
          1902.59290	         7.80286e+57
          1903.39920	         9.18986e+57
          1904.20550	         9.49073e+57
          1905.01180	         9.45313e+57
          1905.81810	         1.01796e+58
          1906.62440	         1.26627e+58
          1907.43070	         1.54615e+58
          1908.23700	         1.57729e+58
          1909.04330	         1.35233e+58
          1909.84960	         1.13658e+58
          1910.65590	         9.60021e+57
          1911.46220	         8.53436e+57
          1912.26850	         7.58747e+57
          1913.07480	         6.54226e+57
          1913.88110	         5.56906e+57
          1914.68740	         5.59716e+57
          1915.49370	         5.94756e+57
          1916.30000	         6.52849e+57
          1917.10630	         7.30822e+57
          1917.91260	         6.99122e+57
          1918.71890	         7.28189e+57
          1919.52520	         6.87605e+57
          1920.33150	         5.87284e+57
          1921.13780	         7.04101e+57
          1921.94410	         7.99687e+57
          1922.75040	         7.66330e+57
          1923.55670	         7.74919e+57
          1924.36300	         7.27884e+57
          1925.16930	         6.47776e+57
          1925.97560	         5.49991e+57
          1926.78190	         5.61502e+57
          1927.58820	         6.48045e+57
          1928.39450	         6.18900e+57
          1929.20080	         5.58668e+57
          1930.00710	         7.48078e+57
          1930.81340	         8.03134e+57
          1931.61970	         7.16244e+57
          1932.42600	         7.17282e+57
          1933.23230	         8.07489e+57
          1934.03860	         7.40652e+57
          1934.84490	         5.47216e+57
          1935.65120	         7.97686e+57
          1936.45750	         8.95927e+57
          1937.26380	         5.79620e+57
          1938.07010	         5.97186e+57
          1938.87640	         7.07066e+57
          1939.68270	         7.17397e+57
          1940.48900	         8.12164e+57
          1941.29530	         9.14239e+57
          1942.10160	         7.84627e+57
          1942.90790	         7.88623e+57
          1943.71420	         7.14809e+57
          1944.52050	         6.20061e+57
          1945.32680	         6.17436e+57
          1946.13310	         7.55307e+57
          1946.93940	         8.67770e+57
          1947.74570	         7.99259e+57
          1948.55200	         6.39157e+57
          1949.35830	         6.95771e+57
          1950.16460	         6.43310e+57
          1950.97090	         5.89037e+57
          1951.77720	         6.40906e+57
          1952.58350	         7.97477e+57
          1953.38980	         6.37297e+57
          1954.19610	         4.98811e+57
          1955.00240	         5.26015e+57
          1955.80870	         6.05107e+57
          1956.61500	         6.35511e+57
          1957.42130	         5.75995e+57
          1958.22760	         5.72898e+57
          1959.03390	         6.33032e+57
          1959.84020	         7.32648e+57
          1960.64650	         7.13317e+57
          1961.45280	         5.39036e+57
          1962.25910	         4.64933e+57
          1963.06540	         6.32970e+57
          1963.87170	         6.05809e+57
          1964.67800	         6.67897e+57
          1965.48430	         6.45672e+57
          1966.29060	         8.47550e+57
          1967.09690	         8.05652e+57
          1967.90320	         6.95242e+57
          1968.70950	         7.73593e+57
          1969.51580	         7.19698e+57
          1970.32210	         8.68078e+57
          1971.12840	         8.05212e+57
          1971.93470	         5.73648e+57
          1972.74100	         4.72690e+57
          1973.54730	         6.88966e+57
          1974.35360	         7.55295e+57
          1975.15990	         7.73166e+57
          1975.96620	         6.88654e+57
          1976.77250	         7.47632e+57
          1977.57880	         7.97669e+57
          1978.38510	         7.14268e+57
          1979.19140	         6.49844e+57
          1979.99770	         7.58992e+57
          1980.80400	         6.95039e+57
          1981.61030	         6.76302e+57
          1982.41660	         5.78489e+57
          1983.22290	         5.90620e+57
          1984.02920	         5.37622e+57
          1984.83550	         5.41478e+57
          1985.64180	         6.56536e+57
          1986.44810	         6.92703e+57
          1987.25440	         6.80707e+57
          1988.06070	         6.20910e+57
          1988.86700	         6.04875e+57
          1989.67330	         7.06458e+57
          1990.47960	         7.09302e+57
          1991.28590	         6.62020e+57
          1992.09220	         5.99771e+57
          1992.89850	         5.58800e+57
          1993.70480	         5.77171e+57
          1994.51110	         4.72291e+57
          1995.31740	         3.43240e+57
          1996.12370	         4.50301e+57
          1996.93000	         4.74324e+57
          1997.73630	         7.09118e+57
          1998.54260	         8.32314e+57
          1999.34890	         7.58832e+57
          2000.15520	         6.58502e+57
          2000.96150	         6.38678e+57
          2001.76780	         6.18284e+57
          2002.57410	         5.36096e+57
          2003.38040	         6.87058e+57
          2004.18670	         7.18097e+57
          2004.99300	         5.86050e+57
          2005.79930	         6.03575e+57
          2006.60560	         6.47663e+57
          2007.41190	         6.64302e+57
          2008.21820	         6.74053e+57
          2009.02450	         5.92923e+57
          2009.83080	         6.50444e+57
          2010.63710	         7.28724e+57
          2011.44340	         7.27558e+57
          2012.24970	         7.39401e+57
          2013.05600	         6.96407e+57
          2013.86230	         6.56236e+57
          2014.66860	         5.28460e+57
          2015.47490	         6.06324e+57
          2016.28120	         5.62987e+57
          2017.08750	         5.47842e+57
          2017.89380	         6.68189e+57
          2018.70010	         6.51883e+57
          2019.50640	         6.22662e+57
          2020.31270	         6.95891e+57
          2021.11900	         7.47683e+57
          2021.92530	         7.52002e+57
          2022.73160	         7.92939e+57
          2023.53790	         7.89295e+57
          2024.34420	         6.28700e+57
          2025.15050	         4.83515e+57
          2025.95680	         5.06614e+57
          2026.76310	         5.45418e+57
          2027.56940	         6.34022e+57
          2028.37570	         6.11456e+57
          2029.18200	         6.06934e+57
          2029.98830	         5.42075e+57
          2030.79460	         5.85822e+57
          2031.60090	         5.42893e+57
          2032.40720	         5.62682e+57
          2033.21350	         5.16271e+57
          2034.01980	         4.99194e+57
          2034.82610	         4.13570e+57
          2035.63240	         4.66728e+57
          2036.43870	         5.32578e+57
          2037.24500	         6.99392e+57
          2038.05130	         7.13880e+57
          2038.85760	         5.75070e+57
          2039.66390	         6.02359e+57
          2040.47020	         6.20454e+57
          2041.27650	         6.12811e+57
          2042.08280	         6.53090e+57
          2042.88910	         6.79050e+57
          2043.69540	         5.86180e+57
          2044.50170	         5.58752e+57
          2045.30800	         4.63183e+57
          2046.11430	         3.50790e+57
          2046.92060	         5.79750e+57
          2047.72690	         6.93097e+57
          2048.53320	         6.11400e+57
          2049.33950	         4.94493e+57
          2050.14580	         7.26742e+57
          2050.95210	         7.25419e+57
          2051.75840	         6.20661e+57
          2052.56470	         4.39302e+57
          2053.37100	         3.94838e+57
          2054.17730	         4.57222e+57
          2054.98360	         4.00803e+57
          2055.78990	         2.31914e+57
          2056.59620	         2.73536e+57
          2057.40250	         5.87443e+57
          2058.20880	         8.16502e+57
          2059.01510	         7.18580e+57
          2059.82140	         7.26534e+57
          2060.62770	         1.07138e+58
          2061.43400	         1.40899e+58
          2062.24030	         1.08783e+58
          2063.04660	         3.27368e+57
          2063.85290	         1.46696e+57
          2064.65920	        -1.72670e+57
          2065.46550	        -9.70213e+57
          2066.27180	        -7.50497e+57
          2067.07810	         3.15413e+57
          2067.88440	         6.72237e+57
          2068.69070	         6.31771e+57
          2069.49700	         5.24167e+57
          2070.30330	         3.78536e+57
          2071.10960	         4.86283e+57
          2071.91590	         5.96857e+57
          2072.72220	         4.55736e+57
          2073.52850	         5.37891e+57
          2074.33480	         6.29032e+57
          2075.14110	         5.65934e+57
          2075.94740	         4.55672e+57
          2076.75370	         4.86810e+57
          2077.56000	         4.99538e+57
          2078.36630	         4.67246e+57
          2079.17260	         5.17730e+57
          2079.97890	         6.30263e+57
          2080.78520	         4.72159e+57
          2081.59150	         4.91280e+57
          2082.39780	         4.28325e+57
          2083.20410	         2.89113e+57
          2084.01040	         2.44294e+57
          2084.81670	         4.02469e+57
          2085.62300	         5.38598e+57
          2086.42930	         3.62060e+57
          2087.23560	         3.41559e+57
          2088.04190	         4.09930e+57
          2088.84820	         3.19742e+57
          2089.65450	         1.62331e+57
          2090.46080	         1.95220e+57
          2091.26710	         3.04946e+57
          2092.07340	         3.12191e+57
          2092.87970	         3.54103e+57
          2093.68600	        -4.63321e+56
          2094.49230	         1.74963e+57
          2095.29860	         5.73593e+57
          2096.10490	         5.68066e+57
          2096.91120	         4.55583e+57
          2097.71750	         5.15995e+56
          2098.52380	         2.23798e+57
          2099.33010	         2.35964e+57
          2100.13640	         1.65654e+57
          2100.94270	         2.04898e+57
          2101.74900	         2.52082e+57
          2102.55530	         3.28385e+57
          2103.36160	         2.31680e+57
          2104.16790	         1.55310e+57
          2104.97420	         1.77902e+57
          2105.78050	         2.91516e+57
          2106.58680	         2.51110e+57
          2107.39310	        -1.67031e+56
          2108.19940	         4.44964e+56
          2109.00570	        -1.57584e+57
          2109.81200	        -9.34740e+56
          2110.61830	         2.38531e+57
          2111.42460	         4.27644e+56
          2112.23090	         1.91799e+57
          2113.03720	         3.18510e+56
          2113.84350	        -4.27390e+56
          2114.64980	        -2.74676e+55
          2115.45610	        -2.59011e+57
          2116.26240	        -2.21540e+57
          2117.06870	        -4.44261e+56
          2117.87500	        -2.85596e+57
          2118.68130	        -2.78818e+56
          2119.48760	        -1.19003e+57
          2120.29390	        -2.55759e+57
          2121.10020	        -2.49320e+57
          2121.90650	        -1.20849e+56
          2122.71280	         2.57733e+57
          2123.51910	         5.14681e+57
          2124.32540	         1.60667e+57
          2125.13170	        -1.44361e+57
          2125.93800	         4.13939e+57
          2126.74430	        -1.40764e+57
          2127.55060	        -5.41299e+57
          2128.35690	        -5.50455e+57
          2129.16320	        -7.45986e+57
          2129.96950	        -3.59773e+57
          2130.77580	        -1.09651e+57
          2131.58210	         2.57630e+57
          2132.38840	        -8.62490e+56
          2133.19470	         2.65174e+57
          2134.00100	         4.70206e+57
          2134.80730	        -1.35739e+57
          2135.61360	        -2.68354e+57
          2136.41990	         2.66800e+57
          2137.22620	         9.94565e+57
          2138.03250	        -2.68957e+57
          2138.83880	        -2.61736e+57
          2139.64510	         4.47990e+57
          2140.45140	        -6.72648e+57
          2141.25770	        -1.06585e+58
          2142.06400	        -1.15908e+58
          2142.87030	        -4.49042e+57
          2143.67660	         7.24824e+57
          2144.48290	         7.14809e+56
          2145.28920	         5.41043e+57
          2146.09550	        -4.68821e+57
          2146.90180	        -8.52646e+57
          2147.70810	        -4.38640e+57
          2148.51440	        -8.23673e+57
          2149.32070	        -1.42530e+58
          2150.12700	        -1.21896e+58
          2150.93330	        -4.25955e+57
          2151.73960	         2.76857e+57
          2152.54590	         5.28237e+56
          2153.35220	         2.38822e+57
          2154.15850	         3.46520e+57
          2154.96480	         9.31961e+57
          2155.77110	        -1.27373e+57
          2156.57740	        -2.26837e+58
          2157.38370	        -1.67280e+57
          2158.19000	        -5.12420e+57
          2158.99630	        -1.51035e+57
          2159.80260	        -9.31856e+57
          2160.60890	        -6.68580e+57
          2161.41520	        -2.07501e+56
          2162.22150	         2.68369e+57
          2163.02780	         5.75304e+56
          2163.83410	        -7.81366e+57
          2164.64040	        -4.14643e+57
          2165.44670	        -1.32440e+58
          2166.25300	        -1.10966e+58
          2167.05930	        -1.05654e+58
          2167.86560	        -1.62151e+58
          2168.67190	        -8.64695e+57
          2169.47820	        -2.81529e+57
          2170.28450	        -7.24153e+57
          2171.09080	         1.51259e+56
          2171.89710	        -3.61105e+57
          2172.70340	         1.96508e+56
          2173.50970	        -7.43553e+57
          2174.31600	        -5.11780e+57
          2175.12230	         1.80769e+57
          2175.92860	        -2.13200e+57
          2176.73490	        -1.43326e+57
          2177.54120	        -9.12929e+57
          2178.34750	        -5.34974e+57
          2179.15380	                 nan
          2179.96010	                 nan
          2180.76640	                 nan
          2181.57270	                 nan
          2182.37900	                 nan
          2183.18530	                 nan
          2183.99160	                 nan
          2184.79790	                 nan
          2185.60420	                 nan
          2186.41050	                 nan
          2187.21680	                 nan
          2188.02310	                 nan
          2188.82940	                 nan
          2189.63570	                 nan
          2190.44200	                 nan
          2191.24830	                 nan
          2192.05460	                 nan
          2192.86090	                 nan
          2193.66720	                 nan
          2194.47350	                 nan
          2195.27980	                 nan
          2196.08610	                 nan
          2196.89240	                 nan
          2197.69870	                 nan
          2198.50500	                 nan
          2199.31130	                 nan
          2200.11760	                 nan
          2200.92390	                 nan
          2201.73020	                 nan
          2202.53650	                 nan
          2203.34280	                 nan
          2204.14910	                 nan
          2204.95540	                 nan
          2205.76170	                 nan
          2206.56800	                 nan
          2207.37430	                 nan
          2208.18060	                 nan
          2208.98690	                 nan
          2209.79320	                 nan
          2210.59950	                 nan
          2211.40580	                 nan
          2212.21210	                 nan
          2213.01840	                 nan
          2213.82470	                 nan
          2214.63100	                 nan
          2215.43730	         0.00000e+00
