#sample_206_stacked_spectrum_rest_UV-bands_median_H-alpha_noDC.txt
#median Lum: 1.66209e+42
#Rest-frame wavelength (A) | Luminosity (erg/s/A)
#
          1110.00000	         0.00000e+00
          1110.80630	         1.10469e+59
          1111.61260	         5.03539e+59
          1112.41890	         3.87182e+59
          1113.22520	        -1.47538e+59
          1114.03150	        -3.48810e+59
          1114.83780	        -1.86879e+59
          1115.64410	         1.91377e+57
          1116.45040	         3.11457e+59
          1117.25670	         1.41329e+59
          1118.06300	         2.40316e+58
          1118.86930	        -2.59137e+58
          1119.67560	         3.17381e+58
          1120.48190	         5.65819e+58
          1121.28820	        -9.98551e+58
          1122.09450	         1.75259e+58
          1122.90080	        -2.71006e+58
          1123.70710	         3.94724e+58
          1124.51340	         5.23862e+58
          1125.31970	         2.30225e+58
          1126.12600	        -4.32434e+57
          1126.93230	        -5.00673e+58
          1127.73860	        -1.07075e+59
          1128.54490	        -1.04809e+58
          1129.35120	         3.11748e+58
          1130.15750	        -2.53521e+58
          1130.96380	        -3.72676e+58
          1131.77010	         1.93270e+58
          1132.57640	         1.04383e+58
          1133.38270	         3.57155e+58
          1134.18900	         1.00628e+58
          1134.99530	        -1.36702e+57
          1135.80160	         1.28092e+58
          1136.60790	         2.17456e+58
          1137.41420	        -1.03463e+58
          1138.22050	         2.80989e+58
          1139.02680	         3.85449e+58
          1139.83310	         2.52856e+58
          1140.63940	         1.02279e+58
          1141.44570	        -1.08236e+58
          1142.25200	         1.18996e+58
          1143.05830	         2.20561e+58
          1143.86460	         3.09272e+58
          1144.67090	         3.32208e+58
          1145.47720	         9.38020e+57
          1146.28350	         1.12781e+58
          1147.08980	         1.67154e+58
          1147.89610	         1.26186e+58
          1148.70240	         3.09884e+58
          1149.50870	         2.34569e+58
          1150.31500	         8.13162e+57
          1151.12130	         7.37952e+57
          1151.92760	         1.04932e+58
          1152.73390	         8.07010e+57
          1153.54020	         7.82184e+57
          1154.34650	         2.56464e+58
          1155.15280	         2.09195e+58
          1155.95910	         1.60277e+58
          1156.76540	         8.79725e+57
          1157.57170	        -1.32511e+58
          1158.37800	        -1.06535e+58
          1159.18430	        -5.71544e+57
          1159.99060	        -3.44696e+57
          1160.79690	        -1.02789e+56
          1161.60320	         2.12058e+58
          1162.40950	         9.65860e+57
          1163.21580	         2.18219e+58
          1164.02210	         5.83411e+57
          1164.82840	         1.16785e+58
          1165.63470	         1.87130e+58
          1166.44100	         3.26548e+58
          1167.24730	         2.21748e+58
          1168.05360	         9.31920e+57
          1168.85990	         1.22786e+58
          1169.66620	         1.64422e+58
          1170.47250	         1.30958e+58
          1171.27880	         9.03583e+57
          1172.08510	         1.40741e+58
          1172.89140	         1.25369e+58
          1173.69770	         4.71900e+57
          1174.50400	         9.48061e+57
          1175.31030	         1.10780e+58
          1176.11660	         1.90035e+58
          1176.92290	         1.49018e+58
          1177.72920	         1.45191e+58
          1178.53550	         6.36069e+57
          1179.34180	         5.68243e+57
          1180.14810	         5.21522e+57
          1180.95440	         6.34490e+57
          1181.76070	         4.24468e+57
          1182.56700	         6.93860e+57
          1183.37330	         7.97879e+57
          1184.17960	         1.36006e+58
          1184.98590	         1.67482e+58
          1185.79220	         7.44205e+57
          1186.59850	         1.02111e+58
          1187.40480	         1.43030e+58
          1188.21110	         1.82854e+58
          1189.01740	         9.66924e+57
          1189.82370	         1.11962e+58
          1190.63000	         1.19143e+58
          1191.43630	         1.04755e+58
          1192.24260	         6.98927e+57
          1193.04890	         1.18812e+58
          1193.85520	         9.51191e+57
          1194.66150	         9.96918e+57
          1195.46780	         1.54312e+58
          1196.27410	         1.65802e+58
          1197.08040	         9.13304e+57
          1197.88670	         1.34212e+58
          1198.69300	         1.58565e+58
          1199.49930	         8.99511e+57
          1200.30560	         8.77939e+57
          1201.11190	         1.48935e+58
          1201.91820	         7.67438e+57
          1202.72450	         4.44341e+57
          1203.53080	         1.49772e+58
          1204.33710	         5.90207e+57
          1205.14340	         8.76338e+57
          1205.94970	         9.06061e+57
          1206.75600	         7.44955e+57
          1207.56230	         8.82136e+57
          1208.36860	         1.03910e+58
          1209.17490	         7.05932e+57
          1209.98120	         7.31735e+57
          1210.78750	         7.79861e+57
          1211.59380	         1.13428e+58
          1212.40010	         1.75518e+58
          1213.20640	         1.74627e+58
          1214.01270	         1.95292e+58
          1214.81900	         2.58156e+58
          1215.62530	         4.53867e+58
          1216.43160	         9.17655e+58
          1217.23790	         1.50590e+59
          1218.04420	         1.16034e+59
          1218.85050	         8.95582e+58
          1219.65680	         5.80717e+58
          1220.46310	         3.15443e+58
          1221.26940	         2.17416e+58
          1222.07570	         1.34562e+58
          1222.88200	         1.06260e+58
          1223.68830	         1.05895e+58
          1224.49460	         5.93599e+57
          1225.30090	         6.96091e+57
          1226.10720	         5.30753e+57
          1226.91350	         6.44778e+57
          1227.71980	         6.19644e+57
          1228.52610	         1.17201e+58
          1229.33240	         1.23841e+58
          1230.13870	         1.13950e+58
          1230.94500	         1.01503e+58
          1231.75130	         7.46655e+57
          1232.55760	         8.83318e+57
          1233.36390	         9.81440e+57
          1234.17020	         9.81499e+57
          1234.97650	         8.89027e+57
          1235.78280	         8.96593e+57
          1236.58910	         9.43952e+57
          1237.39540	         9.08808e+57
          1238.20170	         8.80822e+57
          1239.00800	         1.33727e+58
          1239.81430	         1.57508e+58
          1240.62060	         1.26193e+58
          1241.42690	         1.04437e+58
          1242.23320	         1.07481e+58
          1243.03950	         8.17072e+57
          1243.84580	         6.31417e+57
          1244.65210	         8.83387e+57
          1245.45840	         1.01895e+58
          1246.26470	         8.76684e+57
          1247.07100	         8.11392e+57
          1247.87730	         9.63854e+57
          1248.68360	         6.10306e+57
          1249.48990	         1.04981e+58
          1250.29620	         1.03882e+58
          1251.10250	         4.34658e+57
          1251.90880	         1.84656e+57
          1252.71510	         3.23970e+57
          1253.52140	         7.07833e+57
          1254.32770	         1.24246e+58
          1255.13400	         1.37597e+58
          1255.94030	         1.11461e+58
          1256.74660	         9.07306e+57
          1257.55290	         1.06572e+58
          1258.35920	         9.68445e+57
          1259.16550	         5.08532e+57
          1259.97180	         3.84263e+57
          1260.77810	         7.18522e+57
          1261.58440	         1.14686e+58
          1262.39070	         9.21188e+57
          1263.19700	         7.81135e+57
          1264.00330	         9.80913e+57
          1264.80960	         1.11822e+58
          1265.61590	         1.33072e+58
          1266.42220	         1.41171e+58
          1267.22850	         1.04954e+58
          1268.03480	         1.33171e+58
          1268.84110	         1.78465e+58
          1269.64740	         1.52128e+58
          1270.45370	         1.33171e+58
          1271.26000	         1.16463e+58
          1272.06630	         1.18329e+58
          1272.87260	         1.29868e+58
          1273.67890	         1.63091e+58
          1274.48520	         1.47155e+58
          1275.29150	         1.35908e+58
          1276.09780	         1.20542e+58
          1276.90410	         1.29063e+58
          1277.71040	         1.29287e+58
          1278.51670	         1.31174e+58
          1279.32300	         1.50459e+58
          1280.12930	         1.40697e+58
          1280.93560	         1.28052e+58
          1281.74190	         1.27319e+58
          1282.54820	         1.43346e+58
          1283.35450	         1.26520e+58
          1284.16080	         9.33180e+57
          1284.96710	         1.06035e+58
          1285.77340	         1.23819e+58
          1286.57970	         1.35077e+58
          1287.38600	         1.58726e+58
          1288.19230	         1.84726e+58
          1288.99860	         1.49534e+58
          1289.80490	         1.08783e+58
          1290.61120	         1.38130e+58
          1291.41750	         1.57665e+58
          1292.22380	         1.20206e+58
          1293.03010	         9.89326e+57
          1293.83640	         1.03949e+58
          1294.64270	         8.65807e+57
          1295.44900	         6.31051e+57
          1296.25530	         7.69609e+57
          1297.06160	         9.70238e+57
          1297.86790	         1.10887e+58
          1298.67420	         9.13029e+57
          1299.48050	         9.59650e+57
          1300.28680	         1.14752e+58
          1301.09310	         8.53644e+57
          1301.89940	         4.71919e+57
          1302.70570	         7.51240e+57
          1303.51200	         9.79136e+57
          1304.31830	         1.02572e+58
          1305.12460	         1.03426e+58
          1305.93090	         1.18066e+58
          1306.73720	         1.35411e+58
          1307.54350	         1.43882e+58
          1308.34980	         1.37387e+58
          1309.15610	         1.49620e+58
          1309.96240	         1.53688e+58
          1310.76870	         1.30732e+58
          1311.57500	         1.28320e+58
          1312.38130	         1.29784e+58
          1313.18760	         1.49403e+58
          1313.99390	         1.66670e+58
          1314.80020	         1.65405e+58
          1315.60650	         1.48553e+58
          1316.41280	         1.28891e+58
          1317.21910	         1.09120e+58
          1318.02540	         1.27840e+58
          1318.83170	         1.31477e+58
          1319.63800	         1.13851e+58
          1320.44430	         1.07712e+58
          1321.25060	         1.16946e+58
          1322.05690	         1.37941e+58
          1322.86320	         1.21735e+58
          1323.66950	         1.01408e+58
          1324.47580	         9.92607e+57
          1325.28210	         9.77902e+57
          1326.08840	         1.12670e+58
          1326.89470	         1.35750e+58
          1327.70100	         1.18385e+58
          1328.50730	         1.08338e+58
          1329.31360	         1.08948e+58
          1330.11990	         9.11438e+57
          1330.92620	         8.86228e+57
          1331.73250	         1.25634e+58
          1332.53880	         1.06680e+58
          1333.34510	         8.07840e+57
          1334.15140	         8.00279e+57
          1334.95770	         9.36299e+57
          1335.76400	         9.94006e+57
          1336.57030	         8.96055e+57
          1337.37660	         9.79381e+57
          1338.18290	         1.12803e+58
          1338.98920	         1.22100e+58
          1339.79550	         1.18578e+58
          1340.60180	         1.23474e+58
          1341.40810	         1.30765e+58
          1342.21440	         1.24102e+58
          1343.02070	         1.28435e+58
          1343.82700	         1.30059e+58
          1344.63330	         1.36927e+58
          1345.43960	         1.46871e+58
          1346.24590	         1.17222e+58
          1347.05220	         1.21421e+58
          1347.85850	         1.16676e+58
          1348.66480	         1.15819e+58
          1349.47110	         1.19832e+58
          1350.27740	         1.14589e+58
          1351.08370	         1.12133e+58
          1351.89000	         1.02945e+58
          1352.69630	         1.00632e+58
          1353.50260	         1.13852e+58
          1354.30890	         1.25472e+58
          1355.11520	         1.31119e+58
          1355.92150	         1.03385e+58
          1356.72780	         9.73670e+57
          1357.53410	         1.00831e+58
          1358.34040	         1.04426e+58
          1359.14670	         1.22679e+58
          1359.95300	         1.24945e+58
          1360.75930	         1.08780e+58
          1361.56560	         1.03686e+58
          1362.37190	         1.04601e+58
          1363.17820	         1.17269e+58
          1363.98450	         1.25623e+58
          1364.79080	         1.18385e+58
          1365.59710	         1.13251e+58
          1366.40340	         1.17889e+58
          1367.20970	         1.03309e+58
          1368.01600	         1.02146e+58
          1368.82230	         1.02313e+58
          1369.62860	         1.09538e+58
          1370.43490	         1.00223e+58
          1371.24120	         9.21191e+57
          1372.04750	         7.72718e+57
          1372.85380	         8.89968e+57
          1373.66010	         1.17060e+58
          1374.46640	         1.27135e+58
          1375.27270	         1.09010e+58
          1376.07900	         8.63295e+57
          1376.88530	         7.42553e+57
          1377.69160	         8.14503e+57
          1378.49790	         7.28083e+57
          1379.30420	         8.31434e+57
          1380.11050	         1.05279e+58
          1380.91680	         8.35691e+57
          1381.72310	         6.35510e+57
          1382.52940	         7.37740e+57
          1383.33570	         7.97158e+57
          1384.14200	         8.40144e+57
          1384.94830	         1.08418e+58
          1385.75460	         1.15109e+58
          1386.56090	         1.17461e+58
          1387.36720	         1.15490e+58
          1388.17350	         1.40146e+58
          1388.97980	         1.20174e+58
          1389.78610	         8.61843e+57
          1390.59240	         7.64887e+57
          1391.39870	         6.13148e+57
          1392.20500	         7.45567e+57
          1393.01130	         7.44893e+57
          1393.81760	         6.81978e+57
          1394.62390	         6.78104e+57
          1395.43020	         6.01816e+57
          1396.23650	         6.50979e+57
          1397.04280	         6.29554e+57
          1397.84910	         7.36868e+57
          1398.65540	         8.02195e+57
          1399.46170	         8.81076e+57
          1400.26800	         7.63166e+57
          1401.07430	         7.85164e+57
          1401.88060	         8.84512e+57
          1402.68690	         1.02431e+58
          1403.49320	         1.04103e+58
          1404.29950	         9.78456e+57
          1405.10580	         1.10409e+58
          1405.91210	         1.12173e+58
          1406.71840	         9.70328e+57
          1407.52470	         9.40939e+57
          1408.33100	         9.60665e+57
          1409.13730	         1.13286e+58
          1409.94360	         1.30049e+58
          1410.74990	         1.35360e+58
          1411.55620	         9.84604e+57
          1412.36250	         8.50943e+57
          1413.16880	         9.09901e+57
          1413.97510	         8.18350e+57
          1414.78140	         6.94215e+57
          1415.58770	         8.42046e+57
          1416.39400	         1.03810e+58
          1417.20030	         1.01601e+58
          1418.00660	         9.84907e+57
          1418.81290	         9.81754e+57
          1419.61920	         1.07200e+58
          1420.42550	         1.23630e+58
          1421.23180	         1.39400e+58
          1422.03810	         1.23611e+58
          1422.84440	         1.10111e+58
          1423.65070	         1.25205e+58
          1424.45700	         1.16108e+58
          1425.26330	         9.06985e+57
          1426.06960	         9.39728e+57
          1426.87590	         1.08263e+58
          1427.68220	         1.02613e+58
          1428.48850	         1.10711e+58
          1429.29480	         1.10147e+58
          1430.10110	         1.06717e+58
          1430.90740	         1.00273e+58
          1431.71370	         8.58940e+57
          1432.52000	         7.14414e+57
          1433.32630	         7.39684e+57
          1434.13260	         7.74912e+57
          1434.93890	         7.98022e+57
          1435.74520	         8.91111e+57
          1436.55150	         1.01438e+58
          1437.35780	         9.21956e+57
          1438.16410	         8.96768e+57
          1438.97040	         8.84994e+57
          1439.77670	         7.98786e+57
          1440.58300	         8.68509e+57
          1441.38930	         9.52938e+57
          1442.19560	         9.72481e+57
          1443.00190	         1.04175e+58
          1443.80820	         1.19138e+58
          1444.61450	         1.02086e+58
          1445.42080	         8.99820e+57
          1446.22710	         1.08944e+58
          1447.03340	         9.75706e+57
          1447.83970	         9.74817e+57
          1448.64600	         1.14432e+58
          1449.45230	         1.16496e+58
          1450.25860	         1.07880e+58
          1451.06490	         8.51652e+57
          1451.87120	         7.47018e+57
          1452.67750	         8.12394e+57
          1453.48380	         9.98595e+57
          1454.29010	         7.80941e+57
          1455.09640	         6.53219e+57
          1455.90270	         8.62389e+57
          1456.70900	         9.03046e+57
          1457.51530	         9.84315e+57
          1458.32160	         1.15946e+58
          1459.12790	         1.18219e+58
          1459.93420	         1.04537e+58
          1460.74050	         8.34549e+57
          1461.54680	         8.45293e+57
          1462.35310	         7.83021e+57
          1463.15940	         9.66050e+57
          1463.96570	         1.08207e+58
          1464.77200	         1.24618e+58
          1465.57830	         1.21430e+58
          1466.38460	         9.66079e+57
          1467.19090	         8.67228e+57
          1467.99720	         8.81198e+57
          1468.80350	         9.58560e+57
          1469.60980	         8.86867e+57
          1470.41610	         1.06000e+58
          1471.22240	         1.02874e+58
          1472.02870	         9.83703e+57
          1472.83500	         9.77552e+57
          1473.64130	         1.07627e+58
          1474.44760	         1.17666e+58
          1475.25390	         1.08015e+58
          1476.06020	         8.72927e+57
          1476.86650	         7.78805e+57
          1477.67280	         7.60725e+57
          1478.47910	         6.42796e+57
          1479.28540	         8.18724e+57
          1480.09170	         9.44800e+57
          1480.89800	         8.54943e+57
          1481.70430	         8.55981e+57
          1482.51060	         8.37260e+57
          1483.31690	         7.30681e+57
          1484.12320	         7.29528e+57
          1484.92950	         7.71784e+57
          1485.73580	         8.46928e+57
          1486.54210	         8.33047e+57
          1487.34840	         8.60281e+57
          1488.15470	         9.25387e+57
          1488.96100	         9.47349e+57
          1489.76730	         9.96087e+57
          1490.57360	         9.18401e+57
          1491.37990	         8.32934e+57
          1492.18620	         9.11860e+57
          1492.99250	         7.85734e+57
          1493.79880	         7.82430e+57
          1494.60510	         7.65710e+57
          1495.41140	         6.87544e+57
          1496.21770	         7.33306e+57
          1497.02400	         9.82376e+57
          1497.83030	         9.39332e+57
          1498.63660	         7.47477e+57
          1499.44290	         7.25060e+57
          1500.24920	         7.17636e+57
          1501.05550	         8.38954e+57
          1501.86180	         8.99667e+57
          1502.66810	         8.79104e+57
          1503.47440	         9.11259e+57
          1504.28070	         8.85491e+57
          1505.08700	         9.05649e+57
          1505.89330	         9.07295e+57
          1506.69960	         7.96963e+57
          1507.50590	         7.72350e+57
          1508.31220	         8.73310e+57
          1509.11850	         8.83799e+57
          1509.92480	         9.07900e+57
          1510.73110	         9.02902e+57
          1511.53740	         7.87393e+57
          1512.34370	         7.48551e+57
          1513.15000	         8.63052e+57
          1513.95630	         9.62659e+57
          1514.76260	         7.99045e+57
          1515.56890	         7.22795e+57
          1516.37520	         8.68228e+57
          1517.18150	         8.44001e+57
          1517.98780	         7.10395e+57
          1518.79410	         7.03928e+57
          1519.60040	         7.99830e+57
          1520.40670	         9.82228e+57
          1521.21300	         9.24436e+57
          1522.01930	         8.63839e+57
          1522.82560	         9.33169e+57
          1523.63190	         1.00727e+58
          1524.43820	         9.02765e+57
          1525.24450	         7.22753e+57
          1526.05080	         6.35052e+57
          1526.85710	         6.53689e+57
          1527.66340	         6.70063e+57
          1528.46970	         7.65860e+57
          1529.27600	         7.83552e+57
          1530.08230	         8.02604e+57
          1530.88860	         7.78255e+57
          1531.69490	         8.21913e+57
          1532.50120	         8.08815e+57
          1533.30750	         9.04475e+57
          1534.11380	         1.01215e+58
          1534.92010	         9.74317e+57
          1535.72640	         1.03158e+58
          1536.53270	         9.99343e+57
          1537.33900	         8.97269e+57
          1538.14530	         9.77599e+57
          1538.95160	         9.90378e+57
          1539.75790	         9.13986e+57
          1540.56420	         8.46348e+57
          1541.37050	         8.26707e+57
          1542.17680	         6.63384e+57
          1542.98310	         5.91707e+57
          1543.78940	         6.45032e+57
          1544.59570	         6.99860e+57
          1545.40200	         7.31733e+57
          1546.20830	         9.38786e+57
          1547.01460	         1.10458e+58
          1547.82090	         1.13000e+58
          1548.62720	         1.20366e+58
          1549.43350	         1.14643e+58
          1550.23980	         1.14862e+58
          1551.04610	         1.29901e+58
          1551.85240	         1.21178e+58
          1552.65870	         1.08167e+58
          1553.46500	         1.08699e+58
          1554.27130	         1.06638e+58
          1555.07760	         9.45304e+57
          1555.88390	         9.04602e+57
          1556.69020	         9.43707e+57
          1557.49650	         9.23570e+57
          1558.30280	         8.54295e+57
          1559.10910	         8.25840e+57
          1559.91540	         9.03805e+57
          1560.72170	         9.17067e+57
          1561.52800	         9.12163e+57
          1562.33430	         8.88480e+57
          1563.14060	         7.99239e+57
          1563.94690	         8.18497e+57
          1564.75320	         8.40819e+57
          1565.55950	         7.17981e+57
          1566.36580	         7.33275e+57
          1567.17210	         9.06251e+57
          1567.97840	         9.30292e+57
          1568.78470	         8.75282e+57
          1569.59100	         8.53119e+57
          1570.39730	         8.16053e+57
          1571.20360	         7.06458e+57
          1572.00990	         7.30503e+57
          1572.81620	         8.85941e+57
          1573.62250	         1.07656e+58
          1574.42880	         9.80014e+57
          1575.23510	         7.81513e+57
          1576.04140	         9.13607e+57
          1576.84770	         1.03046e+58
          1577.65400	         1.02877e+58
          1578.46030	         1.06651e+58
          1579.26660	         1.01607e+58
          1580.07290	         9.82253e+57
          1580.87920	         9.05947e+57
          1581.68550	         7.58743e+57
          1582.49180	         7.87980e+57
          1583.29810	         8.30981e+57
          1584.10440	         8.38924e+57
          1584.91070	         8.96370e+57
          1585.71700	         9.13175e+57
          1586.52330	         8.63660e+57
          1587.32960	         8.72867e+57
          1588.13590	         9.06025e+57
          1588.94220	         8.52012e+57
          1589.74850	         9.47854e+57
          1590.55480	         9.52875e+57
          1591.36110	         9.56937e+57
          1592.16740	         9.72123e+57
          1592.97370	         8.26489e+57
          1593.78000	         9.41483e+57
          1594.58630	         9.85822e+57
          1595.39260	         8.75055e+57
          1596.19890	         8.41766e+57
          1597.00520	         9.35980e+57
          1597.81150	         8.85394e+57
          1598.61780	         7.21462e+57
          1599.42410	         7.95007e+57
          1600.23040	         7.83504e+57
          1601.03670	         7.13665e+57
          1601.84300	         8.09156e+57
          1602.64930	         9.35899e+57
          1603.45560	         8.78706e+57
          1604.26190	         7.29663e+57
          1605.06820	         7.90689e+57
          1605.87450	         7.53819e+57
          1606.68080	         6.84420e+57
          1607.48710	         6.82518e+57
          1608.29340	         6.14021e+57
          1609.09970	         6.67027e+57
          1609.90600	         7.71734e+57
          1610.71230	         6.35983e+57
          1611.51860	         5.87156e+57
          1612.32490	         5.47196e+57
          1613.13120	         7.31607e+57
          1613.93750	         8.81463e+57
          1614.74380	         8.47904e+57
          1615.55010	         8.07472e+57
          1616.35640	         8.35157e+57
          1617.16270	         1.01600e+58
          1617.96900	         1.05915e+58
          1618.77530	         8.64981e+57
          1619.58160	         8.33122e+57
          1620.38790	         8.24810e+57
          1621.19420	         8.45578e+57
          1622.00050	         8.53483e+57
          1622.80680	         8.61550e+57
          1623.61310	         8.54872e+57
          1624.41940	         8.63122e+57
          1625.22570	         1.07568e+58
          1626.03200	         1.04837e+58
          1626.83830	         8.04899e+57
          1627.64460	         7.43871e+57
          1628.45090	         6.72677e+57
          1629.25720	         1.01011e+58
          1630.06350	         1.07681e+58
          1630.86980	         6.35993e+57
          1631.67610	         7.47577e+57
          1632.48240	         8.44974e+57
          1633.28870	         8.41404e+57
          1634.09500	         1.02405e+58
          1634.90130	         1.09540e+58
          1635.70760	         8.77950e+57
          1636.51390	         7.51510e+57
          1637.32020	         6.90511e+57
          1638.12650	         8.42482e+57
          1638.93280	         1.00224e+58
          1639.73910	         1.09917e+58
          1640.54540	         1.02899e+58
          1641.35170	         9.12230e+57
          1642.15800	         1.00907e+58
          1642.96430	         1.00520e+58
          1643.77060	         9.28112e+57
          1644.57690	         7.97844e+57
          1645.38320	         7.98676e+57
          1646.18950	         8.12757e+57
          1646.99580	         8.98654e+57
          1647.80210	         8.59407e+57
          1648.60840	         8.38180e+57
          1649.41470	         9.36824e+57
          1650.22100	         7.59197e+57
          1651.02730	         7.24677e+57
          1651.83360	         7.35191e+57
          1652.63990	         7.75765e+57
          1653.44620	         8.98432e+57
          1654.25250	         8.02475e+57
          1655.05880	         7.69287e+57
          1655.86510	         8.02252e+57
          1656.67140	         7.85241e+57
          1657.47770	         8.50897e+57
          1658.28400	         8.59828e+57
          1659.09030	         8.67040e+57
          1659.89660	         9.20321e+57
          1660.70290	         1.03555e+58
          1661.50920	         1.00030e+58
          1662.31550	         9.00617e+57
          1663.12180	         8.77191e+57
          1663.92810	         1.01100e+58
          1664.73440	         1.15643e+58
          1665.54070	         1.15786e+58
          1666.34700	         1.23664e+58
          1667.15330	         1.16805e+58
          1667.95960	         8.75550e+57
          1668.76590	         6.66356e+57
          1669.57220	         6.40913e+57
          1670.37850	         6.88546e+57
          1671.18480	         8.19255e+57
          1671.99110	         8.90363e+57
          1672.79740	         7.00803e+57
          1673.60370	         6.00787e+57
          1674.41000	         7.19899e+57
          1675.21630	         7.72358e+57
          1676.02260	         7.52811e+57
          1676.82890	         6.94505e+57
          1677.63520	         6.99133e+57
          1678.44150	         7.68702e+57
          1679.24780	         8.18870e+57
          1680.05410	         7.50730e+57
          1680.86040	         6.50931e+57
          1681.66670	         7.53124e+57
          1682.47300	         8.94353e+57
          1683.27930	         8.32218e+57
          1684.08560	         7.80612e+57
          1684.89190	         7.44147e+57
          1685.69820	         4.32691e+57
          1686.50450	         4.26376e+57
          1687.31080	         6.37273e+57
          1688.11710	         7.96426e+57
          1688.92340	         7.77353e+57
          1689.72970	         7.40201e+57
          1690.53600	         7.06690e+57
          1691.34230	         7.30128e+57
          1692.14860	         7.97546e+57
          1692.95490	         7.42475e+57
          1693.76120	         7.25902e+57
          1694.56750	         7.06123e+57
          1695.37380	         7.94212e+57
          1696.18010	         9.10055e+57
          1696.98640	         9.50688e+57
          1697.79270	         8.57260e+57
          1698.59900	         8.31626e+57
          1699.40530	         6.67363e+57
          1700.21160	         7.29196e+57
          1701.01790	         8.99665e+57
          1701.82420	         8.15669e+57
          1702.63050	         7.96111e+57
          1703.43680	         7.86329e+57
          1704.24310	         8.75419e+57
          1705.04940	         8.83594e+57
          1705.85570	         7.89928e+57
          1706.66200	         7.63120e+57
          1707.46830	         6.88435e+57
          1708.27460	         6.82495e+57
          1709.08090	         5.71327e+57
          1709.88720	         5.72992e+57
          1710.69350	         6.04575e+57
          1711.49980	         6.00245e+57
          1712.30610	         7.62818e+57
          1713.11240	         9.08007e+57
          1713.91870	         7.62406e+57
          1714.72500	         7.61614e+57
          1715.53130	         8.62274e+57
          1716.33760	         7.56149e+57
          1717.14390	         7.10148e+57
          1717.95020	         8.31261e+57
          1718.75650	         8.39771e+57
          1719.56280	         8.52608e+57
          1720.36910	         6.64761e+57
          1721.17540	         6.05283e+57
          1721.98170	         5.68679e+57
          1722.78800	         7.06981e+57
          1723.59430	         7.74935e+57
          1724.40060	         8.44190e+57
          1725.20690	         9.07506e+57
          1726.01320	         7.89929e+57
          1726.81950	         7.84947e+57
          1727.62580	         8.28478e+57
          1728.43210	         7.23537e+57
          1729.23840	         7.31540e+57
          1730.04470	         8.02374e+57
          1730.85100	         8.18362e+57
          1731.65730	         7.58793e+57
          1732.46360	         8.02521e+57
          1733.26990	         7.41481e+57
          1734.07620	         6.45520e+57
          1734.88250	         7.41889e+57
          1735.68880	         7.32627e+57
          1736.49510	         7.98692e+57
          1737.30140	         8.24827e+57
          1738.10770	         7.01688e+57
          1738.91400	         7.49309e+57
          1739.72030	         7.60627e+57
          1740.52660	         6.20987e+57
          1741.33290	         5.71241e+57
          1742.13920	         5.69033e+57
          1742.94550	         5.98530e+57
          1743.75180	         7.33610e+57
          1744.55810	         8.40299e+57
          1745.36440	         7.67274e+57
          1746.17070	         4.93161e+57
          1746.97700	         4.61148e+57
          1747.78330	         7.15699e+57
          1748.58960	         7.69000e+57
          1749.39590	         6.97882e+57
          1750.20220	         7.30917e+57
          1751.00850	         6.90563e+57
          1751.81480	         7.16004e+57
          1752.62110	         6.65799e+57
          1753.42740	         8.15779e+57
          1754.23370	         7.91953e+57
          1755.04000	         6.74304e+57
          1755.84630	         7.42638e+57
          1756.65260	         8.54602e+57
          1757.45890	         8.45857e+57
          1758.26520	         6.84750e+57
          1759.07150	         8.63467e+57
          1759.87780	         8.82780e+57
          1760.68410	         8.90782e+57
          1761.49040	         8.37085e+57
          1762.29670	         6.44704e+57
          1763.10300	         7.62005e+57
          1763.90930	         7.41840e+57
          1764.71560	         8.11732e+57
          1765.52190	         8.29080e+57
          1766.32820	         8.58372e+57
          1767.13450	         9.32582e+57
          1767.94080	         7.02661e+57
          1768.74710	         5.94925e+57
          1769.55340	         6.84833e+57
          1770.35970	         6.33130e+57
          1771.16600	         6.50446e+57
          1771.97230	         7.63720e+57
          1772.77860	         8.70990e+57
          1773.58490	         8.60549e+57
          1774.39120	         6.41662e+57
          1775.19750	         5.51649e+57
          1776.00380	         6.32458e+57
          1776.81010	         6.68520e+57
          1777.61640	         7.48480e+57
          1778.42270	         7.55673e+57
          1779.22900	         6.81277e+57
          1780.03530	         6.08613e+57
          1780.84160	         7.17488e+57
          1781.64790	         8.36678e+57
          1782.45420	         7.09096e+57
          1783.26050	         6.57663e+57
          1784.06680	         6.80784e+57
          1784.87310	         6.69025e+57
          1785.67940	         7.28205e+57
          1786.48570	         6.21983e+57
          1787.29200	         4.95057e+57
          1788.09830	         6.53376e+57
          1788.90460	         6.36259e+57
          1789.71090	         5.94820e+57
          1790.51720	         6.21229e+57
          1791.32350	         7.35852e+57
          1792.12980	         8.64212e+57
          1792.93610	         8.25610e+57
          1793.74240	         7.36839e+57
          1794.54870	         7.64729e+57
          1795.35500	         8.18009e+57
          1796.16130	         8.77437e+57
          1796.96760	         7.49011e+57
          1797.77390	         6.72473e+57
          1798.58020	         6.72416e+57
          1799.38650	         6.31512e+57
          1800.19280	         6.06686e+57
          1800.99910	         7.20880e+57
          1801.80540	         7.78415e+57
          1802.61170	         7.47874e+57
          1803.41800	         7.43113e+57
          1804.22430	         6.72401e+57
          1805.03060	         6.77429e+57
          1805.83690	         7.58458e+57
          1806.64320	         8.37038e+57
          1807.44950	         7.80729e+57
          1808.25580	         6.57665e+57
          1809.06210	         7.87614e+57
          1809.86840	         7.70043e+57
          1810.67470	         7.25414e+57
          1811.48100	         8.39429e+57
          1812.28730	         8.68740e+57
          1813.09360	         8.49343e+57
          1813.89990	         8.96307e+57
          1814.70620	         7.84051e+57
          1815.51250	         7.70953e+57
          1816.31880	         7.33449e+57
          1817.12510	         7.27947e+57
          1817.93140	         6.15624e+57
          1818.73770	         6.20297e+57
          1819.54400	         8.35994e+57
          1820.35030	         8.60732e+57
          1821.15660	         7.58111e+57
          1821.96290	         7.02816e+57
          1822.76920	         7.60583e+57
          1823.57550	         8.53952e+57
          1824.38180	         8.52566e+57
          1825.18810	         7.62319e+57
          1825.99440	         9.22163e+57
          1826.80070	         9.19498e+57
          1827.60700	         7.87329e+57
          1828.41330	         6.74026e+57
          1829.21960	         6.83400e+57
          1830.02590	         7.74555e+57
          1830.83220	         9.00897e+57
          1831.63850	         8.21006e+57
          1832.44480	         7.75854e+57
          1833.25110	         8.87976e+57
          1834.05740	         8.42182e+57
          1834.86370	         7.46040e+57
          1835.67000	         5.97856e+57
          1836.47630	         7.11075e+57
          1837.28260	         8.43791e+57
          1838.08890	         8.51075e+57
          1838.89520	         8.68045e+57
          1839.70150	         8.31192e+57
          1840.50780	         7.36878e+57
          1841.31410	         7.04761e+57
          1842.12040	         7.29208e+57
          1842.92670	         7.57903e+57
          1843.73300	         7.34008e+57
          1844.53930	         6.47425e+57
          1845.34560	         6.12782e+57
          1846.15190	         7.37150e+57
          1846.95820	         7.41724e+57
          1847.76450	         6.76273e+57
          1848.57080	         5.58379e+57
          1849.37710	         5.38599e+57
          1850.18340	         7.46639e+57
          1850.98970	         8.34516e+57
          1851.79600	         7.26889e+57
          1852.60230	         6.23138e+57
          1853.40860	         6.56589e+57
          1854.21490	         7.19827e+57
          1855.02120	         6.10861e+57
          1855.82750	         4.46868e+57
          1856.63380	         5.85604e+57
          1857.44010	         7.11626e+57
          1858.24640	         7.91813e+57
          1859.05270	         7.64665e+57
          1859.85900	         5.92202e+57
          1860.66530	         5.18482e+57
          1861.47160	         5.88269e+57
          1862.27790	         6.95347e+57
          1863.08420	         7.80275e+57
          1863.89050	         7.16650e+57
          1864.69680	         7.20867e+57
          1865.50310	         6.87879e+57
          1866.30940	         6.44572e+57
          1867.11570	         5.74271e+57
          1867.92200	         6.71448e+57
          1868.72830	         7.84653e+57
          1869.53460	         7.07201e+57
          1870.34090	         7.20846e+57
          1871.14720	         8.10885e+57
          1871.95350	         7.79661e+57
          1872.75980	         7.96262e+57
          1873.56610	         7.16596e+57
          1874.37240	         5.93136e+57
          1875.17870	         5.85675e+57
          1875.98500	         7.09242e+57
          1876.79130	         8.14375e+57
          1877.59760	         7.73143e+57
          1878.40390	         6.22271e+57
          1879.21020	         6.54837e+57
          1880.01650	         7.06451e+57
          1880.82280	         8.22632e+57
          1881.62910	         9.55671e+57
          1882.43540	         9.88148e+57
          1883.24170	         7.56728e+57
          1884.04800	         6.91623e+57
          1884.85430	         7.14153e+57
          1885.66060	         7.23312e+57
          1886.46690	         7.33303e+57
          1887.27320	         7.67867e+57
          1888.07950	         5.69491e+57
          1888.88580	         5.14397e+57
          1889.69210	         7.30148e+57
          1890.49840	         8.29572e+57
          1891.30470	         7.68825e+57
          1892.11100	         8.52982e+57
          1892.91730	         9.15436e+57
          1893.72360	         8.23439e+57
          1894.52990	         7.88285e+57
          1895.33620	         8.43551e+57
          1896.14250	         7.98999e+57
          1896.94880	         7.22463e+57
          1897.75510	         5.05819e+57
          1898.56140	         5.28283e+57
          1899.36770	         7.11923e+57
          1900.17400	         5.16552e+57
          1900.98030	         5.00624e+57
          1901.78660	         6.91835e+57
          1902.59290	         6.40976e+57
          1903.39920	         7.88785e+57
          1904.20550	         8.87516e+57
          1905.01180	         8.88947e+57
          1905.81810	         1.01723e+58
          1906.62440	         1.25957e+58
          1907.43070	         1.37494e+58
          1908.23700	         1.58399e+58
          1909.04330	         1.29031e+58
          1909.84960	         1.10393e+58
          1910.65590	         9.95963e+57
          1911.46220	         1.00148e+58
          1912.26850	         8.08968e+57
          1913.07480	         5.49071e+57
          1913.88110	         5.66968e+57
          1914.68740	         5.32845e+57
          1915.49370	         5.51922e+57
          1916.30000	         6.68325e+57
          1917.10630	         7.08454e+57
          1917.91260	         6.59850e+57
          1918.71890	         6.29805e+57
          1919.52520	         6.34686e+57
          1920.33150	         6.01899e+57
          1921.13780	         6.99357e+57
          1921.94410	         6.78686e+57
          1922.75040	         7.13655e+57
          1923.55670	         6.82221e+57
          1924.36300	         8.16383e+57
          1925.16930	         6.08102e+57
          1925.97560	         4.79747e+57
          1926.78190	         5.21603e+57
          1927.58820	         5.37585e+57
          1928.39450	         6.00685e+57
          1929.20080	         5.87937e+57
          1930.00710	         6.63859e+57
          1930.81340	         7.24845e+57
          1931.61970	         7.53339e+57
          1932.42600	         7.97420e+57
          1933.23230	         7.17621e+57
          1934.03860	         6.40444e+57
          1934.84490	         5.49402e+57
          1935.65120	         7.89213e+57
          1936.45750	         9.85357e+57
          1937.26380	         7.95897e+57
          1938.07010	         6.74698e+57
          1938.87640	         7.67837e+57
          1939.68270	         7.19871e+57
          1940.48900	         7.72950e+57
          1941.29530	         7.99891e+57
          1942.10160	         7.69076e+57
          1942.90790	         6.63395e+57
          1943.71420	         6.54470e+57
          1944.52050	         6.50207e+57
          1945.32680	         6.73400e+57
          1946.13310	         8.41136e+57
          1946.93940	         8.42618e+57
          1947.74570	         6.63001e+57
          1948.55200	         6.35332e+57
          1949.35830	         6.10771e+57
          1950.16460	         5.98908e+57
          1950.97090	         7.01598e+57
          1951.77720	         7.71620e+57
          1952.58350	         7.96105e+57
          1953.38980	         7.01080e+57
          1954.19610	         5.19950e+57
          1955.00240	         4.66623e+57
          1955.80870	         6.16257e+57
          1956.61500	         6.09594e+57
          1957.42130	         6.05304e+57
          1958.22760	         5.70830e+57
          1959.03390	         6.76164e+57
          1959.84020	         7.23876e+57
          1960.64650	         7.04367e+57
          1961.45280	         6.67481e+57
          1962.25910	         6.04500e+57
          1963.06540	         7.03460e+57
          1963.87170	         6.89985e+57
          1964.67800	         8.27001e+57
          1965.48430	         7.63030e+57
          1966.29060	         6.54539e+57
          1967.09690	         7.44657e+57
          1967.90320	         7.24684e+57
          1968.70950	         6.81963e+57
          1969.51580	         7.14942e+57
          1970.32210	         7.94729e+57
          1971.12840	         7.50481e+57
          1971.93470	         5.67220e+57
          1972.74100	         5.09292e+57
          1973.54730	         6.25856e+57
          1974.35360	         6.44961e+57
          1975.15990	         6.87692e+57
          1975.96620	         6.17698e+57
          1976.77250	         7.06546e+57
          1977.57880	         7.83727e+57
          1978.38510	         6.64543e+57
          1979.19140	         7.05412e+57
          1979.99770	         7.48641e+57
          1980.80400	         7.30929e+57
          1981.61030	         6.55548e+57
          1982.41660	         4.95665e+57
          1983.22290	         6.02764e+57
          1984.02920	         5.92221e+57
          1984.83550	         5.49558e+57
          1985.64180	         5.28450e+57
          1986.44810	         6.34991e+57
          1987.25440	         6.21238e+57
          1988.06070	         5.63493e+57
          1988.86700	         5.82942e+57
          1989.67330	         6.54541e+57
          1990.47960	         6.70591e+57
          1991.28590	         5.75565e+57
          1992.09220	         6.80360e+57
          1992.89850	         6.53325e+57
          1993.70480	         6.32739e+57
          1994.51110	         5.18491e+57
          1995.31740	         4.33627e+57
          1996.12370	         4.90792e+57
          1996.93000	         6.55814e+57
          1997.73630	         8.16521e+57
          1998.54260	         7.74154e+57
          1999.34890	         6.25659e+57
          2000.15520	         7.28672e+57
          2000.96150	         6.48012e+57
          2001.76780	         6.18921e+57
          2002.57410	         5.61400e+57
          2003.38040	         5.90775e+57
          2004.18670	         6.61502e+57
          2004.99300	         6.48888e+57
          2005.79930	         7.95611e+57
          2006.60560	         7.46157e+57
          2007.41190	         6.65004e+57
          2008.21820	         5.62116e+57
          2009.02450	         6.20342e+57
          2009.83080	         6.48705e+57
          2010.63710	         5.63060e+57
          2011.44340	         6.55718e+57
          2012.24970	         7.56529e+57
          2013.05600	         6.36053e+57
          2013.86230	         6.70019e+57
          2014.66860	         6.44514e+57
          2015.47490	         5.88860e+57
          2016.28120	         6.47588e+57
          2017.08750	         6.42266e+57
          2017.89380	         6.80238e+57
          2018.70010	         7.09885e+57
          2019.50640	         6.34576e+57
          2020.31270	         5.37115e+57
          2021.11900	         6.64617e+57
          2021.92530	         6.78423e+57
          2022.73160	         6.72989e+57
          2023.53790	         6.96300e+57
          2024.34420	         6.58472e+57
          2025.15050	         5.30970e+57
          2025.95680	         5.24667e+57
          2026.76310	         6.06976e+57
          2027.56940	         5.81452e+57
          2028.37570	         6.17954e+57
          2029.18200	         5.96262e+57
          2029.98830	         5.78106e+57
          2030.79460	         6.07493e+57
          2031.60090	         5.39031e+57
          2032.40720	         5.15303e+57
          2033.21350	         4.74997e+57
          2034.01980	         4.75622e+57
          2034.82610	         4.20675e+57
          2035.63240	         5.29765e+57
          2036.43870	         5.01275e+57
          2037.24500	         5.35498e+57
          2038.05130	         6.50965e+57
          2038.85760	         5.88146e+57
          2039.66390	         5.35882e+57
          2040.47020	         6.12243e+57
          2041.27650	         6.06471e+57
          2042.08280	         4.63403e+57
          2042.88910	         4.51075e+57
          2043.69540	         4.88813e+57
          2044.50170	         5.88430e+57
          2045.30800	         4.99839e+57
          2046.11430	         3.23813e+57
          2046.92060	         4.75426e+57
          2047.72690	         6.34738e+57
          2048.53320	         5.94911e+57
          2049.33950	         5.15522e+57
          2050.14580	         5.63575e+57
          2050.95210	         5.47298e+57
          2051.75840	         7.25167e+57
          2052.56470	         4.98497e+57
          2053.37100	         4.03773e+57
          2054.17730	         4.11664e+57
          2054.98360	         4.39631e+57
          2055.78990	         3.82589e+57
          2056.59620	         4.00143e+57
          2057.40250	         5.17708e+57
          2058.20880	         6.15968e+57
          2059.01510	         6.01430e+57
          2059.82140	         5.40455e+57
          2060.62770	         9.54784e+57
          2061.43400	         1.58854e+58
          2062.24030	         1.18824e+58
          2063.04660	         3.25915e+57
          2063.85290	         1.04449e+57
          2064.65920	        -2.86484e+57
          2065.46550	        -8.87001e+57
          2066.27180	        -9.13257e+57
          2067.07810	         2.67768e+57
          2067.88440	         5.72387e+57
          2068.69070	         5.23501e+57
          2069.49700	         4.59482e+57
          2070.30330	         3.24825e+57
          2071.10960	         3.71795e+57
          2071.91590	         5.72763e+57
          2072.72220	         4.47636e+57
          2073.52850	         5.10466e+57
          2074.33480	         5.76183e+57
          2075.14110	         6.83336e+57
          2075.94740	         5.20933e+57
          2076.75370	         5.12506e+57
          2077.56000	         4.94189e+57
          2078.36630	         5.43077e+57
          2079.17260	         5.51624e+57
          2079.97890	         6.61775e+57
          2080.78520	         4.89101e+57
          2081.59150	         4.79044e+57
          2082.39780	         3.38812e+57
          2083.20410	         1.16481e+57
          2084.01040	         2.40558e+57
          2084.81670	         3.28506e+57
          2085.62300	         1.87807e+57
          2086.42930	         3.12063e+57
          2087.23560	         4.33491e+57
          2088.04190	         3.55714e+57
          2088.84820	         3.95550e+57
          2089.65450	         3.11686e+57
          2090.46080	         2.07949e+57
          2091.26710	         3.51838e+57
          2092.07340	         3.85315e+57
          2092.87970	         2.90695e+57
          2093.68600	         3.63093e+56
          2094.49230	         1.09676e+57
          2095.29860	         5.34420e+57
          2096.10490	         1.87838e+57
          2096.91120	         7.16626e+56
          2097.71750	         2.21753e+57
          2098.52380	         1.04943e+57
          2099.33010	         1.90016e+57
          2100.13640	         2.20547e+57
          2100.94270	         2.36374e+57
          2101.74900	         3.81074e+57
          2102.55530	         2.92275e+57
          2103.36160	         2.93838e+57
          2104.16790	         2.52138e+57
          2104.97420	         9.22674e+56
          2105.78050	         2.33631e+57
          2106.58680	         1.33831e+57
          2107.39310	        -8.94066e+56
          2108.19940	         7.88560e+56
          2109.00570	         1.27059e+55
          2109.81200	         2.89391e+57
          2110.61830	         8.68263e+56
          2111.42460	        -1.64626e+57
          2112.23090	        -1.45505e+57
          2113.03720	         6.26051e+56
          2113.84350	        -4.04318e+56
          2114.64980	         5.01391e+57
          2115.45610	        -1.55212e+57
          2116.26240	         6.42149e+56
          2117.06870	         4.15691e+57
          2117.87500	        -2.39367e+57
          2118.68130	        -1.46139e+57
          2119.48760	         3.17622e+57
          2120.29390	         2.62245e+57
          2121.10020	        -6.07787e+57
          2121.90650	        -3.26620e+57
          2122.71280	         3.12835e+57
          2123.51910	         5.79100e+57
          2124.32540	        -2.49888e+57
          2125.13170	        -1.34790e+57
          2125.93800	         4.38028e+56
          2126.74430	         2.26073e+57
          2127.55060	        -4.84995e+57
          2128.35690	        -7.58013e+57
          2129.16320	        -1.43608e+57
          2129.96950	        -5.85857e+57
          2130.77580	        -3.35683e+57
          2131.58210	         2.79300e+57
          2132.38840	        -2.13565e+57
          2133.19470	        -1.75139e+57
          2134.00100	        -2.31137e+56
          2134.80730	        -9.19204e+57
          2135.61360	        -1.17892e+57
          2136.41990	         6.49962e+57
          2137.22620	         1.43191e+57
          2138.03250	        -3.82217e+57
          2138.83880	        -1.03134e+58
          2139.64510	        -1.94749e+56
          2140.45140	        -8.58811e+57
          2141.25770	        -1.44765e+58
          2142.06400	        -5.42313e+57
          2142.87030	         3.16378e+57
          2143.67660	         1.15992e+58
          2144.48290	         5.01372e+57
          2145.28920	         1.25167e+58
          2146.09550	         2.26273e+57
          2146.90180	        -4.19813e+57
          2147.70810	         1.43672e+57
          2148.51440	        -2.48295e+56
          2149.32070	        -3.78556e+57
          2150.12700	        -2.83275e+57
          2150.93330	        -3.81829e+57
          2151.73960	        -1.44767e+57
          2152.54590	        -6.60536e+57
          2153.35220	        -5.89317e+57
          2154.15850	        -1.04055e+55
          2154.96480	         9.90670e+56
          2155.77110	        -6.92053e+57
          2156.57740	        -1.57998e+58
          2157.38370	        -4.30775e+57
          2158.19000	        -6.44860e+57
          2158.99630	        -5.82469e+56
          2159.80260	        -2.65318e+57
          2160.60890	         3.91992e+57
          2161.41520	        -2.80473e+57
          2162.22150	        -2.84532e+57
          2163.02780	        -2.36777e+57
          2163.83410	        -3.35356e+57
          2164.64040	        -1.06287e+58
          2165.44670	        -1.22056e+58
          2166.25300	        -9.66475e+57
          2167.05930	        -1.00532e+58
          2167.86560	        -9.31494e+57
          2168.67190	        -1.71857e+58
          2169.47820	        -1.50453e+58
          2170.28450	        -2.38058e+57
          2171.09080	        -2.00797e+57
          2171.89710	        -3.22486e+57
          2172.70340	        -1.01871e+58
          2173.50970	        -7.44756e+57
          2174.31600	        -2.33818e+57
          2175.12230	        -3.30578e+57
          2175.92860	        -4.51584e+57
          2176.73490	        -4.25083e+57
          2177.54120	        -4.40102e+57
          2178.34750	        -5.00671e+57
          2179.15380	                 nan
          2179.96010	                 nan
          2180.76640	                 nan
          2181.57270	                 nan
          2182.37900	                 nan
          2183.18530	                 nan
          2183.99160	                 nan
          2184.79790	                 nan
          2185.60420	                 nan
          2186.41050	                 nan
          2187.21680	                 nan
          2188.02310	                 nan
          2188.82940	                 nan
          2189.63570	                 nan
          2190.44200	                 nan
          2191.24830	                 nan
          2192.05460	                 nan
          2192.86090	                 nan
          2193.66720	                 nan
          2194.47350	                 nan
          2195.27980	                 nan
          2196.08610	                 nan
          2196.89240	                 nan
          2197.69870	                 nan
          2198.50500	                 nan
          2199.31130	                 nan
          2200.11760	                 nan
          2200.92390	                 nan
          2201.73020	                 nan
          2202.53650	                 nan
          2203.34280	                 nan
          2204.14910	                 nan
          2204.95540	                 nan
          2205.76170	                 nan
          2206.56800	                 nan
          2207.37430	                 nan
          2208.18060	                 nan
          2208.98690	                 nan
          2209.79320	                 nan
          2210.59950	                 nan
          2211.40580	                 nan
          2212.21210	                 nan
          2213.01840	                 nan
          2213.82470	                 nan
          2214.63100	                 nan
          2215.43730	         0.00000e+00
