#sample_248_stacked_spectrum_rest_UV-bands_median_H-alpha_noDC.txt
#median Lum: 1.68433e+42
#Rest-frame wavelength (A) | Luminosity (erg/s/A)
#
          1110.00000	         0.00000e+00
          1110.80630	        -4.57423e+59
          1111.61260	         1.66509e+59
          1112.41890	         4.18873e+59
          1113.22520	         1.42400e+59
          1114.03150	        -1.04253e+59
          1114.83780	        -1.40118e+59
          1115.64410	        -1.22903e+59
          1116.45040	        -8.59070e+58
          1117.25670	         1.49025e+59
          1118.06300	         1.32101e+59
          1118.86930	         8.12215e+58
          1119.67560	         9.58872e+58
          1120.48190	        -2.95246e+58
          1121.28820	        -1.16419e+59
          1122.09450	         5.40819e+58
          1122.90080	         6.05049e+58
          1123.70710	         1.49298e+58
          1124.51340	         4.78814e+58
          1125.31970	        -2.45008e+58
          1126.12600	        -1.75574e+58
          1126.93230	        -6.71788e+58
          1127.73860	        -6.84475e+58
          1128.54490	         1.49782e+58
          1129.35120	         1.29716e+58
          1130.15750	         1.00075e+58
          1130.96380	        -1.30460e+58
          1131.77010	         3.22324e+58
          1132.57640	        -1.48313e+58
          1133.38270	         2.35249e+58
          1134.18900	         1.07568e+58
          1134.99530	         2.63524e+58
          1135.80160	         2.22533e+58
          1136.60790	         1.34941e+58
          1137.41420	        -1.31488e+58
          1138.22050	         2.65619e+58
          1139.02680	         2.72401e+58
          1139.83310	         2.14502e+58
          1140.63940	         2.64595e+58
          1141.44570	        -1.62090e+57
          1142.25200	        -4.26106e+57
          1143.05830	         3.12918e+58
          1143.86460	         2.80507e+58
          1144.67090	         1.01780e+58
          1145.47720	        -2.59843e+57
          1146.28350	         1.32807e+58
          1147.08980	         1.23188e+58
          1147.89610	         6.00597e+57
          1148.70240	         2.33917e+58
          1149.50870	         2.38377e+58
          1150.31500	         1.50748e+58
          1151.12130	         8.50395e+57
          1151.92760	         6.48262e+57
          1152.73390	         1.11272e+57
          1153.54020	        -1.34266e+57
          1154.34650	         1.46009e+58
          1155.15280	         1.78161e+58
          1155.95910	         1.50727e+58
          1156.76540	         4.50775e+57
          1157.57170	         7.92794e+57
          1158.37800	        -6.95110e+57
          1159.18430	        -4.09521e+57
          1159.99060	         1.84762e+57
          1160.79690	         5.58859e+57
          1161.60320	         1.08946e+58
          1162.40950	         9.90339e+57
          1163.21580	         2.35897e+58
          1164.02210	         1.37075e+58
          1164.82840	         5.83822e+57
          1165.63470	         1.96817e+58
          1166.44100	         2.92301e+58
          1167.24730	         1.64394e+58
          1168.05360	         5.48546e+57
          1168.85990	         4.38100e+57
          1169.66620	         1.05134e+58
          1170.47250	         8.47698e+57
          1171.27880	         7.12574e+57
          1172.08510	         1.04974e+58
          1172.89140	         1.10779e+58
          1173.69770	         3.98588e+57
          1174.50400	         8.11046e+57
          1175.31030	         1.90092e+58
          1176.11660	         2.03457e+58
          1176.92290	         1.69648e+58
          1177.72920	         1.12079e+58
          1178.53550	         7.35489e+57
          1179.34180	         1.78129e+57
          1180.14810	         1.00116e+58
          1180.95440	         1.92695e+58
          1181.76070	         1.50008e+58
          1182.56700	         1.04815e+58
          1183.37330	         4.21174e+57
          1184.17960	         9.57601e+57
          1184.98590	         1.00692e+58
          1185.79220	         6.30477e+57
          1186.59850	         7.52207e+57
          1187.40480	         1.22406e+58
          1188.21110	         1.57790e+58
          1189.01740	         9.15297e+57
          1189.82370	         6.87432e+57
          1190.63000	         4.77153e+57
          1191.43630	         1.64131e+58
          1192.24260	         1.19165e+58
          1193.04890	         1.38077e+58
          1193.85520	         1.23324e+58
          1194.66150	         6.51535e+57
          1195.46780	         9.65073e+57
          1196.27410	         1.33415e+58
          1197.08040	         8.05215e+57
          1197.88670	         1.31162e+58
          1198.69300	         1.88869e+58
          1199.49930	         1.63593e+58
          1200.30560	         9.16238e+57
          1201.11190	         7.58495e+57
          1201.91820	         9.40030e+57
          1202.72450	         1.03382e+58
          1203.53080	         1.69062e+58
          1204.33710	         1.16624e+58
          1205.14340	         4.02697e+57
          1205.94970	         5.13200e+57
          1206.75600	         4.92257e+57
          1207.56230	         5.86011e+57
          1208.36860	         1.13505e+58
          1209.17490	         6.62471e+57
          1209.98120	         4.66359e+57
          1210.78750	         9.41810e+57
          1211.59380	         1.09570e+58
          1212.40010	         1.56544e+58
          1213.20640	         2.10594e+58
          1214.01270	         2.05079e+58
          1214.81900	         2.33649e+58
          1215.62530	         4.26328e+58
          1216.43160	         8.93623e+58
          1217.23790	         1.47722e+59
          1218.04420	         1.17995e+59
          1218.85050	         8.71601e+58
          1219.65680	         5.59004e+58
          1220.46310	         3.21044e+58
          1221.26940	         2.50324e+58
          1222.07570	         1.66377e+58
          1222.88200	         1.34125e+58
          1223.68830	         9.78377e+57
          1224.49460	         7.64957e+57
          1225.30090	         5.64108e+57
          1226.10720	         5.34732e+57
          1226.91350	         5.91854e+57
          1227.71980	         8.50487e+57
          1228.52610	         9.79402e+57
          1229.33240	         1.02111e+58
          1230.13870	         1.20326e+58
          1230.94500	         9.43663e+57
          1231.75130	         4.75481e+57
          1232.55760	         6.67267e+57
          1233.36390	         9.15675e+57
          1234.17020	         9.54916e+57
          1234.97650	         1.00617e+58
          1235.78280	         8.14086e+57
          1236.58910	         7.67396e+57
          1237.39540	         8.89619e+57
          1238.20170	         8.20069e+57
          1239.00800	         9.46090e+57
          1239.81430	         1.37586e+58
          1240.62060	         1.23623e+58
          1241.42690	         1.15307e+58
          1242.23320	         1.25323e+58
          1243.03950	         8.32557e+57
          1243.84580	         8.56877e+57
          1244.65210	         1.00713e+58
          1245.45840	         1.03768e+58
          1246.26470	         1.08210e+58
          1247.07100	         7.75494e+57
          1247.87730	         6.06067e+57
          1248.68360	         5.11483e+57
          1249.48990	         8.43473e+57
          1250.29620	         1.10498e+58
          1251.10250	         7.97162e+57
          1251.90880	         4.22123e+57
          1252.71510	         4.45145e+57
          1253.52140	         6.40183e+57
          1254.32770	         9.85871e+57
          1255.13400	         1.20302e+58
          1255.94030	         1.12390e+58
          1256.74660	         9.49223e+57
          1257.55290	         1.05295e+58
          1258.35920	         8.97849e+57
          1259.16550	         5.07867e+57
          1259.97180	         7.05202e+57
          1260.77810	         9.11467e+57
          1261.58440	         8.67810e+57
          1262.39070	         8.46494e+57
          1263.19700	         9.14103e+57
          1264.00330	         1.10051e+58
          1264.80960	         1.16194e+58
          1265.61590	         1.23136e+58
          1266.42220	         1.17777e+58
          1267.22850	         9.49482e+57
          1268.03480	         1.42574e+58
          1268.84110	         1.55776e+58
          1269.64740	         1.39062e+58
          1270.45370	         1.57806e+58
          1271.26000	         1.36968e+58
          1272.06630	         1.29597e+58
          1272.87260	         1.16933e+58
          1273.67890	         1.07067e+58
          1274.48520	         1.21879e+58
          1275.29150	         1.28328e+58
          1276.09780	         1.21004e+58
          1276.90410	         1.46564e+58
          1277.71040	         1.30803e+58
          1278.51670	         1.10795e+58
          1279.32300	         1.28845e+58
          1280.12930	         1.16736e+58
          1280.93560	         1.08546e+58
          1281.74190	         1.08287e+58
          1282.54820	         1.21851e+58
          1283.35450	         1.23542e+58
          1284.16080	         1.28310e+58
          1284.96710	         1.39237e+58
          1285.77340	         1.37781e+58
          1286.57970	         1.23401e+58
          1287.38600	         1.66000e+58
          1288.19230	         2.02215e+58
          1288.99860	         1.58564e+58
          1289.80490	         1.12776e+58
          1290.61120	         1.35479e+58
          1291.41750	         1.40952e+58
          1292.22380	         1.13196e+58
          1293.03010	         1.13363e+58
          1293.83640	         1.28663e+58
          1294.64270	         1.15193e+58
          1295.44900	         9.21538e+57
          1296.25530	         8.61156e+57
          1297.06160	         1.03853e+58
          1297.86790	         9.39099e+57
          1298.67420	         6.72104e+57
          1299.48050	         9.56516e+57
          1300.28680	         1.05912e+58
          1301.09310	         8.81796e+57
          1301.89940	         6.07789e+57
          1302.70570	         8.28114e+57
          1303.51200	         8.90901e+57
          1304.31830	         9.73990e+57
          1305.12460	         1.11963e+58
          1305.93090	         1.09922e+58
          1306.73720	         1.25815e+58
          1307.54350	         1.32785e+58
          1308.34980	         1.29211e+58
          1309.15610	         1.41186e+58
          1309.96240	         1.57439e+58
          1310.76870	         1.34170e+58
          1311.57500	         1.14413e+58
          1312.38130	         1.26166e+58
          1313.18760	         1.55168e+58
          1313.99390	         1.62595e+58
          1314.80020	         1.53540e+58
          1315.60650	         1.42514e+58
          1316.41280	         1.42027e+58
          1317.21910	         1.31681e+58
          1318.02540	         1.21241e+58
          1318.83170	         1.28223e+58
          1319.63800	         1.23313e+58
          1320.44430	         1.04190e+58
          1321.25060	         1.02550e+58
          1322.05690	         1.11816e+58
          1322.86320	         1.14353e+58
          1323.66950	         1.23966e+58
          1324.47580	         1.00876e+58
          1325.28210	         9.21481e+57
          1326.08840	         1.02379e+58
          1326.89470	         1.12395e+58
          1327.70100	         9.69493e+57
          1328.50730	         8.47707e+57
          1329.31360	         9.74877e+57
          1330.11990	         8.90968e+57
          1330.92620	         8.84261e+57
          1331.73250	         1.03753e+58
          1332.53880	         9.25229e+57
          1333.34510	         9.29504e+57
          1334.15140	         9.37426e+57
          1334.95770	         8.94440e+57
          1335.76400	         9.43463e+57
          1336.57030	         1.12774e+58
          1337.37660	         1.22866e+58
          1338.18290	         1.09930e+58
          1338.98920	         1.10166e+58
          1339.79550	         1.07408e+58
          1340.60180	         1.13094e+58
          1341.40810	         1.28946e+58
          1342.21440	         1.20283e+58
          1343.02070	         1.33682e+58
          1343.82700	         1.40815e+58
          1344.63330	         1.30544e+58
          1345.43960	         1.44351e+58
          1346.24590	         1.15807e+58
          1347.05220	         1.06511e+58
          1347.85850	         9.69758e+57
          1348.66480	         1.16381e+58
          1349.47110	         1.13509e+58
          1350.27740	         1.22572e+58
          1351.08370	         1.30326e+58
          1351.89000	         1.19599e+58
          1352.69630	         1.11028e+58
          1353.50260	         1.00381e+58
          1354.30890	         1.09295e+58
          1355.11520	         1.16745e+58
          1355.92150	         1.11149e+58
          1356.72780	         1.01995e+58
          1357.53410	         9.72028e+57
          1358.34040	         1.07331e+58
          1359.14670	         1.03620e+58
          1359.95300	         1.08818e+58
          1360.75930	         1.09772e+58
          1361.56560	         9.91970e+57
          1362.37190	         1.06113e+58
          1363.17820	         1.05646e+58
          1363.98450	         1.09888e+58
          1364.79080	         1.28855e+58
          1365.59710	         1.32839e+58
          1366.40340	         1.08012e+58
          1367.20970	         1.07488e+58
          1368.01600	         1.05735e+58
          1368.82230	         9.20216e+57
          1369.62860	         1.05430e+58
          1370.43490	         8.86108e+57
          1371.24120	         1.00235e+58
          1372.04750	         9.51318e+57
          1372.85380	         9.58687e+57
          1373.66010	         1.06919e+58
          1374.46640	         1.03313e+58
          1375.27270	         9.94311e+57
          1376.07900	         9.53830e+57
          1376.88530	         9.49342e+57
          1377.69160	         8.99296e+57
          1378.49790	         7.96906e+57
          1379.30420	         7.59991e+57
          1380.11050	         7.69258e+57
          1380.91680	         7.93761e+57
          1381.72310	         7.79014e+57
          1382.52940	         6.58035e+57
          1383.33570	         8.30811e+57
          1384.14200	         1.02266e+58
          1384.94830	         1.04660e+58
          1385.75460	         9.78321e+57
          1386.56090	         1.10367e+58
          1387.36720	         1.17071e+58
          1388.17350	         1.44425e+58
          1388.97980	         1.23589e+58
          1389.78610	         8.16487e+57
          1390.59240	         7.64084e+57
          1391.39870	         6.37225e+57
          1392.20500	         7.45876e+57
          1393.01130	         6.28794e+57
          1393.81760	         6.34949e+57
          1394.62390	         7.09390e+57
          1395.43020	         5.36395e+57
          1396.23650	         6.55748e+57
          1397.04280	         7.21761e+57
          1397.84910	         7.03988e+57
          1398.65540	         8.96740e+57
          1399.46170	         1.05357e+58
          1400.26800	         8.41344e+57
          1401.07430	         6.51491e+57
          1401.88060	         7.62086e+57
          1402.68690	         8.69803e+57
          1403.49320	         9.25690e+57
          1404.29950	         8.74306e+57
          1405.10580	         1.02053e+58
          1405.91210	         1.12393e+58
          1406.71840	         1.13531e+58
          1407.52470	         1.02247e+58
          1408.33100	         1.01453e+58
          1409.13730	         1.15719e+58
          1409.94360	         1.10313e+58
          1410.74990	         1.15380e+58
          1411.55620	         1.06641e+58
          1412.36250	         8.81090e+57
          1413.16880	         8.58024e+57
          1413.97510	         8.33090e+57
          1414.78140	         9.84209e+57
          1415.58770	         1.10009e+58
          1416.39400	         9.44837e+57
          1417.20030	         9.73976e+57
          1418.00660	         8.71681e+57
          1418.81290	         9.82565e+57
          1419.61920	         1.07440e+58
          1420.42550	         1.24922e+58
          1421.23180	         1.46676e+58
          1422.03810	         1.41377e+58
          1422.84440	         1.23064e+58
          1423.65070	         1.38953e+58
          1424.45700	         1.15383e+58
          1425.26330	         8.99651e+57
          1426.06960	         9.39805e+57
          1426.87590	         9.83052e+57
          1427.68220	         1.07070e+58
          1428.48850	         1.15195e+58
          1429.29480	         1.12787e+58
          1430.10110	         1.09693e+58
          1430.90740	         9.68905e+57
          1431.71370	         8.86981e+57
          1432.52000	         8.72954e+57
          1433.32630	         7.73477e+57
          1434.13260	         7.69427e+57
          1434.93890	         8.21039e+57
          1435.74520	         1.01158e+58
          1436.55150	         1.08701e+58
          1437.35780	         9.27837e+57
          1438.16410	         8.62495e+57
          1438.97040	         8.82763e+57
          1439.77670	         9.18295e+57
          1440.58300	         9.72617e+57
          1441.38930	         1.01612e+58
          1442.19560	         9.47342e+57
          1443.00190	         9.75535e+57
          1443.80820	         1.12620e+58
          1444.61450	         1.07896e+58
          1445.42080	         8.98005e+57
          1446.22710	         1.07270e+58
          1447.03340	         9.84617e+57
          1447.83970	         1.07092e+58
          1448.64600	         1.10026e+58
          1449.45230	         9.71661e+57
          1450.25860	         9.60945e+57
          1451.06490	         8.53485e+57
          1451.87120	         7.14159e+57
          1452.67750	         6.23754e+57
          1453.48380	         8.86067e+57
          1454.29010	         9.05020e+57
          1455.09640	         7.81995e+57
          1455.90270	         8.18017e+57
          1456.70900	         8.56198e+57
          1457.51530	         9.79513e+57
          1458.32160	         1.21800e+58
          1459.12790	         1.20962e+58
          1459.93420	         1.06257e+58
          1460.74050	         8.94635e+57
          1461.54680	         8.25938e+57
          1462.35310	         8.39595e+57
          1463.15940	         9.57578e+57
          1463.96570	         1.06418e+58
          1464.77200	         1.20302e+58
          1465.57830	         1.09636e+58
          1466.38460	         9.08138e+57
          1467.19090	         7.24989e+57
          1467.99720	         7.30817e+57
          1468.80350	         8.98178e+57
          1469.60980	         8.97133e+57
          1470.41610	         1.00637e+58
          1471.22240	         9.37132e+57
          1472.02870	         8.36113e+57
          1472.83500	         1.00283e+58
          1473.64130	         1.09557e+58
          1474.44760	         9.18056e+57
          1475.25390	         8.49312e+57
          1476.06020	         8.31604e+57
          1476.86650	         7.59016e+57
          1477.67280	         7.24394e+57
          1478.47910	         7.00059e+57
          1479.28540	         7.28559e+57
          1480.09170	         8.53653e+57
          1480.89800	         8.00943e+57
          1481.70430	         8.47777e+57
          1482.51060	         7.86773e+57
          1483.31690	         7.19356e+57
          1484.12320	         8.93526e+57
          1484.92950	         8.30322e+57
          1485.73580	         7.88457e+57
          1486.54210	         8.99061e+57
          1487.34840	         8.11970e+57
          1488.15470	         7.91110e+57
          1488.96100	         9.16807e+57
          1489.76730	         9.35996e+57
          1490.57360	         9.40008e+57
          1491.37990	         7.85283e+57
          1492.18620	         7.34508e+57
          1492.99250	         8.25720e+57
          1493.79880	         8.64589e+57
          1494.60510	         8.34745e+57
          1495.41140	         7.58020e+57
          1496.21770	         8.63496e+57
          1497.02400	         1.08252e+58
          1497.83030	         9.19833e+57
          1498.63660	         7.75000e+57
          1499.44290	         7.29739e+57
          1500.24920	         7.92307e+57
          1501.05550	         8.04697e+57
          1501.86180	         8.09741e+57
          1502.66810	         8.68503e+57
          1503.47440	         9.24221e+57
          1504.28070	         7.96048e+57
          1505.08700	         7.98480e+57
          1505.89330	         9.00807e+57
          1506.69960	         8.48711e+57
          1507.50590	         8.18642e+57
          1508.31220	         8.64029e+57
          1509.11850	         8.54034e+57
          1509.92480	         8.75901e+57
          1510.73110	         8.45979e+57
          1511.53740	         6.76947e+57
          1512.34370	         6.61008e+57
          1513.15000	         9.31403e+57
          1513.95630	         1.12648e+58
          1514.76260	         9.28791e+57
          1515.56890	         6.99363e+57
          1516.37520	         8.07124e+57
          1517.18150	         8.22343e+57
          1517.98780	         6.77289e+57
          1518.79410	         6.79027e+57
          1519.60040	         8.10902e+57
          1520.40670	         8.91657e+57
          1521.21300	         9.11056e+57
          1522.01930	         9.64851e+57
          1522.82560	         1.02032e+58
          1523.63190	         1.05920e+58
          1524.43820	         8.64941e+57
          1525.24450	         6.48954e+57
          1526.05080	         6.24711e+57
          1526.85710	         7.19320e+57
          1527.66340	         6.60811e+57
          1528.46970	         8.02692e+57
          1529.27600	         8.11207e+57
          1530.08230	         7.44714e+57
          1530.88860	         8.24820e+57
          1531.69490	         8.39804e+57
          1532.50120	         9.96325e+57
          1533.30750	         1.08633e+58
          1534.11380	         1.05651e+58
          1534.92010	         1.04514e+58
          1535.72640	         1.05963e+58
          1536.53270	         1.01372e+58
          1537.33900	         9.66290e+57
          1538.14530	         9.24366e+57
          1538.95160	         8.81614e+57
          1539.75790	         8.55126e+57
          1540.56420	         8.17036e+57
          1541.37050	         7.96809e+57
          1542.17680	         7.86886e+57
          1542.98310	         8.02325e+57
          1543.78940	         9.60570e+57
          1544.59570	         8.71147e+57
          1545.40200	         7.95793e+57
          1546.20830	         9.43382e+57
          1547.01460	         1.08671e+58
          1547.82090	         1.16288e+58
          1548.62720	         1.20014e+58
          1549.43350	         1.11918e+58
          1550.23980	         9.58382e+57
          1551.04610	         1.08825e+58
          1551.85240	         1.23499e+58
          1552.65870	         1.15678e+58
          1553.46500	         9.89200e+57
          1554.27130	         9.98116e+57
          1555.07760	         9.96342e+57
          1555.88390	         9.29833e+57
          1556.69020	         9.84422e+57
          1557.49650	         9.10276e+57
          1558.30280	         8.48403e+57
          1559.10910	         8.83451e+57
          1559.91540	         9.57465e+57
          1560.72170	         8.96517e+57
          1561.52800	         8.87673e+57
          1562.33430	         8.46875e+57
          1563.14060	         7.05507e+57
          1563.94690	         7.84375e+57
          1564.75320	         8.88455e+57
          1565.55950	         7.44947e+57
          1566.36580	         7.01763e+57
          1567.17210	         8.65439e+57
          1567.97840	         8.98969e+57
          1568.78470	         8.72309e+57
          1569.59100	         9.40188e+57
          1570.39730	         9.24737e+57
          1571.20360	         7.55028e+57
          1572.00990	         7.76559e+57
          1572.81620	         9.52422e+57
          1573.62250	         1.12080e+58
          1574.42880	         9.64977e+57
          1575.23510	         7.74373e+57
          1576.04140	         8.42264e+57
          1576.84770	         8.73306e+57
          1577.65400	         9.19581e+57
          1578.46030	         9.90659e+57
          1579.26660	         9.98212e+57
          1580.07290	         9.27811e+57
          1580.87920	         7.44651e+57
          1581.68550	         7.32907e+57
          1582.49180	         8.82047e+57
          1583.29810	         8.94879e+57
          1584.10440	         8.65814e+57
          1584.91070	         8.77602e+57
          1585.71700	         8.94927e+57
          1586.52330	         8.78982e+57
          1587.32960	         9.24440e+57
          1588.13590	         9.19399e+57
          1588.94220	         8.51284e+57
          1589.74850	         9.13190e+57
          1590.55480	         9.85280e+57
          1591.36110	         8.70725e+57
          1592.16740	         7.96500e+57
          1592.97370	         8.74735e+57
          1593.78000	         9.90479e+57
          1594.58630	         9.17280e+57
          1595.39260	         8.93860e+57
          1596.19890	         8.81274e+57
          1597.00520	         9.00245e+57
          1597.81150	         8.54398e+57
          1598.61780	         7.40672e+57
          1599.42410	         6.51299e+57
          1600.23040	         5.79036e+57
          1601.03670	         6.83450e+57
          1601.84300	         8.17805e+57
          1602.64930	         8.75430e+57
          1603.45560	         8.54749e+57
          1604.26190	         8.03950e+57
          1605.06820	         7.44644e+57
          1605.87450	         6.21275e+57
          1606.68080	         6.96150e+57
          1607.48710	         5.97251e+57
          1608.29340	         5.92278e+57
          1609.09970	         7.14931e+57
          1609.90600	         7.22969e+57
          1610.71230	         6.22412e+57
          1611.51860	         6.63339e+57
          1612.32490	         7.60540e+57
          1613.13120	         8.45045e+57
          1613.93750	         8.83513e+57
          1614.74380	         8.61133e+57
          1615.55010	         8.37930e+57
          1616.35640	         9.56086e+57
          1617.16270	         1.05489e+58
          1617.96900	         1.03900e+58
          1618.77530	         8.02052e+57
          1619.58160	         9.03290e+57
          1620.38790	         8.14481e+57
          1621.19420	         8.23896e+57
          1622.00050	         8.66446e+57
          1622.80680	         8.77588e+57
          1623.61310	         8.44586e+57
          1624.41940	         8.32571e+57
          1625.22570	         8.79827e+57
          1626.03200	         9.20780e+57
          1626.83830	         7.77279e+57
          1627.64460	         7.57114e+57
          1628.45090	         6.63812e+57
          1629.25720	         8.86631e+57
          1630.06350	         9.55464e+57
          1630.86980	         5.37300e+57
          1631.67610	         6.55830e+57
          1632.48240	         8.97027e+57
          1633.28870	         8.19197e+57
          1634.09500	         7.81352e+57
          1634.90130	         1.01342e+58
          1635.70760	         8.72847e+57
          1636.51390	         7.44829e+57
          1637.32020	         7.12195e+57
          1638.12650	         8.75030e+57
          1638.93280	         1.01188e+58
          1639.73910	         1.13534e+58
          1640.54540	         1.13117e+58
          1641.35170	         9.26014e+57
          1642.15800	         8.96329e+57
          1642.96430	         9.93189e+57
          1643.77060	         8.70906e+57
          1644.57690	         8.32001e+57
          1645.38320	         8.74120e+57
          1646.18950	         6.75342e+57
          1646.99580	         8.32269e+57
          1647.80210	         7.54992e+57
          1648.60840	         7.58891e+57
          1649.41470	         8.53559e+57
          1650.22100	         7.17081e+57
          1651.02730	         7.28417e+57
          1651.83360	         7.79415e+57
          1652.63990	         8.22270e+57
          1653.44620	         8.91727e+57
          1654.25250	         7.82117e+57
          1655.05880	         7.13175e+57
          1655.86510	         8.01547e+57
          1656.67140	         8.49902e+57
          1657.47770	         8.74587e+57
          1658.28400	         9.32094e+57
          1659.09030	         9.12794e+57
          1659.89660	         9.51588e+57
          1660.70290	         9.82405e+57
          1661.50920	         9.21052e+57
          1662.31550	         8.72939e+57
          1663.12180	         8.62492e+57
          1663.92810	         9.49221e+57
          1664.73440	         1.15415e+58
          1665.54070	         1.19346e+58
          1666.34700	         1.28292e+58
          1667.15330	         1.21590e+58
          1667.95960	         9.37850e+57
          1668.76590	         7.26948e+57
          1669.57220	         7.19254e+57
          1670.37850	         7.55372e+57
          1671.18480	         7.86700e+57
          1671.99110	         7.93822e+57
          1672.79740	         6.89563e+57
          1673.60370	         7.35769e+57
          1674.41000	         7.64246e+57
          1675.21630	         7.10027e+57
          1676.02260	         7.03165e+57
          1676.82890	         7.10145e+57
          1677.63520	         6.74591e+57
          1678.44150	         6.23904e+57
          1679.24780	         7.96633e+57
          1680.05410	         7.88614e+57
          1680.86040	         6.10208e+57
          1681.66670	         6.54185e+57
          1682.47300	         8.31299e+57
          1683.27930	         8.20066e+57
          1684.08560	         8.61269e+57
          1684.89190	         8.06185e+57
          1685.69820	         6.76083e+57
          1686.50450	         6.45257e+57
          1687.31080	         6.58195e+57
          1688.11710	         6.79717e+57
          1688.92340	         5.85977e+57
          1689.72970	         5.56997e+57
          1690.53600	         6.77482e+57
          1691.34230	         7.26440e+57
          1692.14860	         7.45882e+57
          1692.95490	         8.10880e+57
          1693.76120	         7.73456e+57
          1694.56750	         5.65708e+57
          1695.37380	         7.81858e+57
          1696.18010	         9.12483e+57
          1696.98640	         9.82155e+57
          1697.79270	         9.24295e+57
          1698.59900	         7.75115e+57
          1699.40530	         7.71796e+57
          1700.21160	         8.45419e+57
          1701.01790	         8.35704e+57
          1701.82420	         7.02759e+57
          1702.63050	         6.89760e+57
          1703.43680	         8.09082e+57
          1704.24310	         8.60427e+57
          1705.04940	         8.29181e+57
          1705.85570	         8.23765e+57
          1706.66200	         8.37744e+57
          1707.46830	         8.65718e+57
          1708.27460	         7.87540e+57
          1709.08090	         6.36165e+57
          1709.88720	         6.07735e+57
          1710.69350	         6.33180e+57
          1711.49980	         6.26803e+57
          1712.30610	         8.12374e+57
          1713.11240	         9.56432e+57
          1713.91870	         8.68996e+57
          1714.72500	         8.55668e+57
          1715.53130	         8.77562e+57
          1716.33760	         7.31404e+57
          1717.14390	         6.83856e+57
          1717.95020	         8.39624e+57
          1718.75650	         9.15584e+57
          1719.56280	         9.26538e+57
          1720.36910	         7.84287e+57
          1721.17540	         7.14243e+57
          1721.98170	         6.94849e+57
          1722.78800	         6.24363e+57
          1723.59430	         7.20545e+57
          1724.40060	         8.38256e+57
          1725.20690	         8.16538e+57
          1726.01320	         8.30581e+57
          1726.81950	         7.42785e+57
          1727.62580	         6.65646e+57
          1728.43210	         6.63226e+57
          1729.23840	         7.11893e+57
          1730.04470	         7.18083e+57
          1730.85100	         7.79265e+57
          1731.65730	         7.84147e+57
          1732.46360	         8.69992e+57
          1733.26990	         8.92532e+57
          1734.07620	         8.49135e+57
          1734.88250	         7.71869e+57
          1735.68880	         7.82854e+57
          1736.49510	         8.24893e+57
          1737.30140	         7.83537e+57
          1738.10770	         7.49034e+57
          1738.91400	         8.44663e+57
          1739.72030	         8.04075e+57
          1740.52660	         6.42064e+57
          1741.33290	         5.91184e+57
          1742.13920	         5.18750e+57
          1742.94550	         5.66544e+57
          1743.75180	         7.17002e+57
          1744.55810	         7.50891e+57
          1745.36440	         6.31019e+57
          1746.17070	         4.70868e+57
          1746.97700	         5.31593e+57
          1747.78330	         6.64411e+57
          1748.58960	         6.67313e+57
          1749.39590	         6.28269e+57
          1750.20220	         6.63086e+57
          1751.00850	         6.60399e+57
          1751.81480	         6.32573e+57
          1752.62110	         7.39980e+57
          1753.42740	         8.09802e+57
          1754.23370	         6.67454e+57
          1755.04000	         5.63314e+57
          1755.84630	         6.07298e+57
          1756.65260	         7.87340e+57
          1757.45890	         8.44903e+57
          1758.26520	         6.72323e+57
          1759.07150	         7.88918e+57
          1759.87780	         8.54768e+57
          1760.68410	         8.23202e+57
          1761.49040	         8.60677e+57
          1762.29670	         7.51832e+57
          1763.10300	         7.45459e+57
          1763.90930	         7.36472e+57
          1764.71560	         7.92895e+57
          1765.52190	         8.13140e+57
          1766.32820	         9.38448e+57
          1767.13450	         9.03771e+57
          1767.94080	         6.69088e+57
          1768.74710	         6.63337e+57
          1769.55340	         6.84881e+57
          1770.35970	         6.72565e+57
          1771.16600	         8.33992e+57
          1771.97230	         9.23097e+57
          1772.77860	         9.22517e+57
          1773.58490	         8.48609e+57
          1774.39120	         6.37166e+57
          1775.19750	         5.32370e+57
          1776.00380	         6.13929e+57
          1776.81010	         6.35202e+57
          1777.61640	         6.23305e+57
          1778.42270	         6.80961e+57
          1779.22900	         6.97843e+57
          1780.03530	         6.30649e+57
          1780.84160	         7.44216e+57
          1781.64790	         8.36545e+57
          1782.45420	         7.37744e+57
          1783.26050	         7.19998e+57
          1784.06680	         7.06761e+57
          1784.87310	         7.18824e+57
          1785.67940	         7.97237e+57
          1786.48570	         7.48027e+57
          1787.29200	         6.79946e+57
          1788.09830	         6.51706e+57
          1788.90460	         5.68423e+57
          1789.71090	         5.25248e+57
          1790.51720	         5.36252e+57
          1791.32350	         7.53013e+57
          1792.12980	         8.32582e+57
          1792.93610	         8.11499e+57
          1793.74240	         8.09859e+57
          1794.54870	         7.79207e+57
          1795.35500	         7.67961e+57
          1796.16130	         7.22278e+57
          1796.96760	         5.93214e+57
          1797.77390	         6.11601e+57
          1798.58020	         7.10063e+57
          1799.38650	         6.80729e+57
          1800.19280	         7.12531e+57
          1800.99910	         7.51285e+57
          1801.80540	         7.55838e+57
          1802.61170	         8.68122e+57
          1803.41800	         8.99410e+57
          1804.22430	         7.01411e+57
          1805.03060	         6.36066e+57
          1805.83690	         6.27091e+57
          1806.64320	         6.58454e+57
          1807.44950	         7.06386e+57
          1808.25580	         6.76475e+57
          1809.06210	         8.47226e+57
          1809.86840	         8.03780e+57
          1810.67470	         7.65948e+57
          1811.48100	         8.73561e+57
          1812.28730	         9.16399e+57
          1813.09360	         7.44256e+57
          1813.89990	         6.65946e+57
          1814.70620	         6.51832e+57
          1815.51250	         7.13645e+57
          1816.31880	         7.67912e+57
          1817.12510	         7.34129e+57
          1817.93140	         5.69498e+57
          1818.73770	         5.67592e+57
          1819.54400	         7.75972e+57
          1820.35030	         8.59781e+57
          1821.15660	         7.11276e+57
          1821.96290	         6.90787e+57
          1822.76920	         7.17856e+57
          1823.57550	         7.54221e+57
          1824.38180	         7.22050e+57
          1825.18810	         7.54313e+57
          1825.99440	         8.16768e+57
          1826.80070	         7.85892e+57
          1827.60700	         7.42305e+57
          1828.41330	         5.87535e+57
          1829.21960	         6.20435e+57
          1830.02590	         7.70746e+57
          1830.83220	         8.53041e+57
          1831.63850	         7.50659e+57
          1832.44480	         7.56986e+57
          1833.25110	         8.60636e+57
          1834.05740	         9.00627e+57
          1834.86370	         7.27075e+57
          1835.67000	         5.63281e+57
          1836.47630	         6.55850e+57
          1837.28260	         8.23326e+57
          1838.08890	         7.86007e+57
          1838.89520	         7.52335e+57
          1839.70150	         7.00386e+57
          1840.50780	         7.41909e+57
          1841.31410	         7.80994e+57
          1842.12040	         6.28690e+57
          1842.92670	         6.61807e+57
          1843.73300	         6.98941e+57
          1844.53930	         6.38443e+57
          1845.34560	         7.13050e+57
          1846.15190	         7.98317e+57
          1846.95820	         7.62674e+57
          1847.76450	         7.12682e+57
          1848.57080	         6.04852e+57
          1849.37710	         6.51559e+57
          1850.18340	         7.71008e+57
          1850.98970	         7.88902e+57
          1851.79600	         7.17617e+57
          1852.60230	         6.02058e+57
          1853.40860	         6.12120e+57
          1854.21490	         6.45574e+57
          1855.02120	         6.23971e+57
          1855.82750	         5.20306e+57
          1856.63380	         5.62557e+57
          1857.44010	         6.37436e+57
          1858.24640	         7.14611e+57
          1859.05270	         5.85676e+57
          1859.85900	         4.85360e+57
          1860.66530	         6.18777e+57
          1861.47160	         7.11247e+57
          1862.27790	         6.94057e+57
          1863.08420	         7.41157e+57
          1863.89050	         7.45681e+57
          1864.69680	         6.92785e+57
          1865.50310	         6.92520e+57
          1866.30940	         6.61323e+57
          1867.11570	         7.21114e+57
          1867.92200	         7.16033e+57
          1868.72830	         7.23502e+57
          1869.53460	         7.84946e+57
          1870.34090	         7.24968e+57
          1871.14720	         7.61736e+57
          1871.95350	         7.70044e+57
          1872.75980	         7.98579e+57
          1873.56610	         6.83088e+57
          1874.37240	         6.21104e+57
          1875.17870	         6.28163e+57
          1875.98500	         7.44114e+57
          1876.79130	         7.66389e+57
          1877.59760	         8.25107e+57
          1878.40390	         6.84785e+57
          1879.21020	         6.42161e+57
          1880.01650	         7.11734e+57
          1880.82280	         9.01144e+57
          1881.62910	         9.04290e+57
          1882.43540	         9.80813e+57
          1883.24170	         8.29027e+57
          1884.04800	         6.14994e+57
          1884.85430	         7.06410e+57
          1885.66060	         7.91279e+57
          1886.46690	         8.56008e+57
          1887.27320	         7.94346e+57
          1888.07950	         6.41080e+57
          1888.88580	         6.55696e+57
          1889.69210	         8.34575e+57
          1890.49840	         8.38880e+57
          1891.30470	         7.55506e+57
          1892.11100	         7.58771e+57
          1892.91730	         7.49097e+57
          1893.72360	         7.49781e+57
          1894.52990	         7.88030e+57
          1895.33620	         8.08779e+57
          1896.14250	         7.16278e+57
          1896.94880	         7.09108e+57
          1897.75510	         4.88608e+57
          1898.56140	         5.13610e+57
          1899.36770	         7.98205e+57
          1900.17400	         7.27002e+57
          1900.98030	         6.40919e+57
          1901.78660	         7.61896e+57
          1902.59290	         6.58428e+57
          1903.39920	         8.27607e+57
          1904.20550	         8.94878e+57
          1905.01180	         8.51864e+57
          1905.81810	         9.20634e+57
          1906.62440	         1.19797e+58
          1907.43070	         1.49568e+58
          1908.23700	         1.55706e+58
          1909.04330	         1.34175e+58
          1909.84960	         1.14591e+58
          1910.65590	         1.03781e+58
          1911.46220	         9.80367e+57
          1912.26850	         7.90507e+57
          1913.07480	         5.84593e+57
          1913.88110	         5.15409e+57
          1914.68740	         5.22495e+57
          1915.49370	         5.11292e+57
          1916.30000	         6.30315e+57
          1917.10630	         6.66595e+57
          1917.91260	         6.45306e+57
          1918.71890	         6.32573e+57
          1919.52520	         6.02704e+57
          1920.33150	         5.71218e+57
          1921.13780	         6.51655e+57
          1921.94410	         7.95310e+57
          1922.75040	         8.13506e+57
          1923.55670	         7.99567e+57
          1924.36300	         7.74823e+57
          1925.16930	         6.23927e+57
          1925.97560	         5.83216e+57
          1926.78190	         4.79776e+57
          1927.58820	         4.75761e+57
          1928.39450	         6.17198e+57
          1929.20080	         6.43576e+57
          1930.00710	         7.40691e+57
          1930.81340	         7.68366e+57
          1931.61970	         6.69838e+57
          1932.42600	         8.89310e+57
          1933.23230	         9.06698e+57
          1934.03860	         7.96443e+57
          1934.84490	         5.59293e+57
          1935.65120	         7.58652e+57
          1936.45750	         8.85807e+57
          1937.26380	         8.36190e+57
          1938.07010	         7.88414e+57
          1938.87640	         7.33652e+57
          1939.68270	         7.90825e+57
          1940.48900	         7.97183e+57
          1941.29530	         8.01129e+57
          1942.10160	         7.55377e+57
          1942.90790	         6.87147e+57
          1943.71420	         5.96251e+57
          1944.52050	         6.17961e+57
          1945.32680	         5.91506e+57
          1946.13310	         7.17297e+57
          1946.93940	         7.60313e+57
          1947.74570	         6.60507e+57
          1948.55200	         6.86705e+57
          1949.35830	         6.21287e+57
          1950.16460	         5.86908e+57
          1950.97090	         6.32256e+57
          1951.77720	         7.17613e+57
          1952.58350	         7.63320e+57
          1953.38980	         6.32896e+57
          1954.19610	         3.85083e+57
          1955.00240	         4.68950e+57
          1955.80870	         5.20565e+57
          1956.61500	         5.61204e+57
          1957.42130	         6.04491e+57
          1958.22760	         7.14522e+57
          1959.03390	         7.20778e+57
          1959.84020	         7.03876e+57
          1960.64650	         7.24967e+57
          1961.45280	         7.01960e+57
          1962.25910	         6.81394e+57
          1963.06540	         5.76956e+57
          1963.87170	         5.85264e+57
          1964.67800	         6.35856e+57
          1965.48430	         7.00934e+57
          1966.29060	         5.51084e+57
          1967.09690	         7.26936e+57
          1967.90320	         6.55060e+57
          1968.70950	         6.14262e+57
          1969.51580	         6.04582e+57
          1970.32210	         7.82495e+57
          1971.12840	         7.63164e+57
          1971.93470	         5.08990e+57
          1972.74100	         4.98578e+57
          1973.54730	         6.34291e+57
          1974.35360	         6.99020e+57
          1975.15990	         8.15090e+57
          1975.96620	         8.00940e+57
          1976.77250	         8.72560e+57
          1977.57880	         7.26355e+57
          1978.38510	         5.45228e+57
          1979.19140	         6.24817e+57
          1979.99770	         7.19669e+57
          1980.80400	         7.63212e+57
          1981.61030	         7.42105e+57
          1982.41660	         5.57621e+57
          1983.22290	         5.55363e+57
          1984.02920	         5.45820e+57
          1984.83550	         5.34610e+57
          1985.64180	         5.92326e+57
          1986.44810	         6.46091e+57
          1987.25440	         6.02246e+57
          1988.06070	         4.96281e+57
          1988.86700	         6.49471e+57
          1989.67330	         7.43814e+57
          1990.47960	         6.17610e+57
          1991.28590	         6.20143e+57
          1992.09220	         6.43015e+57
          1992.89850	         5.84177e+57
          1993.70480	         5.64252e+57
          1994.51110	         4.63678e+57
          1995.31740	         5.08758e+57
          1996.12370	         5.45088e+57
          1996.93000	         5.74921e+57
          1997.73630	         7.84720e+57
          1998.54260	         9.32472e+57
          1999.34890	         7.40850e+57
          2000.15520	         7.05750e+57
          2000.96150	         7.07046e+57
          2001.76780	         6.63570e+57
          2002.57410	         5.55181e+57
          2003.38040	         6.06919e+57
          2004.18670	         6.81360e+57
          2004.99300	         5.76797e+57
          2005.79930	         6.53706e+57
          2006.60560	         6.29178e+57
          2007.41190	         5.81949e+57
          2008.21820	         6.00312e+57
          2009.02450	         6.31566e+57
          2009.83080	         6.26299e+57
          2010.63710	         6.42148e+57
          2011.44340	         7.09077e+57
          2012.24970	         6.87524e+57
          2013.05600	         6.90703e+57
          2013.86230	         5.86629e+57
          2014.66860	         5.04165e+57
          2015.47490	         6.48512e+57
          2016.28120	         5.54731e+57
          2017.08750	         5.49294e+57
          2017.89380	         6.22586e+57
          2018.70010	         6.46044e+57
          2019.50640	         6.07191e+57
          2020.31270	         6.61987e+57
          2021.11900	         6.83207e+57
          2021.92530	         6.56254e+57
          2022.73160	         7.09198e+57
          2023.53790	         7.29068e+57
          2024.34420	         6.95919e+57
          2025.15050	         4.20924e+57
          2025.95680	         4.08092e+57
          2026.76310	         6.30180e+57
          2027.56940	         6.82087e+57
          2028.37570	         6.26057e+57
          2029.18200	         5.98771e+57
          2029.98830	         6.89603e+57
          2030.79460	         6.75934e+57
          2031.60090	         6.53703e+57
          2032.40720	         5.80586e+57
          2033.21350	         6.29826e+57
          2034.01980	         6.25896e+57
          2034.82610	         5.02718e+57
          2035.63240	         4.94491e+57
          2036.43870	         5.91729e+57
          2037.24500	         6.50504e+57
          2038.05130	         6.37456e+57
          2038.85760	         6.18412e+57
          2039.66390	         7.14732e+57
          2040.47020	         5.54223e+57
          2041.27650	         5.94014e+57
          2042.08280	         5.30190e+57
          2042.88910	         5.97675e+57
          2043.69540	         5.79782e+57
          2044.50170	         6.41463e+57
          2045.30800	         5.24656e+57
          2046.11430	         3.59866e+57
          2046.92060	         4.80086e+57
          2047.72690	         6.50972e+57
          2048.53320	         5.39876e+57
          2049.33950	         4.82549e+57
          2050.14580	         5.94134e+57
          2050.95210	         6.96264e+57
          2051.75840	         7.82446e+57
          2052.56470	         5.23046e+57
          2053.37100	         4.40245e+57
          2054.17730	         5.13620e+57
          2054.98360	         4.13846e+57
          2055.78990	         2.57069e+57
          2056.59620	         3.32127e+57
          2057.40250	         5.33367e+57
          2058.20880	         6.43707e+57
          2059.01510	         6.03743e+57
          2059.82140	         6.49642e+57
          2060.62770	         1.13016e+58
          2061.43400	         1.53830e+58
          2062.24030	         1.24519e+58
          2063.04660	         3.65367e+57
          2063.85290	         7.74486e+56
          2064.65920	        -2.40598e+57
          2065.46550	        -8.34685e+57
          2066.27180	        -8.64048e+57
          2067.07810	         1.41787e+57
          2067.88440	         3.97280e+57
          2068.69070	         6.38150e+57
          2069.49700	         5.89492e+57
          2070.30330	         5.02977e+57
          2071.10960	         6.04156e+57
          2071.91590	         7.16964e+57
          2072.72220	         5.05150e+57
          2073.52850	         4.81614e+57
          2074.33480	         4.45800e+57
          2075.14110	         5.03118e+57
          2075.94740	         3.75352e+57
          2076.75370	         5.44008e+57
          2077.56000	         4.88051e+57
          2078.36630	         4.42672e+57
          2079.17260	         4.94382e+57
          2079.97890	         4.91845e+57
          2080.78520	         5.93788e+57
          2081.59150	         4.11847e+57
          2082.39780	         3.97267e+57
          2083.20410	         2.64583e+57
          2084.01040	         2.77138e+57
          2084.81670	         3.42267e+57
          2085.62300	         4.32891e+57
          2086.42930	         3.35083e+57
          2087.23560	         4.22701e+57
          2088.04190	         4.30374e+57
          2088.84820	         4.00734e+57
          2089.65450	         2.05604e+57
          2090.46080	         4.49564e+56
          2091.26710	         4.72082e+56
          2092.07340	         3.41557e+57
          2092.87970	         3.49790e+57
          2093.68600	        -1.36924e+56
          2094.49230	         2.84591e+56
          2095.29860	         6.24329e+57
          2096.10490	         3.12511e+57
          2096.91120	         2.83925e+57
          2097.71750	        -3.78245e+56
          2098.52380	         3.31215e+55
          2099.33010	         1.95244e+57
          2100.13640	         1.99566e+57
          2100.94270	         4.25669e+56
          2101.74900	         6.32050e+56
          2102.55530	         1.88648e+57
          2103.36160	         2.90708e+57
          2104.16790	         4.25088e+57
          2104.97420	         7.58102e+56
          2105.78050	         1.14862e+56
          2106.58680	        -6.26092e+56
          2107.39310	        -3.85123e+57
          2108.19940	         1.82744e+56
          2109.00570	         8.51154e+56
          2109.81200	        -1.13716e+57
          2110.61830	         1.16156e+57
          2111.42460	         1.81614e+57
          2112.23090	         1.58830e+57
          2113.03720	        -1.06834e+56
          2113.84350	         1.86200e+56
          2114.64980	         3.26478e+57
          2115.45610	        -1.57938e+57
          2116.26240	        -3.85453e+57
          2117.06870	        -3.47720e+56
          2117.87500	        -2.09460e+57
          2118.68130	        -1.48009e+57
          2119.48760	        -1.58756e+57
          2120.29390	        -2.46605e+57
          2121.10020	        -5.76120e+57
          2121.90650	        -3.48287e+57
          2122.71280	        -2.15790e+57
          2123.51910	        -4.61592e+56
          2124.32540	         2.22027e+57
          2125.13170	         4.36972e+56
          2125.93800	         8.77555e+56
          2126.74430	        -1.58513e+57
          2127.55060	        -3.15586e+57
          2128.35690	        -5.53040e+56
          2129.16320	        -2.61373e+57
          2129.96950	         2.78134e+56
          2130.77580	         8.67637e+56
          2131.58210	        -3.57605e+57
          2132.38840	        -9.59385e+56
          2133.19470	         3.73092e+57
          2134.00100	        -1.34197e+57
          2134.80730	        -5.35287e+57
          2135.61360	        -6.08682e+57
          2136.41990	         1.57549e+57
          2137.22620	         9.50974e+57
          2138.03250	         3.36234e+57
          2138.83880	        -3.73809e+57
          2139.64510	        -2.62323e+57
          2140.45140	        -2.58375e+57
          2141.25770	        -9.88006e+57
          2142.06400	        -1.73665e+57
          2142.87030	         4.90340e+57
          2143.67660	         3.21556e+57
          2144.48290	         3.83888e+57
          2145.28920	         1.21182e+58
          2146.09550	        -9.29419e+55
          2146.90180	        -7.52458e+57
          2147.70810	        -6.21671e+57
          2148.51440	        -8.51347e+56
          2149.32070	        -1.29131e+58
          2150.12700	        -8.37277e+57
          2150.93330	        -4.43289e+57
          2151.73960	         4.42010e+57
          2152.54590	         3.96841e+57
          2153.35220	         1.78542e+57
          2154.15850	        -7.42584e+57
          2154.96480	        -1.76863e+57
          2155.77110	        -1.31326e+57
          2156.57740	        -3.36133e+57
          2157.38370	        -4.40777e+56
          2158.19000	         3.84788e+57
          2158.99630	        -2.28987e+57
          2159.80260	        -1.14957e+58
          2160.60890	        -1.51236e+58
          2161.41520	        -5.91761e+57
          2162.22150	        -3.76772e+57
          2163.02780	        -1.98292e+57
          2163.83410	        -6.20852e+57
          2164.64040	        -7.71212e+57
          2165.44670	        -8.38675e+57
          2166.25300	        -1.45598e+57
          2167.05930	        -8.37488e+57
          2167.86560	        -1.05883e+58
          2168.67190	        -6.06685e+57
          2169.47820	        -2.14705e+57
          2170.28450	         4.38968e+57
          2171.09080	         2.79385e+57
          2171.89710	        -2.74039e+57
          2172.70340	        -2.82761e+57
          2173.50970	        -7.07618e+57
          2174.31600	        -4.62914e+57
          2175.12230	        -1.71052e+56
          2175.92860	        -5.70974e+57
          2176.73490	        -1.17984e+58
          2177.54120	        -9.67175e+57
          2178.34750	        -2.96650e+55
          2179.15380	                 nan
          2179.96010	                 nan
          2180.76640	                 nan
          2181.57270	                 nan
          2182.37900	                 nan
          2183.18530	                 nan
          2183.99160	                 nan
          2184.79790	                 nan
          2185.60420	                 nan
          2186.41050	                 nan
          2187.21680	                 nan
          2188.02310	                 nan
          2188.82940	                 nan
          2189.63570	                 nan
          2190.44200	                 nan
          2191.24830	                 nan
          2192.05460	                 nan
          2192.86090	                 nan
          2193.66720	                 nan
          2194.47350	                 nan
          2195.27980	                 nan
          2196.08610	                 nan
          2196.89240	                 nan
          2197.69870	                 nan
          2198.50500	                 nan
          2199.31130	                 nan
          2200.11760	                 nan
          2200.92390	                 nan
          2201.73020	                 nan
          2202.53650	                 nan
          2203.34280	                 nan
          2204.14910	                 nan
          2204.95540	                 nan
          2205.76170	                 nan
          2206.56800	                 nan
          2207.37430	                 nan
          2208.18060	                 nan
          2208.98690	                 nan
          2209.79320	                 nan
          2210.59950	                 nan
          2211.40580	                 nan
          2212.21210	                 nan
          2213.01840	                 nan
          2213.82470	                 nan
          2214.63100	                 nan
          2215.43730	         0.00000e+00
