#sample_211_stacked_spectrum_rest_UV-bands_median_H-alpha_noDC.txt
#median Lum: 1.68711e+42
#Rest-frame wavelength (A) | Luminosity (erg/s/A)
#
          1110.00000	         0.00000e+00
          1110.80630	         3.84874e+59
          1111.61260	         2.67657e+58
          1112.41890	         1.55591e+59
          1113.22520	         9.03756e+58
          1114.03150	        -1.97334e+59
          1114.83780	         1.27066e+59
          1115.64410	         1.77958e+59
          1116.45040	         5.13521e+58
          1117.25670	        -6.64140e+58
          1118.06300	         5.18315e+58
          1118.86930	         2.65196e+58
          1119.67560	        -7.62120e+57
          1120.48190	        -7.71411e+58
          1121.28820	        -1.42070e+59
          1122.09450	        -5.37178e+57
          1122.90080	         6.20592e+58
          1123.70710	         1.05564e+59
          1124.51340	         5.42285e+58
          1125.31970	         1.41053e+58
          1126.12600	         3.79765e+58
          1126.93230	        -1.41668e+58
          1127.73860	        -8.61748e+58
          1128.54490	        -2.88775e+58
          1129.35120	         1.09625e+57
          1130.15750	        -3.68855e+58
          1130.96380	        -3.40685e+58
          1131.77010	         3.46080e+58
          1132.57640	        -2.25539e+58
          1133.38270	         1.09424e+58
          1134.18900	         3.34752e+58
          1134.99530	         3.16885e+58
          1135.80160	         1.71611e+58
          1136.60790	         1.71180e+58
          1137.41420	         1.12795e+57
          1138.22050	         4.14165e+58
          1139.02680	         3.30694e+58
          1139.83310	         1.67100e+58
          1140.63940	         1.26109e+58
          1141.44570	        -7.38018e+57
          1142.25200	         6.47852e+57
          1143.05830	         3.46837e+58
          1143.86460	         3.31340e+58
          1144.67090	         2.01408e+58
          1145.47720	         9.41985e+57
          1146.28350	         5.47750e+57
          1147.08980	         1.80886e+58
          1147.89610	         1.80702e+58
          1148.70240	         3.19701e+58
          1149.50870	         2.78828e+58
          1150.31500	         6.33330e+57
          1151.12130	         9.03295e+57
          1151.92760	        -3.26675e+57
          1152.73390	         3.80575e+57
          1153.54020	         1.22212e+58
          1154.34650	         2.41147e+58
          1155.15280	         2.60893e+58
          1155.95910	         1.50519e+58
          1156.76540	         1.80431e+58
          1157.57170	         4.78159e+57
          1158.37800	        -2.33814e+57
          1159.18430	        -5.99699e+57
          1159.99060	        -1.20955e+56
          1160.79690	        -3.80802e+57
          1161.60320	         1.30567e+58
          1162.40950	         1.15856e+58
          1163.21580	         1.36851e+58
          1164.02210	         1.59652e+58
          1164.82840	         1.74822e+58
          1165.63470	         2.36184e+58
          1166.44100	         3.04567e+58
          1167.24730	         1.98172e+58
          1168.05360	         7.74288e+57
          1168.85990	         6.74630e+57
          1169.66620	         7.76062e+57
          1170.47250	         1.00991e+58
          1171.27880	         3.36339e+57
          1172.08510	         1.36229e+58
          1172.89140	         2.32738e+58
          1173.69770	         6.53757e+57
          1174.50400	         7.66435e+57
          1175.31030	         1.21409e+58
          1176.11660	         1.58384e+58
          1176.92290	         1.59217e+58
          1177.72920	         1.02944e+58
          1178.53550	         9.49395e+57
          1179.34180	         4.14599e+57
          1180.14810	         6.37529e+57
          1180.95440	         8.87564e+57
          1181.76070	         1.41190e+57
          1182.56700	         3.28129e+56
          1183.37330	         3.99359e+57
          1184.17960	         1.05393e+58
          1184.98590	         1.15957e+58
          1185.79220	         1.07000e+58
          1186.59850	         1.46128e+58
          1187.40480	         1.23084e+58
          1188.21110	         1.88970e+58
          1189.01740	         1.05002e+58
          1189.82370	         1.31597e+58
          1190.63000	         1.58402e+58
          1191.43630	         1.56797e+58
          1192.24260	         7.55914e+57
          1193.04890	         9.54250e+57
          1193.85520	         8.37961e+57
          1194.66150	         5.74516e+57
          1195.46780	         5.29735e+57
          1196.27410	         1.14226e+58
          1197.08040	         1.15892e+58
          1197.88670	         1.18056e+58
          1198.69300	         1.18621e+58
          1199.49930	         1.40681e+58
          1200.30560	         1.37337e+58
          1201.11190	         1.40380e+58
          1201.91820	         9.08958e+57
          1202.72450	         6.10195e+57
          1203.53080	         1.30059e+58
          1204.33710	         5.43290e+57
          1205.14340	         8.09783e+57
          1205.94970	         8.77716e+57
          1206.75600	         6.18830e+57
          1207.56230	         7.27860e+57
          1208.36860	         9.34569e+57
          1209.17490	         4.47411e+57
          1209.98120	         6.17065e+57
          1210.78750	         8.45788e+57
          1211.59380	         1.04053e+58
          1212.40010	         1.87617e+58
          1213.20640	         1.99114e+58
          1214.01270	         2.01067e+58
          1214.81900	         2.19141e+58
          1215.62530	         4.21672e+58
          1216.43160	         9.30341e+58
          1217.23790	         1.52934e+59
          1218.04420	         1.12157e+59
          1218.85050	         8.56970e+58
          1219.65680	         5.83966e+58
          1220.46310	         2.91870e+58
          1221.26940	         2.12384e+58
          1222.07570	         1.33627e+58
          1222.88200	         6.10456e+57
          1223.68830	         7.70027e+57
          1224.49460	         6.14079e+57
          1225.30090	         5.16325e+57
          1226.10720	         6.12540e+57
          1226.91350	         6.61796e+57
          1227.71980	         9.95723e+57
          1228.52610	         1.07906e+58
          1229.33240	         1.28211e+58
          1230.13870	         1.15167e+58
          1230.94500	         7.42219e+57
          1231.75130	         6.74252e+57
          1232.55760	         8.23260e+57
          1233.36390	         6.95042e+57
          1234.17020	         8.56596e+57
          1234.97650	         7.95964e+57
          1235.78280	         1.00877e+58
          1236.58910	         1.27237e+58
          1237.39540	         9.23841e+57
          1238.20170	         8.44272e+57
          1239.00800	         1.26916e+58
          1239.81430	         1.33576e+58
          1240.62060	         9.17158e+57
          1241.42690	         9.37010e+57
          1242.23320	         1.27257e+58
          1243.03950	         8.95408e+57
          1243.84580	         8.68220e+57
          1244.65210	         1.07608e+58
          1245.45840	         1.27305e+58
          1246.26470	         1.00677e+58
          1247.07100	         7.11005e+57
          1247.87730	         6.75991e+57
          1248.68360	         5.34272e+57
          1249.48990	         7.88474e+57
          1250.29620	         1.02211e+58
          1251.10250	         1.11951e+58
          1251.90880	         7.66005e+57
          1252.71510	         5.62760e+57
          1253.52140	         5.79986e+57
          1254.32770	         6.93317e+57
          1255.13400	         1.10192e+58
          1255.94030	         1.07144e+58
          1256.74660	         1.03082e+58
          1257.55290	         1.16140e+58
          1258.35920	         8.45705e+57
          1259.16550	         5.90224e+57
          1259.97180	         6.08851e+57
          1260.77810	         7.55943e+57
          1261.58440	         7.72740e+57
          1262.39070	         7.22879e+57
          1263.19700	         8.01092e+57
          1264.00330	         1.04691e+58
          1264.80960	         1.33757e+58
          1265.61590	         1.26804e+58
          1266.42220	         1.07823e+58
          1267.22850	         1.20972e+58
          1268.03480	         1.32767e+58
          1268.84110	         1.36999e+58
          1269.64740	         1.44515e+58
          1270.45370	         1.44927e+58
          1271.26000	         1.28851e+58
          1272.06630	         1.17296e+58
          1272.87260	         1.25025e+58
          1273.67890	         1.54264e+58
          1274.48520	         1.29927e+58
          1275.29150	         1.18229e+58
          1276.09780	         1.26610e+58
          1276.90410	         1.65166e+58
          1277.71040	         1.47750e+58
          1278.51670	         1.19894e+58
          1279.32300	         1.19039e+58
          1280.12930	         1.23457e+58
          1280.93560	         1.11543e+58
          1281.74190	         1.22318e+58
          1282.54820	         1.48299e+58
          1283.35450	         1.19487e+58
          1284.16080	         1.04096e+58
          1284.96710	         1.22754e+58
          1285.77340	         1.06976e+58
          1286.57970	         8.84844e+57
          1287.38600	         1.39820e+58
          1288.19230	         1.68372e+58
          1288.99860	         1.54928e+58
          1289.80490	         1.21322e+58
          1290.61120	         1.15101e+58
          1291.41750	         1.31732e+58
          1292.22380	         1.24505e+58
          1293.03010	         1.03218e+58
          1293.83640	         1.21449e+58
          1294.64270	         1.04407e+58
          1295.44900	         5.86848e+57
          1296.25530	         6.93220e+57
          1297.06160	         9.46370e+57
          1297.86790	         1.10073e+58
          1298.67420	         1.00519e+58
          1299.48050	         1.13455e+58
          1300.28680	         1.03587e+58
          1301.09310	         8.07633e+57
          1301.89940	         4.99387e+57
          1302.70570	         6.76856e+57
          1303.51200	         7.99106e+57
          1304.31830	         1.06841e+58
          1305.12460	         1.16537e+58
          1305.93090	         9.81437e+57
          1306.73720	         9.67038e+57
          1307.54350	         1.20622e+58
          1308.34980	         1.36213e+58
          1309.15610	         1.53237e+58
          1309.96240	         1.57658e+58
          1310.76870	         1.32088e+58
          1311.57500	         1.04011e+58
          1312.38130	         8.34475e+57
          1313.18760	         1.06550e+58
          1313.99390	         1.28793e+58
          1314.80020	         1.65714e+58
          1315.60650	         1.70723e+58
          1316.41280	         1.39362e+58
          1317.21910	         1.22309e+58
          1318.02540	         1.20288e+58
          1318.83170	         1.29468e+58
          1319.63800	         1.23978e+58
          1320.44430	         1.25342e+58
          1321.25060	         1.31153e+58
          1322.05690	         1.16258e+58
          1322.86320	         1.16386e+58
          1323.66950	         1.14989e+58
          1324.47580	         8.42895e+57
          1325.28210	         8.19514e+57
          1326.08840	         1.08511e+58
          1326.89470	         1.14516e+58
          1327.70100	         1.04460e+58
          1328.50730	         8.47194e+57
          1329.31360	         9.02100e+57
          1330.11990	         1.04952e+58
          1330.92620	         1.01484e+58
          1331.73250	         1.11358e+58
          1332.53880	         1.03878e+58
          1333.34510	         9.71464e+57
          1334.15140	         8.57926e+57
          1334.95770	         7.81479e+57
          1335.76400	         9.15694e+57
          1336.57030	         1.10266e+58
          1337.37660	         1.14103e+58
          1338.18290	         1.20178e+58
          1338.98920	         1.19011e+58
          1339.79550	         1.16818e+58
          1340.60180	         1.17253e+58
          1341.40810	         1.29183e+58
          1342.21440	         1.19826e+58
          1343.02070	         1.27813e+58
          1343.82700	         1.48043e+58
          1344.63330	         1.34033e+58
          1345.43960	         1.21853e+58
          1346.24590	         1.14637e+58
          1347.05220	         1.12001e+58
          1347.85850	         1.03848e+58
          1348.66480	         1.13045e+58
          1349.47110	         1.20197e+58
          1350.27740	         1.16140e+58
          1351.08370	         1.13520e+58
          1351.89000	         1.13746e+58
          1352.69630	         1.14463e+58
          1353.50260	         1.12426e+58
          1354.30890	         1.16256e+58
          1355.11520	         1.17211e+58
          1355.92150	         1.14563e+58
          1356.72780	         1.05288e+58
          1357.53410	         1.08914e+58
          1358.34040	         1.16425e+58
          1359.14670	         1.06883e+58
          1359.95300	         1.03096e+58
          1360.75930	         1.13838e+58
          1361.56560	         1.10643e+58
          1362.37190	         1.15918e+58
          1363.17820	         1.12973e+58
          1363.98450	         1.12792e+58
          1364.79080	         1.14777e+58
          1365.59710	         1.20240e+58
          1366.40340	         1.00562e+58
          1367.20970	         1.04904e+58
          1368.01600	         1.07220e+58
          1368.82230	         9.20310e+57
          1369.62860	         9.76917e+57
          1370.43490	         9.56031e+57
          1371.24120	         1.05391e+58
          1372.04750	         9.39104e+57
          1372.85380	         1.07492e+58
          1373.66010	         1.01680e+58
          1374.46640	         9.00746e+57
          1375.27270	         1.04755e+58
          1376.07900	         9.99161e+57
          1376.88530	         9.14089e+57
          1377.69160	         8.33832e+57
          1378.49790	         6.66344e+57
          1379.30420	         7.53602e+57
          1380.11050	         8.88584e+57
          1380.91680	         7.64824e+57
          1381.72310	         8.26190e+57
          1382.52940	         9.46055e+57
          1383.33570	         1.04311e+58
          1384.14200	         9.78470e+57
          1384.94830	         1.04467e+58
          1385.75460	         1.14479e+58
          1386.56090	         1.15844e+58
          1387.36720	         1.10879e+58
          1388.17350	         1.19645e+58
          1388.97980	         1.31723e+58
          1389.78610	         1.04931e+58
          1390.59240	         6.55772e+57
          1391.39870	         6.63818e+57
          1392.20500	         9.36894e+57
          1393.01130	         8.59064e+57
          1393.81760	         6.06099e+57
          1394.62390	         7.16436e+57
          1395.43020	         7.05986e+57
          1396.23650	         7.05493e+57
          1397.04280	         7.87930e+57
          1397.84910	         9.12693e+57
          1398.65540	         9.02694e+57
          1399.46170	         1.02832e+58
          1400.26800	         9.41158e+57
          1401.07430	         8.08367e+57
          1401.88060	         8.95914e+57
          1402.68690	         9.74624e+57
          1403.49320	         1.02918e+58
          1404.29950	         9.21087e+57
          1405.10580	         1.00636e+58
          1405.91210	         1.19109e+58
          1406.71840	         1.05271e+58
          1407.52470	         9.46721e+57
          1408.33100	         9.56802e+57
          1409.13730	         1.09664e+58
          1409.94360	         1.12385e+58
          1410.74990	         1.03725e+58
          1411.55620	         9.38355e+57
          1412.36250	         9.64025e+57
          1413.16880	         1.05498e+58
          1413.97510	         9.18781e+57
          1414.78140	         9.10374e+57
          1415.58770	         1.03068e+58
          1416.39400	         9.57972e+57
          1417.20030	         9.60677e+57
          1418.00660	         1.03659e+58
          1418.81290	         1.03721e+58
          1419.61920	         1.05488e+58
          1420.42550	         1.16876e+58
          1421.23180	         1.33338e+58
          1422.03810	         1.21558e+58
          1422.84440	         1.02847e+58
          1423.65070	         1.09770e+58
          1424.45700	         1.04064e+58
          1425.26330	         8.94653e+57
          1426.06960	         8.61819e+57
          1426.87590	         1.00376e+58
          1427.68220	         9.79773e+57
          1428.48850	         1.00797e+58
          1429.29480	         1.02930e+58
          1430.10110	         9.63411e+57
          1430.90740	         7.93193e+57
          1431.71370	         7.08172e+57
          1432.52000	         7.47178e+57
          1433.32630	         6.99781e+57
          1434.13260	         8.01852e+57
          1434.93890	         8.46048e+57
          1435.74520	         8.40523e+57
          1436.55150	         8.91383e+57
          1437.35780	         8.59593e+57
          1438.16410	         9.17333e+57
          1438.97040	         1.01615e+58
          1439.77670	         9.61808e+57
          1440.58300	         8.60923e+57
          1441.38930	         9.78985e+57
          1442.19560	         9.68571e+57
          1443.00190	         8.34596e+57
          1443.80820	         9.95266e+57
          1444.61450	         9.68794e+57
          1445.42080	         9.11971e+57
          1446.22710	         1.03603e+58
          1447.03340	         9.74869e+57
          1447.83970	         1.03301e+58
          1448.64600	         8.81081e+57
          1449.45230	         8.28862e+57
          1450.25860	         9.87542e+57
          1451.06490	         9.48720e+57
          1451.87120	         8.53245e+57
          1452.67750	         7.69611e+57
          1453.48380	         8.99631e+57
          1454.29010	         8.74207e+57
          1455.09640	         6.95963e+57
          1455.90270	         7.62862e+57
          1456.70900	         8.97355e+57
          1457.51530	         9.46989e+57
          1458.32160	         1.12633e+58
          1459.12790	         1.14630e+58
          1459.93420	         9.70561e+57
          1460.74050	         8.95797e+57
          1461.54680	         8.49967e+57
          1462.35310	         8.18809e+57
          1463.15940	         9.61689e+57
          1463.96570	         1.06562e+58
          1464.77200	         1.18257e+58
          1465.57830	         1.14559e+58
          1466.38460	         1.01109e+58
          1467.19090	         9.30914e+57
          1467.99720	         9.14405e+57
          1468.80350	         9.30530e+57
          1469.60980	         1.02481e+58
          1470.41610	         1.11069e+58
          1471.22240	         9.66562e+57
          1472.02870	         9.79416e+57
          1472.83500	         1.01792e+58
          1473.64130	         1.02074e+58
          1474.44760	         1.02381e+58
          1475.25390	         1.00284e+58
          1476.06020	         9.26010e+57
          1476.86650	         9.63134e+57
          1477.67280	         8.39169e+57
          1478.47910	         6.62940e+57
          1479.28540	         6.13853e+57
          1480.09170	         7.91362e+57
          1480.89800	         9.03171e+57
          1481.70430	         9.11289e+57
          1482.51060	         8.71064e+57
          1483.31690	         8.11252e+57
          1484.12320	         7.98728e+57
          1484.92950	         7.89756e+57
          1485.73580	         7.71780e+57
          1486.54210	         8.04040e+57
          1487.34840	         8.54030e+57
          1488.15470	         7.48354e+57
          1488.96100	         8.01649e+57
          1489.76730	         9.02208e+57
          1490.57360	         8.82093e+57
          1491.37990	         7.14866e+57
          1492.18620	         8.42267e+57
          1492.99250	         8.91170e+57
          1493.79880	         8.15948e+57
          1494.60510	         8.27187e+57
          1495.41140	         7.17235e+57
          1496.21770	         8.45881e+57
          1497.02400	         1.08085e+58
          1497.83030	         9.18248e+57
          1498.63660	         7.08608e+57
          1499.44290	         6.90262e+57
          1500.24920	         7.95613e+57
          1501.05550	         8.50370e+57
          1501.86180	         7.60626e+57
          1502.66810	         9.30544e+57
          1503.47440	         9.69320e+57
          1504.28070	         8.15361e+57
          1505.08700	         9.06775e+57
          1505.89330	         9.49514e+57
          1506.69960	         8.58016e+57
          1507.50590	         8.64773e+57
          1508.31220	         9.11431e+57
          1509.11850	         8.06367e+57
          1509.92480	         8.94962e+57
          1510.73110	         8.64976e+57
          1511.53740	         6.88543e+57
          1512.34370	         7.12356e+57
          1513.15000	         8.93518e+57
          1513.95630	         1.07535e+58
          1514.76260	         9.50602e+57
          1515.56890	         8.61351e+57
          1516.37520	         8.61437e+57
          1517.18150	         8.88748e+57
          1517.98780	         7.82437e+57
          1518.79410	         7.64615e+57
          1519.60040	         8.92144e+57
          1520.40670	         9.26091e+57
          1521.21300	         9.09145e+57
          1522.01930	         8.54365e+57
          1522.82560	         9.18050e+57
          1523.63190	         9.53337e+57
          1524.43820	         7.92097e+57
          1525.24450	         6.15970e+57
          1526.05080	         5.92525e+57
          1526.85710	         6.30225e+57
          1527.66340	         7.11081e+57
          1528.46970	         8.09780e+57
          1529.27600	         7.86710e+57
          1530.08230	         7.55858e+57
          1530.88860	         7.66225e+57
          1531.69490	         9.11851e+57
          1532.50120	         9.97357e+57
          1533.30750	         9.72198e+57
          1534.11380	         1.02288e+58
          1534.92010	         9.67821e+57
          1535.72640	         9.78080e+57
          1536.53270	         9.54294e+57
          1537.33900	         8.79111e+57
          1538.14530	         9.09753e+57
          1538.95160	         8.92220e+57
          1539.75790	         8.49372e+57
          1540.56420	         9.00079e+57
          1541.37050	         8.52748e+57
          1542.17680	         8.51585e+57
          1542.98310	         8.32495e+57
          1543.78940	         7.81671e+57
          1544.59570	         7.95149e+57
          1545.40200	         7.89129e+57
          1546.20830	         9.19103e+57
          1547.01460	         1.10780e+58
          1547.82090	         1.20792e+58
          1548.62720	         1.23989e+58
          1549.43350	         1.22705e+58
          1550.23980	         1.09825e+58
          1551.04610	         1.16505e+58
          1551.85240	         1.29320e+58
          1552.65870	         1.13045e+58
          1553.46500	         1.00175e+58
          1554.27130	         1.01598e+58
          1555.07760	         1.05570e+58
          1555.88390	         9.59251e+57
          1556.69020	         8.97541e+57
          1557.49650	         9.15377e+57
          1558.30280	         8.72092e+57
          1559.10910	         8.48679e+57
          1559.91540	         9.62048e+57
          1560.72170	         8.70362e+57
          1561.52800	         7.64876e+57
          1562.33430	         7.77517e+57
          1563.14060	         7.64302e+57
          1563.94690	         7.53906e+57
          1564.75320	         7.74992e+57
          1565.55950	         7.00237e+57
          1566.36580	         7.64872e+57
          1567.17210	         9.43087e+57
          1567.97840	         9.83366e+57
          1568.78470	         9.11877e+57
          1569.59100	         9.25108e+57
          1570.39730	         8.48877e+57
          1571.20360	         7.11441e+57
          1572.00990	         8.01482e+57
          1572.81620	         9.35365e+57
          1573.62250	         9.86904e+57
          1574.42880	         8.75963e+57
          1575.23510	         6.77532e+57
          1576.04140	         8.17754e+57
          1576.84770	         8.79342e+57
          1577.65400	         8.01659e+57
          1578.46030	         9.48439e+57
          1579.26660	         1.04192e+58
          1580.07290	         9.92557e+57
          1580.87920	         7.61897e+57
          1581.68550	         7.04855e+57
          1582.49180	         8.04593e+57
          1583.29810	         7.84780e+57
          1584.10440	         8.08353e+57
          1584.91070	         9.11214e+57
          1585.71700	         9.00241e+57
          1586.52330	         8.94778e+57
          1587.32960	         8.55152e+57
          1588.13590	         8.41562e+57
          1588.94220	         8.23453e+57
          1589.74850	         9.32262e+57
          1590.55480	         9.59203e+57
          1591.36110	         8.57509e+57
          1592.16740	         8.89767e+57
          1592.97370	         8.97461e+57
          1593.78000	         8.96026e+57
          1594.58630	         9.26047e+57
          1595.39260	         8.51897e+57
          1596.19890	         8.60532e+57
          1597.00520	         9.33302e+57
          1597.81150	         8.04448e+57
          1598.61780	         6.80563e+57
          1599.42410	         6.59056e+57
          1600.23040	         6.18985e+57
          1601.03670	         7.59378e+57
          1601.84300	         8.92088e+57
          1602.64930	         8.97703e+57
          1603.45560	         9.50827e+57
          1604.26190	         9.01568e+57
          1605.06820	         8.32791e+57
          1605.87450	         8.08799e+57
          1606.68080	         6.81498e+57
          1607.48710	         6.15860e+57
          1608.29340	         6.06360e+57
          1609.09970	         7.43841e+57
          1609.90600	         7.39957e+57
          1610.71230	         5.79745e+57
          1611.51860	         7.43362e+57
          1612.32490	         7.73588e+57
          1613.13120	         8.66383e+57
          1613.93750	         8.47664e+57
          1614.74380	         8.42327e+57
          1615.55010	         9.35083e+57
          1616.35640	         9.77676e+57
          1617.16270	         1.10845e+58
          1617.96900	         1.01538e+58
          1618.77530	         7.59895e+57
          1619.58160	         7.61448e+57
          1620.38790	         7.06509e+57
          1621.19420	         8.13252e+57
          1622.00050	         8.33904e+57
          1622.80680	         8.66204e+57
          1623.61310	         9.77985e+57
          1624.41940	         9.61378e+57
          1625.22570	         1.00342e+58
          1626.03200	         9.41412e+57
          1626.83830	         8.73891e+57
          1627.64460	         7.31464e+57
          1628.45090	         6.59824e+57
          1629.25720	         8.42809e+57
          1630.06350	         9.30987e+57
          1630.86980	         6.23879e+57
          1631.67610	         7.79105e+57
          1632.48240	         9.16316e+57
          1633.28870	         7.92292e+57
          1634.09500	         9.41334e+57
          1634.90130	         1.07001e+58
          1635.70760	         8.88993e+57
          1636.51390	         8.14032e+57
          1637.32020	         7.50204e+57
          1638.12650	         8.04763e+57
          1638.93280	         9.15694e+57
          1639.73910	         1.02615e+58
          1640.54540	         9.84330e+57
          1641.35170	         8.95622e+57
          1642.15800	         9.13994e+57
          1642.96430	         8.56440e+57
          1643.77060	         8.54102e+57
          1644.57690	         7.51829e+57
          1645.38320	         8.06837e+57
          1646.18950	         8.39886e+57
          1646.99580	         8.70497e+57
          1647.80210	         8.27007e+57
          1648.60840	         7.97614e+57
          1649.41470	         8.43425e+57
          1650.22100	         7.74482e+57
          1651.02730	         7.40428e+57
          1651.83360	         7.94332e+57
          1652.63990	         8.08572e+57
          1653.44620	         8.40680e+57
          1654.25250	         7.49687e+57
          1655.05880	         8.08209e+57
          1655.86510	         8.58646e+57
          1656.67140	         8.08991e+57
          1657.47770	         8.04978e+57
          1658.28400	         8.39827e+57
          1659.09030	         9.08497e+57
          1659.89660	         9.44182e+57
          1660.70290	         9.96116e+57
          1661.50920	         9.89572e+57
          1662.31550	         8.66406e+57
          1663.12180	         8.24439e+57
          1663.92810	         9.59096e+57
          1664.73440	         1.05433e+58
          1665.54070	         1.15380e+58
          1666.34700	         1.23407e+58
          1667.15330	         1.12891e+58
          1667.95960	         9.42766e+57
          1668.76590	         6.40947e+57
          1669.57220	         6.63473e+57
          1670.37850	         7.33296e+57
          1671.18480	         8.58898e+57
          1671.99110	         8.12567e+57
          1672.79740	         6.92522e+57
          1673.60370	         6.11505e+57
          1674.41000	         7.12961e+57
          1675.21630	         7.35872e+57
          1676.02260	         6.64458e+57
          1676.82890	         7.35235e+57
          1677.63520	         7.63266e+57
          1678.44150	         8.11758e+57
          1679.24780	         8.66868e+57
          1680.05410	         7.18646e+57
          1680.86040	         5.46043e+57
          1681.66670	         7.70887e+57
          1682.47300	         8.74563e+57
          1683.27930	         7.70079e+57
          1684.08560	         8.56216e+57
          1684.89190	         7.69169e+57
          1685.69820	         5.58557e+57
          1686.50450	         5.05477e+57
          1687.31080	         5.95690e+57
          1688.11710	         7.12249e+57
          1688.92340	         6.33444e+57
          1689.72970	         6.32504e+57
          1690.53600	         7.22434e+57
          1691.34230	         8.09279e+57
          1692.14860	         8.90676e+57
          1692.95490	         9.07909e+57
          1693.76120	         7.39945e+57
          1694.56750	         7.00008e+57
          1695.37380	         8.72518e+57
          1696.18010	         9.73210e+57
          1696.98640	         8.51509e+57
          1697.79270	         8.34119e+57
          1698.59900	         8.20145e+57
          1699.40530	         7.25545e+57
          1700.21160	         7.18544e+57
          1701.01790	         8.28994e+57
          1701.82420	         7.56081e+57
          1702.63050	         7.72563e+57
          1703.43680	         8.65723e+57
          1704.24310	         8.90668e+57
          1705.04940	         8.69126e+57
          1705.85570	         7.45211e+57
          1706.66200	         8.03063e+57
          1707.46830	         8.78788e+57
          1708.27460	         6.99538e+57
          1709.08090	         5.44772e+57
          1709.88720	         6.79040e+57
          1710.69350	         7.18578e+57
          1711.49980	         6.99185e+57
          1712.30610	         6.64272e+57
          1713.11240	         9.23503e+57
          1713.91870	         7.97948e+57
          1714.72500	         8.36019e+57
          1715.53130	         9.62080e+57
          1716.33760	         8.07028e+57
          1717.14390	         7.38341e+57
          1717.95020	         7.86207e+57
          1718.75650	         7.44690e+57
          1719.56280	         6.93445e+57
          1720.36910	         7.02109e+57
          1721.17540	         6.88794e+57
          1721.98170	         7.09767e+57
          1722.78800	         6.89367e+57
          1723.59430	         7.84513e+57
          1724.40060	         8.58298e+57
          1725.20690	         8.36250e+57
          1726.01320	         7.97205e+57
          1726.81950	         8.06802e+57
          1727.62580	         7.19346e+57
          1728.43210	         6.92177e+57
          1729.23840	         7.31554e+57
          1730.04470	         7.83073e+57
          1730.85100	         8.34766e+57
          1731.65730	         8.84012e+57
          1732.46360	         8.42459e+57
          1733.26990	         7.95769e+57
          1734.07620	         7.03988e+57
          1734.88250	         8.00889e+57
          1735.68880	         8.83354e+57
          1736.49510	         8.33303e+57
          1737.30140	         8.13934e+57
          1738.10770	         7.40965e+57
          1738.91400	         7.59429e+57
          1739.72030	         7.91707e+57
          1740.52660	         5.95542e+57
          1741.33290	         5.48475e+57
          1742.13920	         5.74096e+57
          1742.94550	         6.30889e+57
          1743.75180	         7.42072e+57
          1744.55810	         8.01541e+57
          1745.36440	         8.04007e+57
          1746.17070	         6.62107e+57
          1746.97700	         6.18106e+57
          1747.78330	         6.86241e+57
          1748.58960	         6.48968e+57
          1749.39590	         6.85967e+57
          1750.20220	         6.41155e+57
          1751.00850	         6.06407e+57
          1751.81480	         5.64168e+57
          1752.62110	         6.46349e+57
          1753.42740	         7.52169e+57
          1754.23370	         6.44986e+57
          1755.04000	         7.49884e+57
          1755.84630	         7.79849e+57
          1756.65260	         9.15694e+57
          1757.45890	         1.00038e+58
          1758.26520	         7.46241e+57
          1759.07150	         8.45895e+57
          1759.87780	         8.64668e+57
          1760.68410	         8.91504e+57
          1761.49040	         8.85099e+57
          1762.29670	         7.31628e+57
          1763.10300	         7.40570e+57
          1763.90930	         7.60309e+57
          1764.71560	         7.27374e+57
          1765.52190	         7.28401e+57
          1766.32820	         8.44898e+57
          1767.13450	         8.26091e+57
          1767.94080	         6.48254e+57
          1768.74710	         6.40124e+57
          1769.55340	         6.34602e+57
          1770.35970	         5.31885e+57
          1771.16600	         6.30237e+57
          1771.97230	         8.00222e+57
          1772.77860	         8.87882e+57
          1773.58490	         7.78995e+57
          1774.39120	         6.48770e+57
          1775.19750	         7.03699e+57
          1776.00380	         6.64286e+57
          1776.81010	         7.59504e+57
          1777.61640	         7.00619e+57
          1778.42270	         6.29600e+57
          1779.22900	         6.86718e+57
          1780.03530	         5.89198e+57
          1780.84160	         6.79521e+57
          1781.64790	         8.65752e+57
          1782.45420	         7.50330e+57
          1783.26050	         7.09589e+57
          1784.06680	         6.94979e+57
          1784.87310	         7.22104e+57
          1785.67940	         7.50034e+57
          1786.48570	         7.21523e+57
          1787.29200	         5.91038e+57
          1788.09830	         6.17465e+57
          1788.90460	         5.59260e+57
          1789.71090	         4.85762e+57
          1790.51720	         5.79256e+57
          1791.32350	         7.55047e+57
          1792.12980	         8.90188e+57
          1792.93610	         8.15671e+57
          1793.74240	         7.17616e+57
          1794.54870	         7.71476e+57
          1795.35500	         8.26100e+57
          1796.16130	         7.69868e+57
          1796.96760	         6.90999e+57
          1797.77390	         7.94733e+57
          1798.58020	         8.13255e+57
          1799.38650	         5.91319e+57
          1800.19280	         6.08142e+57
          1800.99910	         7.63025e+57
          1801.80540	         7.98270e+57
          1802.61170	         8.68086e+57
          1803.41800	         9.08599e+57
          1804.22430	         7.16462e+57
          1805.03060	         6.50577e+57
          1805.83690	         8.14036e+57
          1806.64320	         8.97267e+57
          1807.44950	         8.20475e+57
          1808.25580	         7.16967e+57
          1809.06210	         8.58996e+57
          1809.86840	         7.40442e+57
          1810.67470	         6.74374e+57
          1811.48100	         7.41089e+57
          1812.28730	         7.97433e+57
          1813.09360	         8.01528e+57
          1813.89990	         8.37998e+57
          1814.70620	         7.44691e+57
          1815.51250	         8.16154e+57
          1816.31880	         7.64496e+57
          1817.12510	         7.08488e+57
          1817.93140	         7.24978e+57
          1818.73770	         7.96027e+57
          1819.54400	         8.87085e+57
          1820.35030	         7.67428e+57
          1821.15660	         5.88694e+57
          1821.96290	         6.09876e+57
          1822.76920	         5.87878e+57
          1823.57550	         7.75111e+57
          1824.38180	         8.01468e+57
          1825.18810	         7.67927e+57
          1825.99440	         9.02531e+57
          1826.80070	         8.57977e+57
          1827.60700	         6.17185e+57
          1828.41330	         4.98615e+57
          1829.21960	         6.71353e+57
          1830.02590	         7.08597e+57
          1830.83220	         7.26979e+57
          1831.63850	         6.87743e+57
          1832.44480	         7.44910e+57
          1833.25110	         8.39827e+57
          1834.05740	         8.74673e+57
          1834.86370	         7.44793e+57
          1835.67000	         6.69538e+57
          1836.47630	         7.51478e+57
          1837.28260	         8.08697e+57
          1838.08890	         7.49464e+57
          1838.89520	         7.85460e+57
          1839.70150	         8.54204e+57
          1840.50780	         8.12582e+57
          1841.31410	         7.30566e+57
          1842.12040	         5.86130e+57
          1842.92670	         6.84815e+57
          1843.73300	         6.51248e+57
          1844.53930	         6.46823e+57
          1845.34560	         7.13550e+57
          1846.15190	         6.97121e+57
          1846.95820	         7.10697e+57
          1847.76450	         7.12222e+57
          1848.57080	         5.51847e+57
          1849.37710	         5.62727e+57
          1850.18340	         6.83321e+57
          1850.98970	         8.02614e+57
          1851.79600	         8.41384e+57
          1852.60230	         7.85845e+57
          1853.40860	         7.63493e+57
          1854.21490	         7.27488e+57
          1855.02120	         5.68402e+57
          1855.82750	         4.59121e+57
          1856.63380	         5.56746e+57
          1857.44010	         6.94190e+57
          1858.24640	         7.18295e+57
          1859.05270	         6.77388e+57
          1859.85900	         6.84810e+57
          1860.66530	         7.27869e+57
          1861.47160	         8.07728e+57
          1862.27790	         7.88635e+57
          1863.08420	         7.74474e+57
          1863.89050	         7.26674e+57
          1864.69680	         6.81457e+57
          1865.50310	         6.71582e+57
          1866.30940	         6.22006e+57
          1867.11570	         5.99873e+57
          1867.92200	         6.99638e+57
          1868.72830	         7.11377e+57
          1869.53460	         7.56055e+57
          1870.34090	         8.56160e+57
          1871.14720	         8.42893e+57
          1871.95350	         6.70782e+57
          1872.75980	         6.33293e+57
          1873.56610	         6.95315e+57
          1874.37240	         6.03356e+57
          1875.17870	         6.79850e+57
          1875.98500	         7.34586e+57
          1876.79130	         7.53127e+57
          1877.59760	         6.93103e+57
          1878.40390	         6.06241e+57
          1879.21020	         6.87934e+57
          1880.01650	         7.67230e+57
          1880.82280	         8.58859e+57
          1881.62910	         9.74590e+57
          1882.43540	         9.89120e+57
          1883.24170	         8.23548e+57
          1884.04800	         6.68457e+57
          1884.85430	         6.50829e+57
          1885.66060	         7.25009e+57
          1886.46690	         8.30381e+57
          1887.27320	         7.85525e+57
          1888.07950	         6.22193e+57
          1888.88580	         6.93541e+57
          1889.69210	         8.33087e+57
          1890.49840	         8.20584e+57
          1891.30470	         6.27317e+57
          1892.11100	         8.07413e+57
          1892.91730	         7.52456e+57
          1893.72360	         7.54907e+57
          1894.52990	         8.51875e+57
          1895.33620	         8.48951e+57
          1896.14250	         7.51218e+57
          1896.94880	         7.03463e+57
          1897.75510	         4.57574e+57
          1898.56140	         4.70387e+57
          1899.36770	         8.39430e+57
          1900.17400	         8.12701e+57
          1900.98030	         7.60598e+57
          1901.78660	         7.63812e+57
          1902.59290	         7.62620e+57
          1903.39920	         8.87447e+57
          1904.20550	         1.01687e+58
          1905.01180	         9.34095e+57
          1905.81810	         1.01857e+58
          1906.62440	         1.22219e+58
          1907.43070	         1.50851e+58
          1908.23700	         1.53916e+58
          1909.04330	         1.28695e+58
          1909.84960	         1.11036e+58
          1910.65590	         1.00686e+58
          1911.46220	         9.17389e+57
          1912.26850	         7.74638e+57
          1913.07480	         6.42304e+57
          1913.88110	         5.91174e+57
          1914.68740	         5.91149e+57
          1915.49370	         5.34351e+57
          1916.30000	         6.46539e+57
          1917.10630	         7.91329e+57
          1917.91260	         7.01661e+57
          1918.71890	         7.24826e+57
          1919.52520	         6.88293e+57
          1920.33150	         5.92968e+57
          1921.13780	         6.90438e+57
          1921.94410	         8.04496e+57
          1922.75040	         7.37165e+57
          1923.55670	         7.80995e+57
          1924.36300	         7.81093e+57
          1925.16930	         6.16428e+57
          1925.97560	         5.71915e+57
          1926.78190	         5.12264e+57
          1927.58820	         4.99242e+57
          1928.39450	         5.04913e+57
          1929.20080	         5.16281e+57
          1930.00710	         7.20626e+57
          1930.81340	         8.09603e+57
          1931.61970	         7.09651e+57
          1932.42600	         6.70382e+57
          1933.23230	         7.55800e+57
          1934.03860	         6.47679e+57
          1934.84490	         4.47975e+57
          1935.65120	         7.64930e+57
          1936.45750	         1.02165e+58
          1937.26380	         7.41130e+57
          1938.07010	         8.16241e+57
          1938.87640	         7.58120e+57
          1939.68270	         7.07102e+57
          1940.48900	         8.92847e+57
          1941.29530	         9.27834e+57
          1942.10160	         8.04257e+57
          1942.90790	         7.27955e+57
          1943.71420	         6.09056e+57
          1944.52050	         5.95111e+57
          1945.32680	         5.80825e+57
          1946.13310	         6.88711e+57
          1946.93940	         7.99983e+57
          1947.74570	         6.89854e+57
          1948.55200	         6.29315e+57
          1949.35830	         6.15885e+57
          1950.16460	         5.84651e+57
          1950.97090	         5.71394e+57
          1951.77720	         7.21582e+57
          1952.58350	         8.28837e+57
          1953.38980	         6.61866e+57
          1954.19610	         4.43627e+57
          1955.00240	         5.25802e+57
          1955.80870	         6.21461e+57
          1956.61500	         6.19677e+57
          1957.42130	         7.21105e+57
          1958.22760	         6.50113e+57
          1959.03390	         7.06545e+57
          1959.84020	         8.08078e+57
          1960.64650	         6.83741e+57
          1961.45280	         6.56827e+57
          1962.25910	         6.52725e+57
          1963.06540	         6.33267e+57
          1963.87170	         5.42295e+57
          1964.67800	         6.65468e+57
          1965.48430	         6.63021e+57
          1966.29060	         6.51977e+57
          1967.09690	         7.51760e+57
          1967.90320	         7.18924e+57
          1968.70950	         7.93945e+57
          1969.51580	         7.07522e+57
          1970.32210	         7.24995e+57
          1971.12840	         7.28861e+57
          1971.93470	         5.07690e+57
          1972.74100	         3.63255e+57
          1973.54730	         6.20916e+57
          1974.35360	         7.00016e+57
          1975.15990	         6.95019e+57
          1975.96620	         7.62335e+57
          1976.77250	         9.21394e+57
          1977.57880	         7.90971e+57
          1978.38510	         5.95477e+57
          1979.19140	         6.91987e+57
          1979.99770	         8.31052e+57
          1980.80400	         7.58873e+57
          1981.61030	         5.94644e+57
          1982.41660	         6.11998e+57
          1983.22290	         6.41510e+57
          1984.02920	         5.58286e+57
          1984.83550	         6.99626e+57
          1985.64180	         7.11313e+57
          1986.44810	         6.95884e+57
          1987.25440	         5.95640e+57
          1988.06070	         6.29484e+57
          1988.86700	         6.97962e+57
          1989.67330	         6.85523e+57
          1990.47960	         5.65378e+57
          1991.28590	         6.13845e+57
          1992.09220	         5.45582e+57
          1992.89850	         5.42611e+57
          1993.70480	         5.57387e+57
          1994.51110	         4.76378e+57
          1995.31740	         4.67239e+57
          1996.12370	         4.56274e+57
          1996.93000	         6.85186e+57
          1997.73630	         8.14574e+57
          1998.54260	         8.50570e+57
          1999.34890	         6.91678e+57
          2000.15520	         7.37684e+57
          2000.96150	         6.49116e+57
          2001.76780	         5.68473e+57
          2002.57410	         5.35446e+57
          2003.38040	         7.37484e+57
          2004.18670	         7.89726e+57
          2004.99300	         6.41794e+57
          2005.79930	         6.71559e+57
          2006.60560	         6.96632e+57
          2007.41190	         7.47600e+57
          2008.21820	         7.10046e+57
          2009.02450	         6.81624e+57
          2009.83080	         6.90828e+57
          2010.63710	         5.86755e+57
          2011.44340	         6.41475e+57
          2012.24970	         7.23052e+57
          2013.05600	         7.44050e+57
          2013.86230	         6.41758e+57
          2014.66860	         5.70647e+57
          2015.47490	         6.25642e+57
          2016.28120	         6.58521e+57
          2017.08750	         6.23983e+57
          2017.89380	         7.27492e+57
          2018.70010	         6.81492e+57
          2019.50640	         5.86050e+57
          2020.31270	         7.45036e+57
          2021.11900	         7.75532e+57
          2021.92530	         6.96819e+57
          2022.73160	         7.87447e+57
          2023.53790	         7.71836e+57
          2024.34420	         6.81584e+57
          2025.15050	         6.28184e+57
          2025.95680	         5.83163e+57
          2026.76310	         6.48197e+57
          2027.56940	         7.19261e+57
          2028.37570	         7.49752e+57
          2029.18200	         7.09863e+57
          2029.98830	         6.99719e+57
          2030.79460	         6.27679e+57
          2031.60090	         6.53383e+57
          2032.40720	         5.21760e+57
          2033.21350	         4.47831e+57
          2034.01980	         4.73899e+57
          2034.82610	         4.26160e+57
          2035.63240	         4.46964e+57
          2036.43870	         5.61697e+57
          2037.24500	         5.77112e+57
          2038.05130	         6.95954e+57
          2038.85760	         5.56522e+57
          2039.66390	         6.80058e+57
          2040.47020	         5.22614e+57
          2041.27650	         5.91668e+57
          2042.08280	         5.62711e+57
          2042.88910	         5.71853e+57
          2043.69540	         5.74626e+57
          2044.50170	         6.74130e+57
          2045.30800	         4.73895e+57
          2046.11430	         2.33140e+57
          2046.92060	         5.38754e+57
          2047.72690	         7.87565e+57
          2048.53320	         6.28076e+57
          2049.33950	         5.17069e+57
          2050.14580	         4.60866e+57
          2050.95210	         5.87366e+57
          2051.75840	         7.25266e+57
          2052.56470	         5.18697e+57
          2053.37100	         4.00369e+57
          2054.17730	         4.70463e+57
          2054.98360	         4.85745e+57
          2055.78990	         4.73719e+57
          2056.59620	         4.02375e+57
          2057.40250	         5.26166e+57
          2058.20880	         6.54408e+57
          2059.01510	         6.46393e+57
          2059.82140	         7.33931e+57
          2060.62770	         9.26478e+57
          2061.43400	         1.46898e+58
          2062.24030	         1.55987e+58
          2063.04660	         2.28731e+57
          2063.85290	         6.81848e+56
          2064.65920	        -1.76733e+57
          2065.46550	        -7.17671e+57
          2066.27180	        -7.57847e+57
          2067.07810	         3.53119e+57
          2067.88440	         4.33494e+57
          2068.69070	         7.09151e+57
          2069.49700	         5.79154e+57
          2070.30330	         2.68427e+57
          2071.10960	         3.70345e+57
          2071.91590	         6.72327e+57
          2072.72220	         5.10363e+57
          2073.52850	         4.37307e+57
          2074.33480	         4.74758e+57
          2075.14110	         5.97833e+57
          2075.94740	         6.00239e+57
          2076.75370	         5.58705e+57
          2077.56000	         4.45759e+57
          2078.36630	         5.25739e+57
          2079.17260	         4.40842e+57
          2079.97890	         4.86074e+57
          2080.78520	         6.01770e+57
          2081.59150	         4.74560e+57
          2082.39780	         4.95588e+57
          2083.20410	         3.53958e+57
          2084.01040	         3.75651e+57
          2084.81670	         3.14868e+57
          2085.62300	         2.58662e+57
          2086.42930	         2.62958e+57
          2087.23560	         3.95592e+57
          2088.04190	         3.53098e+57
          2088.84820	         2.61280e+57
          2089.65450	         2.44486e+57
          2090.46080	         2.99553e+57
          2091.26710	         5.04334e+57
          2092.07340	         4.58406e+57
          2092.87970	         4.49018e+57
          2093.68600	        -5.58616e+55
          2094.49230	         1.07009e+57
          2095.29860	         5.19398e+57
          2096.10490	         1.21042e+57
          2096.91120	         2.86781e+57
          2097.71750	         1.25824e+57
          2098.52380	         2.20649e+57
          2099.33010	         1.84151e+57
          2100.13640	        -7.83961e+56
          2100.94270	         1.22351e+57
          2101.74900	         4.58330e+57
          2102.55530	         3.10952e+57
          2103.36160	         2.52009e+57
          2104.16790	         3.27619e+57
          2104.97420	         2.53156e+57
          2105.78050	         2.36331e+57
          2106.58680	         1.70903e+57
          2107.39310	        -5.19399e+56
          2108.19940	        -1.00575e+57
          2109.00570	         3.01291e+56
          2109.81200	         2.94708e+56
          2110.61830	         5.95884e+56
          2111.42460	         2.37270e+57
          2112.23090	         7.73373e+56
          2113.03720	        -8.37060e+56
          2113.84350	         4.87356e+56
          2114.64980	         3.14070e+57
          2115.45610	        -2.83866e+57
          2116.26240	         1.57169e+57
          2117.06870	        -8.31071e+56
          2117.87500	        -5.16734e+57
          2118.68130	        -7.75819e+56
          2119.48760	        -4.71242e+56
          2120.29390	        -1.16794e+56
          2121.10020	        -4.30553e+57
          2121.90650	        -2.16523e+57
          2122.71280	         3.37692e+57
          2123.51910	         4.11490e+57
          2124.32540	         2.83653e+57
          2125.13170	         6.45386e+56
          2125.93800	         8.89270e+57
          2126.74430	         9.13347e+56
          2127.55060	        -7.87042e+57
          2128.35690	        -1.74910e+57
          2129.16320	        -1.30015e+57
          2129.96950	        -6.13830e+57
          2130.77580	        -4.64620e+57
          2131.58210	         1.34546e+57
          2132.38840	        -5.21330e+57
          2133.19470	        -1.88388e+57
          2134.00100	        -2.47557e+57
          2134.80730	        -8.00493e+57
          2135.61360	         1.92724e+57
          2136.41990	         9.89358e+57
          2137.22620	         8.49925e+57
          2138.03250	        -1.72187e+56
          2138.83880	        -4.65399e+57
          2139.64510	         1.75299e+56
          2140.45140	         7.67394e+56
          2141.25770	        -7.83156e+57
          2142.06400	        -3.94064e+57
          2142.87030	         4.75944e+57
          2143.67660	         5.73963e+57
          2144.48290	         3.31324e+57
          2145.28920	         1.83095e+58
          2146.09550	        -5.54770e+57
          2146.90180	        -1.38438e+58
          2147.70810	         3.40041e+57
          2148.51440	        -3.24003e+57
          2149.32070	        -5.74903e+57
          2150.12700	        -8.35044e+57
          2150.93330	        -5.74711e+57
          2151.73960	         3.31960e+57
          2152.54590	        -7.72187e+57
          2153.35220	         2.57240e+57
          2154.15850	        -2.95373e+57
          2154.96480	         8.40275e+56
          2155.77110	        -2.73243e+57
          2156.57740	        -3.58644e+57
          2157.38370	         1.47625e+57
          2158.19000	         3.66268e+57
          2158.99630	        -8.65344e+57
          2159.80260	        -2.33503e+58
          2160.60890	         2.12612e+57
          2161.41520	        -7.76664e+57
          2162.22150	         4.72386e+57
          2163.02780	        -1.95215e+57
          2163.83410	        -8.18814e+57
          2164.64040	        -6.80668e+57
          2165.44670	        -1.54229e+57
          2166.25300	        -1.17019e+58
          2167.05930	        -1.10014e+58
          2167.86560	        -3.52927e+57
          2168.67190	        -3.00860e+57
          2169.47820	         5.30501e+56
          2170.28450	        -1.33183e+57
          2171.09080	        -2.46217e+57
          2171.89710	        -3.59776e+57
          2172.70340	        -6.72571e+57
          2173.50970	        -1.01889e+58
          2174.31600	        -9.54094e+57
          2175.12230	         2.23180e+57
          2175.92860	        -3.55233e+57
          2176.73490	        -4.33874e+57
          2177.54120	        -9.72437e+57
          2178.34750	        -2.61052e+57
          2179.15380	                 nan
          2179.96010	                 nan
          2180.76640	                 nan
          2181.57270	                 nan
          2182.37900	                 nan
          2183.18530	                 nan
          2183.99160	                 nan
          2184.79790	                 nan
          2185.60420	                 nan
          2186.41050	                 nan
          2187.21680	                 nan
          2188.02310	                 nan
          2188.82940	                 nan
          2189.63570	                 nan
          2190.44200	                 nan
          2191.24830	                 nan
          2192.05460	                 nan
          2192.86090	                 nan
          2193.66720	                 nan
          2194.47350	                 nan
          2195.27980	                 nan
          2196.08610	                 nan
          2196.89240	                 nan
          2197.69870	                 nan
          2198.50500	                 nan
          2199.31130	                 nan
          2200.11760	                 nan
          2200.92390	                 nan
          2201.73020	                 nan
          2202.53650	                 nan
          2203.34280	                 nan
          2204.14910	                 nan
          2204.95540	                 nan
          2205.76170	                 nan
          2206.56800	                 nan
          2207.37430	                 nan
          2208.18060	                 nan
          2208.98690	                 nan
          2209.79320	                 nan
          2210.59950	                 nan
          2211.40580	                 nan
          2212.21210	                 nan
          2213.01840	                 nan
          2213.82470	                 nan
          2214.63100	                 nan
          2215.43730	         0.00000e+00
