#sample_280_stacked_spectrum_rest_UV-bands_median_H-alpha_noDC.txt
#median Lum: 1.70737e+42
#Rest-frame wavelength (A) | Luminosity (erg/s/A)
#
          1110.00000	         0.00000e+00
          1110.80630	        -3.68144e+59
          1111.61260	         2.76908e+59
          1112.41890	         1.15445e+59
          1113.22520	        -1.95935e+59
          1114.03150	        -1.79820e+59
          1114.83780	         2.03918e+59
          1115.64410	         2.70918e+58
          1116.45040	         7.90267e+58
          1117.25670	         8.74379e+58
          1118.06300	         2.68113e+58
          1118.86930	        -2.49354e+58
          1119.67560	         8.98993e+58
          1120.48190	         2.70388e+58
          1121.28820	        -2.03538e+59
          1122.09450	        -2.89319e+57
          1122.90080	         4.05541e+58
          1123.70710	         1.10617e+59
          1124.51340	         1.04806e+59
          1125.31970	         5.97531e+58
          1126.12600	         8.50892e+58
          1126.93230	        -4.20497e+58
          1127.73860	        -8.30706e+58
          1128.54490	         1.94265e+58
          1129.35120	         1.23199e+58
          1130.15750	        -3.85557e+58
          1130.96380	        -2.84661e+58
          1131.77010	         5.22106e+58
          1132.57640	         6.25135e+58
          1133.38270	         4.23734e+58
          1134.18900	         3.28230e+58
          1134.99530	         1.90576e+58
          1135.80160	         2.86683e+58
          1136.60790	         3.63806e+58
          1137.41420	         1.52531e+57
          1138.22050	         3.73730e+58
          1139.02680	         4.53411e+58
          1139.83310	         1.92688e+58
          1140.63940	         3.40567e+58
          1141.44570	        -1.54509e+58
          1142.25200	        -6.71462e+57
          1143.05830	         9.40559e+57
          1143.86460	         1.86075e+58
          1144.67090	         9.58513e+57
          1145.47720	         1.79208e+58
          1146.28350	         1.04307e+58
          1147.08980	         7.49739e+57
          1147.89610	         1.62204e+58
          1148.70240	         2.67706e+58
          1149.50870	         3.10568e+58
          1150.31500	         1.93828e+58
          1151.12130	        -5.51889e+55
          1151.92760	         5.08038e+56
          1152.73390	         2.51969e+57
          1153.54020	        -5.41722e+57
          1154.34650	         1.78893e+58
          1155.15280	         1.35970e+58
          1155.95910	         6.94997e+57
          1156.76540	         3.27919e+57
          1157.57170	         7.23689e+57
          1158.37800	         1.40695e+58
          1159.18430	         1.23510e+57
          1159.99060	         1.16767e+58
          1160.79690	         1.52599e+58
          1161.60320	         1.57073e+58
          1162.40950	         1.97462e+58
          1163.21580	         2.59174e+58
          1164.02210	         1.40099e+58
          1164.82840	         1.03491e+58
          1165.63470	         1.61955e+58
          1166.44100	         2.61671e+58
          1167.24730	         2.04161e+58
          1168.05360	         9.71029e+57
          1168.85990	         1.31798e+58
          1169.66620	         8.48592e+57
          1170.47250	         1.44656e+58
          1171.27880	         1.30883e+58
          1172.08510	         1.38042e+58
          1172.89140	         1.24236e+58
          1173.69770	         1.36530e+57
          1174.50400	         1.24425e+58
          1175.31030	         1.83223e+58
          1176.11660	         1.79764e+58
          1176.92290	         1.35155e+58
          1177.72920	         7.88393e+57
          1178.53550	         6.16577e+57
          1179.34180	         1.03223e+57
          1180.14810	         5.90381e+57
          1180.95440	         9.55616e+57
          1181.76070	         1.14354e+58
          1182.56700	         1.55373e+58
          1183.37330	         1.36539e+58
          1184.17960	         1.32509e+58
          1184.98590	         1.09272e+58
          1185.79220	         8.74769e+57
          1186.59850	         1.30516e+58
          1187.40480	         1.44721e+58
          1188.21110	         2.01177e+58
          1189.01740	         1.16972e+58
          1189.82370	         7.44709e+57
          1190.63000	         9.75810e+57
          1191.43630	         1.09939e+58
          1192.24260	         1.08683e+58
          1193.04890	         1.43108e+58
          1193.85520	         1.39219e+58
          1194.66150	         8.69825e+57
          1195.46780	         1.27405e+58
          1196.27410	         1.58044e+58
          1197.08040	         1.21714e+58
          1197.88670	         1.33135e+58
          1198.69300	         9.70735e+57
          1199.49930	         1.02825e+58
          1200.30560	         8.38033e+57
          1201.11190	         1.18165e+58
          1201.91820	         1.60523e+58
          1202.72450	         1.13444e+58
          1203.53080	         1.30011e+58
          1204.33710	         9.44629e+57
          1205.14340	         6.54494e+57
          1205.94970	         8.37317e+57
          1206.75600	         6.20676e+57
          1207.56230	         4.27109e+57
          1208.36860	         7.81061e+57
          1209.17490	         3.53214e+57
          1209.98120	         2.65606e+57
          1210.78750	         1.14900e+58
          1211.59380	         1.20938e+58
          1212.40010	         1.74722e+58
          1213.20640	         1.79581e+58
          1214.01270	         2.05819e+58
          1214.81900	         2.61572e+58
          1215.62530	         4.06027e+58
          1216.43160	         9.03924e+58
          1217.23790	         1.53828e+59
          1218.04420	         1.12216e+59
          1218.85050	         8.99242e+58
          1219.65680	         6.20492e+58
          1220.46310	         3.49766e+58
          1221.26940	         2.18443e+58
          1222.07570	         1.43902e+58
          1222.88200	         1.33859e+58
          1223.68830	         7.62641e+57
          1224.49460	         4.72283e+57
          1225.30090	         6.76339e+57
          1226.10720	         5.52406e+57
          1226.91350	         6.35299e+57
          1227.71980	         9.30621e+57
          1228.52610	         1.09211e+58
          1229.33240	         1.09093e+58
          1230.13870	         1.15439e+58
          1230.94500	         7.90635e+57
          1231.75130	         7.31583e+57
          1232.55760	         8.71297e+57
          1233.36390	         8.03295e+57
          1234.17020	         8.15700e+57
          1234.97650	         7.73943e+57
          1235.78280	         7.77021e+57
          1236.58910	         9.39532e+57
          1237.39540	         1.20630e+58
          1238.20170	         1.20768e+58
          1239.00800	         1.40001e+58
          1239.81430	         1.77415e+58
          1240.62060	         1.49692e+58
          1241.42690	         1.28611e+58
          1242.23320	         1.26413e+58
          1243.03950	         8.02450e+57
          1243.84580	         9.04536e+57
          1244.65210	         7.63669e+57
          1245.45840	         7.68693e+57
          1246.26470	         1.06817e+58
          1247.07100	         8.17242e+57
          1247.87730	         6.03156e+57
          1248.68360	         6.86415e+57
          1249.48990	         9.81656e+57
          1250.29620	         9.06507e+57
          1251.10250	         7.27375e+57
          1251.90880	         4.68716e+57
          1252.71510	         5.17922e+57
          1253.52140	         7.25337e+57
          1254.32770	         9.06979e+57
          1255.13400	         1.23178e+58
          1255.94030	         1.29305e+58
          1256.74660	         8.83630e+57
          1257.55290	         8.47578e+57
          1258.35920	         8.71944e+57
          1259.16550	         5.92426e+57
          1259.97180	         5.94861e+57
          1260.77810	         9.56949e+57
          1261.58440	         8.87921e+57
          1262.39070	         6.80735e+57
          1263.19700	         9.21835e+57
          1264.00330	         9.84462e+57
          1264.80960	         1.09917e+58
          1265.61590	         1.33491e+58
          1266.42220	         1.23285e+58
          1267.22850	         9.51222e+57
          1268.03480	         1.40432e+58
          1268.84110	         1.79027e+58
          1269.64740	         1.55346e+58
          1270.45370	         1.36049e+58
          1271.26000	         1.26015e+58
          1272.06630	         1.34815e+58
          1272.87260	         1.28523e+58
          1273.67890	         1.35928e+58
          1274.48520	         1.28840e+58
          1275.29150	         1.22864e+58
          1276.09780	         1.04414e+58
          1276.90410	         1.47109e+58
          1277.71040	         1.52857e+58
          1278.51670	         1.29892e+58
          1279.32300	         1.31842e+58
          1280.12930	         1.30040e+58
          1280.93560	         1.24550e+58
          1281.74190	         1.07633e+58
          1282.54820	         1.10501e+58
          1283.35450	         1.10493e+58
          1284.16080	         1.18180e+58
          1284.96710	         1.31336e+58
          1285.77340	         1.15294e+58
          1286.57970	         1.04715e+58
          1287.38600	         1.21664e+58
          1288.19230	         1.70078e+58
          1288.99860	         1.85618e+58
          1289.80490	         1.26654e+58
          1290.61120	         1.32617e+58
          1291.41750	         1.51186e+58
          1292.22380	         1.31584e+58
          1293.03010	         1.17223e+58
          1293.83640	         1.09810e+58
          1294.64270	         1.07741e+58
          1295.44900	         1.01148e+58
          1296.25530	         7.59439e+57
          1297.06160	         7.76169e+57
          1297.86790	         9.74920e+57
          1298.67420	         8.86169e+57
          1299.48050	         9.39365e+57
          1300.28680	         9.55793e+57
          1301.09310	         7.68797e+57
          1301.89940	         4.44999e+57
          1302.70570	         7.03590e+57
          1303.51200	         9.06605e+57
          1304.31830	         9.57488e+57
          1305.12460	         9.40379e+57
          1305.93090	         1.10817e+58
          1306.73720	         1.12706e+58
          1307.54350	         1.36980e+58
          1308.34980	         1.47383e+58
          1309.15610	         1.38381e+58
          1309.96240	         1.46990e+58
          1310.76870	         1.48379e+58
          1311.57500	         1.24473e+58
          1312.38130	         1.09879e+58
          1313.18760	         1.18299e+58
          1313.99390	         1.41702e+58
          1314.80020	         1.52346e+58
          1315.60650	         1.47602e+58
          1316.41280	         1.41296e+58
          1317.21910	         1.14284e+58
          1318.02540	         1.21724e+58
          1318.83170	         1.30698e+58
          1319.63800	         1.22700e+58
          1320.44430	         1.19699e+58
          1321.25060	         1.28770e+58
          1322.05690	         1.24222e+58
          1322.86320	         1.09568e+58
          1323.66950	         1.16206e+58
          1324.47580	         9.25771e+57
          1325.28210	         8.99699e+57
          1326.08840	         1.21582e+58
          1326.89470	         1.40711e+58
          1327.70100	         1.07433e+58
          1328.50730	         8.15022e+57
          1329.31360	         9.83335e+57
          1330.11990	         1.04178e+58
          1330.92620	         1.05309e+58
          1331.73250	         1.21747e+58
          1332.53880	         1.02288e+58
          1333.34510	         9.01552e+57
          1334.15140	         8.99201e+57
          1334.95770	         1.00510e+58
          1335.76400	         1.12298e+58
          1336.57030	         1.17252e+58
          1337.37660	         1.06925e+58
          1338.18290	         1.11549e+58
          1338.98920	         1.20873e+58
          1339.79550	         1.14988e+58
          1340.60180	         1.13891e+58
          1341.40810	         1.35971e+58
          1342.21440	         1.35103e+58
          1343.02070	         1.19187e+58
          1343.82700	         1.25502e+58
          1344.63330	         1.33582e+58
          1345.43960	         1.45933e+58
          1346.24590	         1.32422e+58
          1347.05220	         1.26856e+58
          1347.85850	         1.19532e+58
          1348.66480	         1.30350e+58
          1349.47110	         1.31303e+58
          1350.27740	         1.16073e+58
          1351.08370	         1.11757e+58
          1351.89000	         1.27168e+58
          1352.69630	         1.21660e+58
          1353.50260	         1.24908e+58
          1354.30890	         1.20656e+58
          1355.11520	         1.20436e+58
          1355.92150	         1.15957e+58
          1356.72780	         1.11768e+58
          1357.53410	         1.05446e+58
          1358.34040	         1.10174e+58
          1359.14670	         1.11495e+58
          1359.95300	         1.29385e+58
          1360.75930	         1.17402e+58
          1361.56560	         1.04542e+58
          1362.37190	         1.10934e+58
          1363.17820	         1.03329e+58
          1363.98450	         1.04241e+58
          1364.79080	         1.22305e+58
          1365.59710	         1.39339e+58
          1366.40340	         1.08300e+58
          1367.20970	         9.03574e+57
          1368.01600	         9.09910e+57
          1368.82230	         1.04702e+58
          1369.62860	         1.05258e+58
          1370.43490	         8.10365e+57
          1371.24120	         9.21227e+57
          1372.04750	         9.79240e+57
          1372.85380	         9.73300e+57
          1373.66010	         1.09966e+58
          1374.46640	         1.11337e+58
          1375.27270	         1.04614e+58
          1376.07900	         9.69530e+57
          1376.88530	         8.64335e+57
          1377.69160	         8.55440e+57
          1378.49790	         8.38469e+57
          1379.30420	         9.32653e+57
          1380.11050	         1.02551e+58
          1380.91680	         9.29089e+57
          1381.72310	         7.21934e+57
          1382.52940	         7.81116e+57
          1383.33570	         7.65061e+57
          1384.14200	         8.99420e+57
          1384.94830	         1.02515e+58
          1385.75460	         1.05379e+58
          1386.56090	         1.06662e+58
          1387.36720	         9.34018e+57
          1388.17350	         1.16310e+58
          1388.97980	         1.05583e+58
          1389.78610	         8.66506e+57
          1390.59240	         8.42754e+57
          1391.39870	         7.37528e+57
          1392.20500	         8.66478e+57
          1393.01130	         8.30873e+57
          1393.81760	         6.81320e+57
          1394.62390	         6.20283e+57
          1395.43020	         6.15307e+57
          1396.23650	         6.67277e+57
          1397.04280	         6.82877e+57
          1397.84910	         6.84647e+57
          1398.65540	         8.04247e+57
          1399.46170	         9.64108e+57
          1400.26800	         7.09037e+57
          1401.07430	         7.25415e+57
          1401.88060	         7.94660e+57
          1402.68690	         8.93953e+57
          1403.49320	         9.24717e+57
          1404.29950	         8.81115e+57
          1405.10580	         1.10266e+58
          1405.91210	         1.09655e+58
          1406.71840	         9.90591e+57
          1407.52470	         9.97143e+57
          1408.33100	         1.06378e+58
          1409.13730	         1.09513e+58
          1409.94360	         9.77769e+57
          1410.74990	         1.07504e+58
          1411.55620	         1.04773e+58
          1412.36250	         8.27379e+57
          1413.16880	         7.48600e+57
          1413.97510	         7.93223e+57
          1414.78140	         8.89185e+57
          1415.58770	         1.00671e+58
          1416.39400	         1.13399e+58
          1417.20030	         1.03879e+58
          1418.00660	         8.63734e+57
          1418.81290	         8.07867e+57
          1419.61920	         9.07510e+57
          1420.42550	         1.33525e+58
          1421.23180	         1.39947e+58
          1422.03810	         1.22943e+58
          1422.84440	         1.12267e+58
          1423.65070	         1.17928e+58
          1424.45700	         1.07049e+58
          1425.26330	         8.78376e+57
          1426.06960	         8.48339e+57
          1426.87590	         1.01180e+58
          1427.68220	         1.09900e+58
          1428.48850	         1.16504e+58
          1429.29480	         1.10248e+58
          1430.10110	         9.09976e+57
          1430.90740	         8.71564e+57
          1431.71370	         9.18757e+57
          1432.52000	         7.90853e+57
          1433.32630	         7.80107e+57
          1434.13260	         8.05736e+57
          1434.93890	         8.81250e+57
          1435.74520	         9.02761e+57
          1436.55150	         9.72883e+57
          1437.35780	         9.28406e+57
          1438.16410	         9.13015e+57
          1438.97040	         9.56364e+57
          1439.77670	         8.51518e+57
          1440.58300	         8.02709e+57
          1441.38930	         1.03603e+58
          1442.19560	         1.12489e+58
          1443.00190	         1.05971e+58
          1443.80820	         1.07236e+58
          1444.61450	         9.36664e+57
          1445.42080	         8.37538e+57
          1446.22710	         1.03216e+58
          1447.03340	         9.77342e+57
          1447.83970	         9.76997e+57
          1448.64600	         9.62430e+57
          1449.45230	         9.76450e+57
          1450.25860	         9.97271e+57
          1451.06490	         8.56399e+57
          1451.87120	         7.44490e+57
          1452.67750	         6.86916e+57
          1453.48380	         8.37516e+57
          1454.29010	         8.39509e+57
          1455.09640	         6.88890e+57
          1455.90270	         8.38666e+57
          1456.70900	         8.74603e+57
          1457.51530	         1.01256e+58
          1458.32160	         1.29159e+58
          1459.12790	         1.18674e+58
          1459.93420	         1.05548e+58
          1460.74050	         8.45325e+57
          1461.54680	         8.01827e+57
          1462.35310	         7.94358e+57
          1463.15940	         9.53017e+57
          1463.96570	         1.03446e+58
          1464.77200	         1.09867e+58
          1465.57830	         1.13861e+58
          1466.38460	         9.10663e+57
          1467.19090	         8.82131e+57
          1467.99720	         9.04290e+57
          1468.80350	         9.26816e+57
          1469.60980	         1.02860e+58
          1470.41610	         1.07888e+58
          1471.22240	         9.61270e+57
          1472.02870	         9.97135e+57
          1472.83500	         9.46605e+57
          1473.64130	         8.96527e+57
          1474.44760	         9.92220e+57
          1475.25390	         9.47495e+57
          1476.06020	         9.44183e+57
          1476.86650	         9.30787e+57
          1477.67280	         8.33639e+57
          1478.47910	         7.70117e+57
          1479.28540	         6.44599e+57
          1480.09170	         7.38637e+57
          1480.89800	         8.38023e+57
          1481.70430	         7.83679e+57
          1482.51060	         8.35540e+57
          1483.31690	         7.82868e+57
          1484.12320	         8.24481e+57
          1484.92950	         8.77694e+57
          1485.73580	         8.87311e+57
          1486.54210	         8.13023e+57
          1487.34840	         9.13526e+57
          1488.15470	         9.25632e+57
          1488.96100	         9.54119e+57
          1489.76730	         8.74916e+57
          1490.57360	         7.90490e+57
          1491.37990	         7.25743e+57
          1492.18620	         8.06525e+57
          1492.99250	         8.55092e+57
          1493.79880	         9.46691e+57
          1494.60510	         1.00374e+58
          1495.41140	         8.73692e+57
          1496.21770	         8.57137e+57
          1497.02400	         1.02881e+58
          1497.83030	         8.84072e+57
          1498.63660	         7.34984e+57
          1499.44290	         7.25171e+57
          1500.24920	         6.94607e+57
          1501.05550	         7.72987e+57
          1501.86180	         9.24128e+57
          1502.66810	         9.21699e+57
          1503.47440	         8.81388e+57
          1504.28070	         8.96637e+57
          1505.08700	         9.35965e+57
          1505.89330	         9.89911e+57
          1506.69960	         8.80253e+57
          1507.50590	         8.49981e+57
          1508.31220	         7.30886e+57
          1509.11850	         8.37817e+57
          1509.92480	         9.08386e+57
          1510.73110	         9.13139e+57
          1511.53740	         7.15041e+57
          1512.34370	         6.21983e+57
          1513.15000	         8.80930e+57
          1513.95630	         1.02605e+58
          1514.76260	         9.37625e+57
          1515.56890	         7.68941e+57
          1516.37520	         7.96586e+57
          1517.18150	         8.76977e+57
          1517.98780	         8.16885e+57
          1518.79410	         6.73391e+57
          1519.60040	         7.72275e+57
          1520.40670	         1.02329e+58
          1521.21300	         9.48374e+57
          1522.01930	         8.19992e+57
          1522.82560	         8.79258e+57
          1523.63190	         9.91125e+57
          1524.43820	         8.55566e+57
          1525.24450	         5.99822e+57
          1526.05080	         5.07732e+57
          1526.85710	         5.83259e+57
          1527.66340	         7.38035e+57
          1528.46970	         8.56640e+57
          1529.27600	         7.78718e+57
          1530.08230	         7.97416e+57
          1530.88860	         8.26459e+57
          1531.69490	         8.66310e+57
          1532.50120	         8.55930e+57
          1533.30750	         9.64988e+57
          1534.11380	         9.39303e+57
          1534.92010	         8.30478e+57
          1535.72640	         9.25053e+57
          1536.53270	         9.47840e+57
          1537.33900	         8.99620e+57
          1538.14530	         8.97957e+57
          1538.95160	         8.54619e+57
          1539.75790	         8.41986e+57
          1540.56420	         8.61291e+57
          1541.37050	         8.43068e+57
          1542.17680	         8.25262e+57
          1542.98310	         8.34816e+57
          1543.78940	         8.24678e+57
          1544.59570	         6.70483e+57
          1545.40200	         8.13460e+57
          1546.20830	         9.25187e+57
          1547.01460	         9.99576e+57
          1547.82090	         1.11259e+58
          1548.62720	         1.24084e+58
          1549.43350	         1.22843e+58
          1550.23980	         1.04996e+58
          1551.04610	         1.16080e+58
          1551.85240	         1.14479e+58
          1552.65870	         1.13870e+58
          1553.46500	         1.06627e+58
          1554.27130	         1.03851e+58
          1555.07760	         1.01122e+58
          1555.88390	         8.36487e+57
          1556.69020	         8.70861e+57
          1557.49650	         9.07676e+57
          1558.30280	         8.59560e+57
          1559.10910	         8.97088e+57
          1559.91540	         9.46051e+57
          1560.72170	         8.52099e+57
          1561.52800	         8.10901e+57
          1562.33430	         8.25540e+57
          1563.14060	         8.04666e+57
          1563.94690	         7.52379e+57
          1564.75320	         8.51964e+57
          1565.55950	         7.42584e+57
          1566.36580	         7.49072e+57
          1567.17210	         9.47402e+57
          1567.97840	         9.95602e+57
          1568.78470	         8.95862e+57
          1569.59100	         8.62998e+57
          1570.39730	         8.71771e+57
          1571.20360	         7.19054e+57
          1572.00990	         7.69575e+57
          1572.81620	         9.51013e+57
          1573.62250	         9.96283e+57
          1574.42880	         9.20565e+57
          1575.23510	         7.91376e+57
          1576.04140	         8.42888e+57
          1576.84770	         9.29601e+57
          1577.65400	         8.95530e+57
          1578.46030	         9.44039e+57
          1579.26660	         1.02487e+58
          1580.07290	         9.56328e+57
          1580.87920	         7.26906e+57
          1581.68550	         7.93987e+57
          1582.49180	         8.69118e+57
          1583.29810	         8.10746e+57
          1584.10440	         8.79021e+57
          1584.91070	         8.74169e+57
          1585.71700	         8.86045e+57
          1586.52330	         9.51503e+57
          1587.32960	         9.22071e+57
          1588.13590	         9.26278e+57
          1588.94220	         8.68910e+57
          1589.74850	         8.63107e+57
          1590.55480	         8.97740e+57
          1591.36110	         8.44964e+57
          1592.16740	         8.52694e+57
          1592.97370	         8.83304e+57
          1593.78000	         9.06493e+57
          1594.58630	         9.65488e+57
          1595.39260	         9.40623e+57
          1596.19890	         8.94683e+57
          1597.00520	         9.28876e+57
          1597.81150	         8.71078e+57
          1598.61780	         7.05800e+57
          1599.42410	         6.30283e+57
          1600.23040	         6.37344e+57
          1601.03670	         7.12125e+57
          1601.84300	         7.08436e+57
          1602.64930	         7.72465e+57
          1603.45560	         8.40677e+57
          1604.26190	         8.51853e+57
          1605.06820	         8.76699e+57
          1605.87450	         7.39502e+57
          1606.68080	         6.91531e+57
          1607.48710	         5.86908e+57
          1608.29340	         5.76640e+57
          1609.09970	         6.17153e+57
          1609.90600	         6.93223e+57
          1610.71230	         7.53257e+57
          1611.51860	         7.25341e+57
          1612.32490	         7.22047e+57
          1613.13120	         8.83179e+57
          1613.93750	         8.81677e+57
          1614.74380	         8.54052e+57
          1615.55010	         8.25664e+57
          1616.35640	         9.04733e+57
          1617.16270	         1.04359e+58
          1617.96900	         1.05932e+58
          1618.77530	         8.73874e+57
          1619.58160	         7.83447e+57
          1620.38790	         7.65873e+57
          1621.19420	         7.89572e+57
          1622.00050	         7.53516e+57
          1622.80680	         8.87558e+57
          1623.61310	         9.28645e+57
          1624.41940	         7.99330e+57
          1625.22570	         9.55566e+57
          1626.03200	         9.05559e+57
          1626.83830	         8.21011e+57
          1627.64460	         7.76671e+57
          1628.45090	         5.60833e+57
          1629.25720	         7.94474e+57
          1630.06350	         1.11550e+58
          1630.86980	         7.57009e+57
          1631.67610	         7.78689e+57
          1632.48240	         8.75266e+57
          1633.28870	         8.35318e+57
          1634.09500	         9.17587e+57
          1634.90130	         9.37205e+57
          1635.70760	         8.33951e+57
          1636.51390	         7.89900e+57
          1637.32020	         8.12036e+57
          1638.12650	         9.34402e+57
          1638.93280	         1.00901e+58
          1639.73910	         9.85312e+57
          1640.54540	         9.91269e+57
          1641.35170	         8.84499e+57
          1642.15800	         9.29078e+57
          1642.96430	         8.95726e+57
          1643.77060	         8.48922e+57
          1644.57690	         7.42903e+57
          1645.38320	         9.08054e+57
          1646.18950	         7.87024e+57
          1646.99580	         7.69892e+57
          1647.80210	         7.63230e+57
          1648.60840	         7.58567e+57
          1649.41470	         8.24396e+57
          1650.22100	         7.45497e+57
          1651.02730	         7.45110e+57
          1651.83360	         7.86146e+57
          1652.63990	         8.93087e+57
          1653.44620	         8.91594e+57
          1654.25250	         7.01515e+57
          1655.05880	         6.90913e+57
          1655.86510	         7.65459e+57
          1656.67140	         8.75211e+57
          1657.47770	         8.38703e+57
          1658.28400	         9.22058e+57
          1659.09030	         9.95850e+57
          1659.89660	         9.15920e+57
          1660.70290	         9.73103e+57
          1661.50920	         1.01313e+58
          1662.31550	         8.62208e+57
          1663.12180	         7.88669e+57
          1663.92810	         9.10747e+57
          1664.73440	         1.08153e+58
          1665.54070	         1.23930e+58
          1666.34700	         1.28703e+58
          1667.15330	         1.17512e+58
          1667.95960	         9.49643e+57
          1668.76590	         7.60250e+57
          1669.57220	         6.48271e+57
          1670.37850	         7.47782e+57
          1671.18480	         7.67656e+57
          1671.99110	         7.54839e+57
          1672.79740	         6.92068e+57
          1673.60370	         6.55424e+57
          1674.41000	         7.27512e+57
          1675.21630	         8.04661e+57
          1676.02260	         7.30357e+57
          1676.82890	         6.50769e+57
          1677.63520	         7.51927e+57
          1678.44150	         8.16810e+57
          1679.24780	         8.59644e+57
          1680.05410	         8.03403e+57
          1680.86040	         6.96341e+57
          1681.66670	         7.88534e+57
          1682.47300	         8.16778e+57
          1683.27930	         8.19571e+57
          1684.08560	         9.11820e+57
          1684.89190	         7.58987e+57
          1685.69820	         5.13515e+57
          1686.50450	         5.06938e+57
          1687.31080	         5.29482e+57
          1688.11710	         7.15831e+57
          1688.92340	         6.88225e+57
          1689.72970	         6.58576e+57
          1690.53600	         7.68214e+57
          1691.34230	         8.65097e+57
          1692.14860	         8.60368e+57
          1692.95490	         7.77680e+57
          1693.76120	         7.16314e+57
          1694.56750	         6.88720e+57
          1695.37380	         7.98342e+57
          1696.18010	         8.75468e+57
          1696.98640	         8.58541e+57
          1697.79270	         8.76797e+57
          1698.59900	         7.86910e+57
          1699.40530	         6.16939e+57
          1700.21160	         6.92820e+57
          1701.01790	         7.87799e+57
          1701.82420	         7.13812e+57
          1702.63050	         7.66051e+57
          1703.43680	         7.31919e+57
          1704.24310	         8.31137e+57
          1705.04940	         8.80843e+57
          1705.85570	         8.09673e+57
          1706.66200	         8.24531e+57
          1707.46830	         7.50991e+57
          1708.27460	         6.25411e+57
          1709.08090	         6.50421e+57
          1709.88720	         6.82554e+57
          1710.69350	         6.35965e+57
          1711.49980	         6.82864e+57
          1712.30610	         7.07786e+57
          1713.11240	         8.40925e+57
          1713.91870	         7.86425e+57
          1714.72500	         8.42578e+57
          1715.53130	         9.41560e+57
          1716.33760	         7.70765e+57
          1717.14390	         7.10664e+57
          1717.95020	         9.03454e+57
          1718.75650	         8.97234e+57
          1719.56280	         9.21343e+57
          1720.36910	         7.50378e+57
          1721.17540	         6.87648e+57
          1721.98170	         5.49088e+57
          1722.78800	         6.76241e+57
          1723.59430	         7.96831e+57
          1724.40060	         8.20590e+57
          1725.20690	         8.16132e+57
          1726.01320	         7.91446e+57
          1726.81950	         7.79988e+57
          1727.62580	         7.27578e+57
          1728.43210	         7.01866e+57
          1729.23840	         7.05759e+57
          1730.04470	         7.86056e+57
          1730.85100	         8.80892e+57
          1731.65730	         8.23028e+57
          1732.46360	         7.76088e+57
          1733.26990	         7.32354e+57
          1734.07620	         7.31976e+57
          1734.88250	         8.51856e+57
          1735.68880	         7.60462e+57
          1736.49510	         8.23053e+57
          1737.30140	         8.32676e+57
          1738.10770	         6.99940e+57
          1738.91400	         7.36385e+57
          1739.72030	         6.95952e+57
          1740.52660	         5.78516e+57
          1741.33290	         5.79925e+57
          1742.13920	         7.21016e+57
          1742.94550	         8.41274e+57
          1743.75180	         8.36259e+57
          1744.55810	         8.07363e+57
          1745.36440	         7.41719e+57
          1746.17070	         5.60026e+57
          1746.97700	         4.79887e+57
          1747.78330	         7.03189e+57
          1748.58960	         7.59935e+57
          1749.39590	         6.90061e+57
          1750.20220	         6.26256e+57
          1751.00850	         6.87969e+57
          1751.81480	         7.68344e+57
          1752.62110	         7.38539e+57
          1753.42740	         7.13061e+57
          1754.23370	         6.90565e+57
          1755.04000	         7.87605e+57
          1755.84630	         8.93408e+57
          1756.65260	         9.72866e+57
          1757.45890	         8.92165e+57
          1758.26520	         6.95590e+57
          1759.07150	         8.71124e+57
          1759.87780	         8.76694e+57
          1760.68410	         9.20627e+57
          1761.49040	         8.97902e+57
          1762.29670	         6.05583e+57
          1763.10300	         6.80326e+57
          1763.90930	         7.28537e+57
          1764.71560	         8.12565e+57
          1765.52190	         7.73178e+57
          1766.32820	         7.31910e+57
          1767.13450	         7.18476e+57
          1767.94080	         7.04685e+57
          1768.74710	         6.50457e+57
          1769.55340	         7.19607e+57
          1770.35970	         7.13522e+57
          1771.16600	         8.19486e+57
          1771.97230	         8.86314e+57
          1772.77860	         8.82857e+57
          1773.58490	         7.81971e+57
          1774.39120	         7.01566e+57
          1775.19750	         5.96482e+57
          1776.00380	         5.94381e+57
          1776.81010	         6.80502e+57
          1777.61640	         6.56775e+57
          1778.42270	         7.22832e+57
          1779.22900	         6.76498e+57
          1780.03530	         6.47837e+57
          1780.84160	         6.54039e+57
          1781.64790	         8.22438e+57
          1782.45420	         7.85981e+57
          1783.26050	         6.60284e+57
          1784.06680	         6.61061e+57
          1784.87310	         6.87575e+57
          1785.67940	         6.53668e+57
          1786.48570	         5.95824e+57
          1787.29200	         6.12972e+57
          1788.09830	         5.44977e+57
          1788.90460	         5.30550e+57
          1789.71090	         6.02021e+57
          1790.51720	         5.74365e+57
          1791.32350	         6.83130e+57
          1792.12980	         9.27577e+57
          1792.93610	         9.27900e+57
          1793.74240	         7.77517e+57
          1794.54870	         8.67055e+57
          1795.35500	         8.51719e+57
          1796.16130	         8.50761e+57
          1796.96760	         7.53902e+57
          1797.77390	         6.84899e+57
          1798.58020	         7.24758e+57
          1799.38650	         6.61582e+57
          1800.19280	         7.01415e+57
          1800.99910	         7.09822e+57
          1801.80540	         6.56908e+57
          1802.61170	         6.70365e+57
          1803.41800	         8.71439e+57
          1804.22430	         8.07261e+57
          1805.03060	         7.08102e+57
          1805.83690	         7.06814e+57
          1806.64320	         6.62624e+57
          1807.44950	         7.05845e+57
          1808.25580	         7.37682e+57
          1809.06210	         7.47719e+57
          1809.86840	         6.68671e+57
          1810.67470	         6.05659e+57
          1811.48100	         8.18918e+57
          1812.28730	         7.59540e+57
          1813.09360	         7.09725e+57
          1813.89990	         8.72955e+57
          1814.70620	         8.04918e+57
          1815.51250	         8.12502e+57
          1816.31880	         8.87349e+57
          1817.12510	         8.70329e+57
          1817.93140	         7.06294e+57
          1818.73770	         6.17064e+57
          1819.54400	         7.82572e+57
          1820.35030	         8.09904e+57
          1821.15660	         6.44659e+57
          1821.96290	         5.87020e+57
          1822.76920	         7.13777e+57
          1823.57550	         7.86555e+57
          1824.38180	         7.61603e+57
          1825.18810	         7.69430e+57
          1825.99440	         8.42196e+57
          1826.80070	         7.71713e+57
          1827.60700	         6.73895e+57
          1828.41330	         6.47350e+57
          1829.21960	         6.45989e+57
          1830.02590	         6.75352e+57
          1830.83220	         7.66941e+57
          1831.63850	         7.97064e+57
          1832.44480	         8.42212e+57
          1833.25110	         8.64011e+57
          1834.05740	         8.71253e+57
          1834.86370	         7.15955e+57
          1835.67000	         6.22659e+57
          1836.47630	         7.63184e+57
          1837.28260	         9.01420e+57
          1838.08890	         9.03025e+57
          1838.89520	         8.69552e+57
          1839.70150	         7.38157e+57
          1840.50780	         7.18800e+57
          1841.31410	         7.22041e+57
          1842.12040	         6.91756e+57
          1842.92670	         7.26731e+57
          1843.73300	         6.79747e+57
          1844.53930	         6.76883e+57
          1845.34560	         6.93134e+57
          1846.15190	         7.31128e+57
          1846.95820	         8.43578e+57
          1847.76450	         7.64628e+57
          1848.57080	         6.01266e+57
          1849.37710	         6.03771e+57
          1850.18340	         6.99546e+57
          1850.98970	         7.98889e+57
          1851.79600	         7.82834e+57
          1852.60230	         6.07085e+57
          1853.40860	         7.13100e+57
          1854.21490	         7.14834e+57
          1855.02120	         6.12741e+57
          1855.82750	         4.59855e+57
          1856.63380	         6.33654e+57
          1857.44010	         6.86125e+57
          1858.24640	         8.01003e+57
          1859.05270	         7.49590e+57
          1859.85900	         4.91861e+57
          1860.66530	         6.21523e+57
          1861.47160	         7.46329e+57
          1862.27790	         7.36439e+57
          1863.08420	         8.28548e+57
          1863.89050	         8.15537e+57
          1864.69680	         7.15711e+57
          1865.50310	         6.83178e+57
          1866.30940	         6.35299e+57
          1867.11570	         6.22282e+57
          1867.92200	         7.27763e+57
          1868.72830	         7.71788e+57
          1869.53460	         7.12694e+57
          1870.34090	         7.66561e+57
          1871.14720	         7.84938e+57
          1871.95350	         7.71003e+57
          1872.75980	         7.75575e+57
          1873.56610	         7.07951e+57
          1874.37240	         6.09987e+57
          1875.17870	         5.89627e+57
          1875.98500	         7.44772e+57
          1876.79130	         7.93940e+57
          1877.59760	         7.26575e+57
          1878.40390	         5.76219e+57
          1879.21020	         5.61616e+57
          1880.01650	         7.29322e+57
          1880.82280	         8.41871e+57
          1881.62910	         8.73896e+57
          1882.43540	         8.93350e+57
          1883.24170	         7.52973e+57
          1884.04800	         6.71656e+57
          1884.85430	         7.47240e+57
          1885.66060	         7.96855e+57
          1886.46690	         8.21236e+57
          1887.27320	         8.24405e+57
          1888.07950	         6.92480e+57
          1888.88580	         8.00924e+57
          1889.69210	         8.91195e+57
          1890.49840	         7.99310e+57
          1891.30470	         7.68193e+57
          1892.11100	         8.73854e+57
          1892.91730	         8.73190e+57
          1893.72360	         7.66315e+57
          1894.52990	         7.23832e+57
          1895.33620	         7.96329e+57
          1896.14250	         7.04376e+57
          1896.94880	         5.32645e+57
          1897.75510	         3.75219e+57
          1898.56140	         4.86824e+57
          1899.36770	         7.87632e+57
          1900.17400	         6.60193e+57
          1900.98030	         6.01814e+57
          1901.78660	         7.69764e+57
          1902.59290	         7.09340e+57
          1903.39920	         7.85332e+57
          1904.20550	         8.31137e+57
          1905.01180	         8.71443e+57
          1905.81810	         1.05502e+58
          1906.62440	         1.22696e+58
          1907.43070	         1.52141e+58
          1908.23700	         1.62030e+58
          1909.04330	         1.36341e+58
          1909.84960	         1.13729e+58
          1910.65590	         1.01427e+58
          1911.46220	         9.56302e+57
          1912.26850	         6.91559e+57
          1913.07480	         5.74203e+57
          1913.88110	         6.15675e+57
          1914.68740	         6.10189e+57
          1915.49370	         5.54776e+57
          1916.30000	         6.09270e+57
          1917.10630	         7.22106e+57
          1917.91260	         6.67915e+57
          1918.71890	         6.37341e+57
          1919.52520	         7.27543e+57
          1920.33150	         6.29723e+57
          1921.13780	         7.47788e+57
          1921.94410	         7.76294e+57
          1922.75040	         7.31897e+57
          1923.55670	         7.71275e+57
          1924.36300	         7.11144e+57
          1925.16930	         5.69531e+57
          1925.97560	         4.35022e+57
          1926.78190	         3.40521e+57
          1927.58820	         5.17209e+57
          1928.39450	         6.05155e+57
          1929.20080	         5.91561e+57
          1930.00710	         7.55040e+57
          1930.81340	         8.08937e+57
          1931.61970	         7.37156e+57
          1932.42600	         7.97794e+57
          1933.23230	         8.83190e+57
          1934.03860	         7.54069e+57
          1934.84490	         6.30125e+57
          1935.65120	         7.62545e+57
          1936.45750	         8.03032e+57
          1937.26380	         6.26562e+57
          1938.07010	         6.21442e+57
          1938.87640	         7.33380e+57
          1939.68270	         7.92066e+57
          1940.48900	         7.83093e+57
          1941.29530	         8.82100e+57
          1942.10160	         8.34918e+57
          1942.90790	         6.53943e+57
          1943.71420	         6.33697e+57
          1944.52050	         6.51273e+57
          1945.32680	         5.61952e+57
          1946.13310	         6.85190e+57
          1946.93940	         7.63626e+57
          1947.74570	         7.25034e+57
          1948.55200	         6.79375e+57
          1949.35830	         5.77939e+57
          1950.16460	         6.06770e+57
          1950.97090	         6.74096e+57
          1951.77720	         7.30820e+57
          1952.58350	         8.00012e+57
          1953.38980	         5.89612e+57
          1954.19610	         4.96903e+57
          1955.00240	         5.00069e+57
          1955.80870	         6.38006e+57
          1956.61500	         6.30594e+57
          1957.42130	         5.41224e+57
          1958.22760	         6.44857e+57
          1959.03390	         7.06219e+57
          1959.84020	         7.15504e+57
          1960.64650	         6.93371e+57
          1961.45280	         5.51471e+57
          1962.25910	         5.49439e+57
          1963.06540	         5.45827e+57
          1963.87170	         5.98470e+57
          1964.67800	         7.31652e+57
          1965.48430	         7.47776e+57
          1966.29060	         7.01047e+57
          1967.09690	         6.84945e+57
          1967.90320	         6.02170e+57
          1968.70950	         6.56281e+57
          1969.51580	         6.18905e+57
          1970.32210	         6.42369e+57
          1971.12840	         5.98722e+57
          1971.93470	         5.11938e+57
          1972.74100	         4.48304e+57
          1973.54730	         6.28727e+57
          1974.35360	         6.90983e+57
          1975.15990	         7.73677e+57
          1975.96620	         7.73315e+57
          1976.77250	         8.04431e+57
          1977.57880	         8.34834e+57
          1978.38510	         7.29480e+57
          1979.19140	         6.95055e+57
          1979.99770	         7.57906e+57
          1980.80400	         8.07842e+57
          1981.61030	         7.63081e+57
          1982.41660	         5.58445e+57
          1983.22290	         6.60763e+57
          1984.02920	         5.78991e+57
          1984.83550	         6.04674e+57
          1985.64180	         6.50652e+57
          1986.44810	         7.25991e+57
          1987.25440	         5.45243e+57
          1988.06070	         5.66654e+57
          1988.86700	         5.38269e+57
          1989.67330	         5.41487e+57
          1990.47960	         6.13875e+57
          1991.28590	         6.89175e+57
          1992.09220	         5.89840e+57
          1992.89850	         5.59673e+57
          1993.70480	         5.30075e+57
          1994.51110	         4.21713e+57
          1995.31740	         5.20418e+57
          1996.12370	         5.23775e+57
          1996.93000	         5.59360e+57
          1997.73630	         7.96910e+57
          1998.54260	         8.12147e+57
          1999.34890	         7.45412e+57
          2000.15520	         6.98627e+57
          2000.96150	         6.24190e+57
          2001.76780	         5.36496e+57
          2002.57410	         6.29655e+57
          2003.38040	         7.57213e+57
          2004.18670	         7.37403e+57
          2004.99300	         6.75052e+57
          2005.79930	         7.01016e+57
          2006.60560	         6.79327e+57
          2007.41190	         6.46871e+57
          2008.21820	         7.47434e+57
          2009.02450	         8.15338e+57
          2009.83080	         8.02833e+57
          2010.63710	         7.46808e+57
          2011.44340	         7.79712e+57
          2012.24970	         6.59818e+57
          2013.05600	         6.74618e+57
          2013.86230	         6.49312e+57
          2014.66860	         5.93650e+57
          2015.47490	         5.87725e+57
          2016.28120	         6.25460e+57
          2017.08750	         4.73215e+57
          2017.89380	         5.41517e+57
          2018.70010	         5.40282e+57
          2019.50640	         4.72414e+57
          2020.31270	         6.93356e+57
          2021.11900	         7.95856e+57
          2021.92530	         6.19623e+57
          2022.73160	         6.57974e+57
          2023.53790	         6.92934e+57
          2024.34420	         4.67955e+57
          2025.15050	         5.17074e+57
          2025.95680	         5.32179e+57
          2026.76310	         6.03024e+57
          2027.56940	         6.90280e+57
          2028.37570	         7.41492e+57
          2029.18200	         6.30686e+57
          2029.98830	         5.66012e+57
          2030.79460	         5.08528e+57
          2031.60090	         7.26962e+57
          2032.40720	         7.10215e+57
          2033.21350	         5.15216e+57
          2034.01980	         4.85298e+57
          2034.82610	         4.54538e+57
          2035.63240	         4.74373e+57
          2036.43870	         5.65298e+57
          2037.24500	         6.07877e+57
          2038.05130	         6.81686e+57
          2038.85760	         5.53129e+57
          2039.66390	         5.44824e+57
          2040.47020	         5.45922e+57
          2041.27650	         6.05231e+57
          2042.08280	         6.09502e+57
          2042.88910	         6.23597e+57
          2043.69540	         6.40297e+57
          2044.50170	         5.72071e+57
          2045.30800	         5.66826e+57
          2046.11430	         5.02558e+57
          2046.92060	         6.31578e+57
          2047.72690	         6.71444e+57
          2048.53320	         6.83832e+57
          2049.33950	         6.01025e+57
          2050.14580	         5.92008e+57
          2050.95210	         6.60643e+57
          2051.75840	         8.05806e+57
          2052.56470	         6.77258e+57
          2053.37100	         3.89228e+57
          2054.17730	         5.01354e+57
          2054.98360	         6.18685e+57
          2055.78990	         5.28365e+57
          2056.59620	         4.32141e+57
          2057.40250	         4.83852e+57
          2058.20880	         7.13269e+57
          2059.01510	         6.89244e+57
          2059.82140	         6.01052e+57
          2060.62770	         1.05506e+58
          2061.43400	         1.63276e+58
          2062.24030	         1.20787e+58
          2063.04660	         5.08574e+57
          2063.85290	         1.93593e+57
          2064.65920	        -2.81080e+57
          2065.46550	        -9.25534e+57
          2066.27180	        -8.68247e+57
          2067.07810	         3.53238e+57
          2067.88440	         6.40414e+57
          2068.69070	         6.65344e+57
          2069.49700	         5.87645e+57
          2070.30330	         4.69999e+57
          2071.10960	         3.95120e+57
          2071.91590	         5.87902e+57
          2072.72220	         4.87365e+57
          2073.52850	         4.84707e+57
          2074.33480	         3.83255e+57
          2075.14110	         3.99882e+57
          2075.94740	         4.36660e+57
          2076.75370	         4.10817e+57
          2077.56000	         5.16934e+57
          2078.36630	         6.28961e+57
          2079.17260	         4.87819e+57
          2079.97890	         5.92455e+57
          2080.78520	         4.47275e+57
          2081.59150	         5.15658e+57
          2082.39780	         4.74831e+57
          2083.20410	         2.89391e+57
          2084.01040	         4.10799e+57
          2084.81670	         4.90696e+57
          2085.62300	         4.15919e+57
          2086.42930	         3.55876e+57
          2087.23560	         2.84225e+57
          2088.04190	         2.32904e+57
          2088.84820	         3.16759e+57
          2089.65450	         1.81070e+57
          2090.46080	         2.41859e+57
          2091.26710	         4.40902e+57
          2092.07340	         3.64346e+57
          2092.87970	         2.36110e+57
          2093.68600	         1.72515e+57
          2094.49230	         1.36022e+57
          2095.29860	         2.86749e+57
          2096.10490	         3.06125e+57
          2096.91120	         1.06659e+57
          2097.71750	         1.28621e+56
          2098.52380	         7.68790e+56
          2099.33010	         8.05677e+56
          2100.13640	         1.23964e+57
          2100.94270	         3.25209e+57
          2101.74900	         2.83600e+57
          2102.55530	         1.79743e+57
          2103.36160	         9.11698e+56
          2104.16790	         3.71724e+57
          2104.97420	         4.01549e+57
          2105.78050	         2.71718e+57
          2106.58680	         3.37376e+57
          2107.39310	         1.48740e+57
          2108.19940	         3.65365e+57
          2109.00570	        -1.09447e+56
          2109.81200	        -1.65931e+57
          2110.61830	        -3.34350e+56
          2111.42460	         1.30987e+57
          2112.23090	         3.13730e+57
          2113.03720	         2.37827e+56
          2113.84350	         1.14126e+57
          2114.64980	         6.84308e+57
          2115.45610	        -7.26196e+56
          2116.26240	        -1.31100e+57
          2117.06870	         1.60175e+57
          2117.87500	        -3.24252e+57
          2118.68130	        -6.94589e+56
          2119.48760	        -1.23189e+57
          2120.29390	        -2.62703e+57
          2121.10020	        -5.41942e+57
          2121.90650	        -1.94408e+56
          2122.71280	         4.85015e+57
          2123.51910	        -9.53408e+56
          2124.32540	         2.27715e+57
          2125.13170	        -1.95725e+57
          2125.93800	         4.59386e+57
          2126.74430	         1.00628e+57
          2127.55060	        -5.61835e+57
          2128.35690	         2.65052e+56
          2129.16320	        -4.66613e+57
          2129.96950	        -1.69973e+57
          2130.77580	         8.16504e+57
          2131.58210	         6.34301e+57
          2132.38840	        -8.64421e+56
          2133.19470	        -3.33130e+57
          2134.00100	        -2.71194e+57
          2134.80730	        -7.98464e+57
          2135.61360	         2.10620e+57
          2136.41990	         5.68796e+57
          2137.22620	         6.45189e+57
          2138.03250	         1.30068e+58
          2138.83880	        -4.58184e+56
          2139.64510	         2.72689e+57
          2140.45140	        -4.80033e+57
          2141.25770	        -1.30704e+58
          2142.06400	        -2.33148e+57
          2142.87030	         4.21247e+57
          2143.67660	         1.14182e+58
          2144.48290	         1.43484e+58
          2145.28920	         1.67286e+58
          2146.09550	         2.45146e+56
          2146.90180	        -4.16165e+57
          2147.70810	        -9.43084e+57
          2148.51440	        -3.15231e+56
          2149.32070	        -8.76047e+57
          2150.12700	        -9.92424e+57
          2150.93330	        -4.95475e+57
          2151.73960	         2.89216e+57
          2152.54590	        -2.39580e+57
          2153.35220	         2.10747e+57
          2154.15850	        -8.41593e+57
          2154.96480	        -2.98893e+57
          2155.77110	         2.34492e+56
          2156.57740	         1.40694e+57
          2157.38370	         1.32994e+57
          2158.19000	         4.21116e+57
          2158.99630	         4.87192e+56
          2159.80260	        -4.21905e+57
          2160.60890	        -8.74753e+57
          2161.41520	        -6.13158e+57
          2162.22150	         9.67831e+57
          2163.02780	        -3.73887e+57
          2163.83410	        -1.55449e+58
          2164.64040	        -1.30327e+58
          2165.44670	        -1.18333e+58
          2166.25300	        -1.50866e+58
          2167.05930	        -6.26553e+57
          2167.86560	        -1.40082e+57
          2168.67190	        -1.13439e+58
          2169.47820	        -7.92825e+57
          2170.28450	        -8.71394e+57
          2171.09080	        -5.41900e+57
          2171.89710	        -5.75067e+57
          2172.70340	         1.96557e+56
          2173.50970	        -3.56056e+57
          2174.31600	        -2.29695e+57
          2175.12230	        -1.10282e+57
          2175.92860	        -4.13892e+57
          2176.73490	        -1.01983e+58
          2177.54120	        -6.61114e+57
          2178.34750	        -3.45373e+57
          2179.15380	                 nan
          2179.96010	                 nan
          2180.76640	                 nan
          2181.57270	                 nan
          2182.37900	                 nan
          2183.18530	                 nan
          2183.99160	                 nan
          2184.79790	                 nan
          2185.60420	                 nan
          2186.41050	                 nan
          2187.21680	                 nan
          2188.02310	                 nan
          2188.82940	                 nan
          2189.63570	                 nan
          2190.44200	                 nan
          2191.24830	                 nan
          2192.05460	                 nan
          2192.86090	                 nan
          2193.66720	                 nan
          2194.47350	                 nan
          2195.27980	                 nan
          2196.08610	                 nan
          2196.89240	                 nan
          2197.69870	                 nan
          2198.50500	                 nan
          2199.31130	                 nan
          2200.11760	                 nan
          2200.92390	                 nan
          2201.73020	                 nan
          2202.53650	                 nan
          2203.34280	                 nan
          2204.14910	                 nan
          2204.95540	                 nan
          2205.76170	                 nan
          2206.56800	                 nan
          2207.37430	                 nan
          2208.18060	                 nan
          2208.98690	                 nan
          2209.79320	                 nan
          2210.59950	                 nan
          2211.40580	                 nan
          2212.21210	                 nan
          2213.01840	                 nan
          2213.82470	                 nan
          2214.63100	                 nan
          2215.43730	         0.00000e+00
