#sample_162_stacked_spectrum_rest_UV-bands_median_H-alpha_noDC.txt
#median Lum: 1.70303e+42
#Rest-frame wavelength (A) | Luminosity (erg/s/A)
#
          1110.00000	         0.00000e+00
          1110.80630	        -4.08946e+59
          1111.61260	         6.56930e+58
          1112.41890	         9.85748e+58
          1113.22520	         1.47851e+59
          1114.03150	        -1.85782e+59
          1114.83780	        -3.18700e+58
          1115.64410	         1.82176e+59
          1116.45040	         1.62601e+59
          1117.25670	         2.20411e+58
          1118.06300	         2.27406e+59
          1118.86930	         8.74409e+58
          1119.67560	         1.16158e+59
          1120.48190	        -6.80603e+57
          1121.28820	        -6.63677e+58
          1122.09450	         9.77166e+58
          1122.90080	         9.57951e+58
          1123.70710	         6.17088e+58
          1124.51340	         9.24362e+58
          1125.31970	        -1.16479e+58
          1126.12600	        -1.09596e+58
          1126.93230	        -2.49766e+58
          1127.73860	        -4.03143e+58
          1128.54490	        -2.91589e+58
          1129.35120	         2.11806e+58
          1130.15750	        -1.47398e+58
          1130.96380	         1.38664e+58
          1131.77010	         3.75772e+58
          1132.57640	         4.35005e+58
          1133.38270	         4.28090e+58
          1134.18900	         2.31059e+58
          1134.99530	         3.08569e+58
          1135.80160	         2.78836e+58
          1136.60790	         3.03270e+58
          1137.41420	         4.31164e+57
          1138.22050	         1.63455e+57
          1139.02680	         1.88092e+58
          1139.83310	        -2.89971e+57
          1140.63940	        -2.34631e+57
          1141.44570	        -6.50980e+57
          1142.25200	        -2.46255e+57
          1143.05830	         3.94270e+57
          1143.86460	         9.14345e+57
          1144.67090	         6.23637e+57
          1145.47720	        -5.79018e+57
          1146.28350	         1.64475e+58
          1147.08980	         8.16566e+57
          1147.89610	         7.88354e+57
          1148.70240	         2.11736e+58
          1149.50870	         2.30955e+58
          1150.31500	         1.41110e+58
          1151.12130	         2.69284e+57
          1151.92760	        -8.40992e+57
          1152.73390	        -8.96449e+57
          1153.54020	        -4.84634e+57
          1154.34650	         2.49300e+58
          1155.15280	         2.52831e+58
          1155.95910	        -2.68561e+57
          1156.76540	         9.90032e+56
          1157.57170	        -2.62261e+57
          1158.37800	        -4.62242e+57
          1159.18430	        -3.24486e+57
          1159.99060	         3.66643e+57
          1160.79690	         5.25368e+57
          1161.60320	         9.01297e+57
          1162.40950	         1.81357e+58
          1163.21580	         1.92161e+58
          1164.02210	         1.32844e+58
          1164.82840	         1.57507e+58
          1165.63470	         1.81253e+58
          1166.44100	         2.26398e+58
          1167.24730	         2.24437e+58
          1168.05360	         7.85971e+57
          1168.85990	         6.91589e+57
          1169.66620	         1.37745e+58
          1170.47250	         1.72148e+58
          1171.27880	         1.49682e+58
          1172.08510	         1.15227e+58
          1172.89140	         5.76109e+57
          1173.69770	         3.94597e+57
          1174.50400	         5.03567e+57
          1175.31030	         1.51634e+58
          1176.11660	         2.06183e+58
          1176.92290	         1.35086e+58
          1177.72920	         1.18646e+58
          1178.53550	         1.31319e+58
          1179.34180	         1.03500e+58
          1180.14810	         7.93073e+57
          1180.95440	         1.01040e+58
          1181.76070	         9.15143e+57
          1182.56700	         6.48145e+57
          1183.37330	         4.39630e+57
          1184.17960	         1.27230e+58
          1184.98590	         1.26836e+58
          1185.79220	         4.80567e+57
          1186.59850	         8.30060e+57
          1187.40480	         1.20551e+58
          1188.21110	         1.89478e+58
          1189.01740	         9.01623e+57
          1189.82370	         6.52249e+57
          1190.63000	         1.32655e+58
          1191.43630	         1.30944e+58
          1192.24260	         9.41694e+57
          1193.04890	         1.53031e+58
          1193.85520	         1.17625e+58
          1194.66150	         1.45036e+58
          1195.46780	         1.61480e+58
          1196.27410	         1.29432e+58
          1197.08040	         7.40362e+57
          1197.88670	         1.25815e+58
          1198.69300	         2.03111e+58
          1199.49930	         1.86062e+58
          1200.30560	         1.07413e+58
          1201.11190	         9.07874e+57
          1201.91820	         1.06223e+58
          1202.72450	         1.06020e+58
          1203.53080	         1.40218e+58
          1204.33710	         1.38504e+58
          1205.14340	         5.84505e+57
          1205.94970	         4.35442e+57
          1206.75600	         6.31423e+57
          1207.56230	         5.78561e+57
          1208.36860	         6.00052e+57
          1209.17490	         3.72951e+57
          1209.98120	         5.18559e+57
          1210.78750	         8.30842e+57
          1211.59380	         1.21760e+58
          1212.40010	         2.03966e+58
          1213.20640	         1.96779e+58
          1214.01270	         1.80803e+58
          1214.81900	         2.59578e+58
          1215.62530	         4.66254e+58
          1216.43160	         9.06695e+58
          1217.23790	         1.48364e+59
          1218.04420	         1.12810e+59
          1218.85050	         8.53620e+58
          1219.65680	         5.48128e+58
          1220.46310	         3.30513e+58
          1221.26940	         2.44679e+58
          1222.07570	         1.30050e+58
          1222.88200	         9.79550e+57
          1223.68830	         1.09210e+58
          1224.49460	         8.23566e+57
          1225.30090	         8.74689e+57
          1226.10720	         4.39242e+57
          1226.91350	         6.05907e+57
          1227.71980	         8.26755e+57
          1228.52610	         1.30336e+58
          1229.33240	         1.03934e+58
          1230.13870	         5.94160e+57
          1230.94500	         7.22893e+57
          1231.75130	         4.54072e+57
          1232.55760	         6.53085e+57
          1233.36390	         8.03655e+57
          1234.17020	         9.68221e+57
          1234.97650	         6.92267e+57
          1235.78280	         5.43461e+57
          1236.58910	         6.81226e+57
          1237.39540	         7.71946e+57
          1238.20170	         7.37359e+57
          1239.00800	         1.12488e+58
          1239.81430	         1.44727e+58
          1240.62060	         1.25464e+58
          1241.42690	         1.04498e+58
          1242.23320	         1.00324e+58
          1243.03950	         7.98338e+57
          1243.84580	         7.76050e+57
          1244.65210	         8.51730e+57
          1245.45840	         1.07531e+58
          1246.26470	         1.02683e+58
          1247.07100	         7.45143e+57
          1247.87730	         8.15277e+57
          1248.68360	         3.03941e+57
          1249.48990	         8.51791e+57
          1250.29620	         1.47556e+58
          1251.10250	         9.16098e+57
          1251.90880	         4.34372e+57
          1252.71510	         6.79582e+57
          1253.52140	         8.91297e+57
          1254.32770	         1.03824e+58
          1255.13400	         1.15354e+58
          1255.94030	         1.22169e+58
          1256.74660	         9.53629e+57
          1257.55290	         6.92183e+57
          1258.35920	         5.92680e+57
          1259.16550	         4.20992e+57
          1259.97180	         5.60343e+57
          1260.77810	         9.07913e+57
          1261.58440	         9.78816e+57
          1262.39070	         9.35807e+57
          1263.19700	         1.03814e+58
          1264.00330	         1.02501e+58
          1264.80960	         1.00185e+58
          1265.61590	         1.09980e+58
          1266.42220	         1.30030e+58
          1267.22850	         1.14224e+58
          1268.03480	         1.32728e+58
          1268.84110	         1.35894e+58
          1269.64740	         1.30300e+58
          1270.45370	         1.38388e+58
          1271.26000	         1.22665e+58
          1272.06630	         1.12851e+58
          1272.87260	         1.14215e+58
          1273.67890	         1.20307e+58
          1274.48520	         1.27823e+58
          1275.29150	         1.20799e+58
          1276.09780	         1.14537e+58
          1276.90410	         1.62221e+58
          1277.71040	         1.38055e+58
          1278.51670	         1.30645e+58
          1279.32300	         1.47665e+58
          1280.12930	         1.37716e+58
          1280.93560	         1.11708e+58
          1281.74190	         1.07298e+58
          1282.54820	         1.12499e+58
          1283.35450	         1.11787e+58
          1284.16080	         1.15063e+58
          1284.96710	         1.29361e+58
          1285.77340	         1.21984e+58
          1286.57970	         1.17359e+58
          1287.38600	         1.66705e+58
          1288.19230	         1.73065e+58
          1288.99860	         1.42452e+58
          1289.80490	         1.11690e+58
          1290.61120	         1.14050e+58
          1291.41750	         1.18975e+58
          1292.22380	         1.04798e+58
          1293.03010	         9.30781e+57
          1293.83640	         8.70963e+57
          1294.64270	         7.89586e+57
          1295.44900	         6.19177e+57
          1296.25530	         8.02831e+57
          1297.06160	         1.25103e+58
          1297.86790	         1.23274e+58
          1298.67420	         9.90404e+57
          1299.48050	         9.46706e+57
          1300.28680	         8.58856e+57
          1301.09310	         7.31801e+57
          1301.89940	         3.53146e+57
          1302.70570	         5.94779e+57
          1303.51200	         6.81577e+57
          1304.31830	         1.01773e+58
          1305.12460	         1.24047e+58
          1305.93090	         1.08894e+58
          1306.73720	         1.13917e+58
          1307.54350	         1.32884e+58
          1308.34980	         1.40446e+58
          1309.15610	         1.48365e+58
          1309.96240	         1.33731e+58
          1310.76870	         1.05437e+58
          1311.57500	         1.01058e+58
          1312.38130	         1.23797e+58
          1313.18760	         1.36527e+58
          1313.99390	         1.58410e+58
          1314.80020	         1.54356e+58
          1315.60650	         1.31422e+58
          1316.41280	         1.20482e+58
          1317.21910	         9.86491e+57
          1318.02540	         1.04939e+58
          1318.83170	         1.23926e+58
          1319.63800	         1.18245e+58
          1320.44430	         8.79625e+57
          1321.25060	         1.07311e+58
          1322.05690	         1.19614e+58
          1322.86320	         1.19967e+58
          1323.66950	         1.14915e+58
          1324.47580	         1.06316e+58
          1325.28210	         1.00910e+58
          1326.08840	         1.07569e+58
          1326.89470	         1.20379e+58
          1327.70100	         8.60093e+57
          1328.50730	         6.85582e+57
          1329.31360	         8.66004e+57
          1330.11990	         8.36299e+57
          1330.92620	         8.88614e+57
          1331.73250	         1.18474e+58
          1332.53880	         1.15333e+58
          1333.34510	         8.70062e+57
          1334.15140	         8.73962e+57
          1334.95770	         9.18038e+57
          1335.76400	         9.19621e+57
          1336.57030	         1.01734e+58
          1337.37660	         9.38838e+57
          1338.18290	         1.08259e+58
          1338.98920	         1.18088e+58
          1339.79550	         1.14655e+58
          1340.60180	         1.32513e+58
          1341.40810	         1.34856e+58
          1342.21440	         1.10531e+58
          1343.02070	         1.18582e+58
          1343.82700	         1.35463e+58
          1344.63330	         1.31458e+58
          1345.43960	         1.26059e+58
          1346.24590	         1.03507e+58
          1347.05220	         1.18133e+58
          1347.85850	         1.06292e+58
          1348.66480	         1.15225e+58
          1349.47110	         1.26433e+58
          1350.27740	         1.20545e+58
          1351.08370	         1.23433e+58
          1351.89000	         1.16513e+58
          1352.69630	         1.05849e+58
          1353.50260	         1.13653e+58
          1354.30890	         1.22023e+58
          1355.11520	         1.18476e+58
          1355.92150	         1.05186e+58
          1356.72780	         8.20317e+57
          1357.53410	         9.50636e+57
          1358.34040	         1.02743e+58
          1359.14670	         9.55282e+57
          1359.95300	         1.06558e+58
          1360.75930	         1.11217e+58
          1361.56560	         1.10167e+58
          1362.37190	         1.16781e+58
          1363.17820	         1.10390e+58
          1363.98450	         1.07665e+58
          1364.79080	         1.22685e+58
          1365.59710	         1.19719e+58
          1366.40340	         1.16821e+58
          1367.20970	         1.10857e+58
          1368.01600	         9.21632e+57
          1368.82230	         1.05093e+58
          1369.62860	         1.05455e+58
          1370.43490	         7.42666e+57
          1371.24120	         8.28721e+57
          1372.04750	         8.62863e+57
          1372.85380	         9.69246e+57
          1373.66010	         1.06480e+58
          1374.46640	         9.89522e+57
          1375.27270	         1.03925e+58
          1376.07900	         9.42388e+57
          1376.88530	         7.66890e+57
          1377.69160	         8.17118e+57
          1378.49790	         7.70388e+57
          1379.30420	         7.06538e+57
          1380.11050	         8.95305e+57
          1380.91680	         9.58293e+57
          1381.72310	         7.53872e+57
          1382.52940	         7.14790e+57
          1383.33570	         8.39729e+57
          1384.14200	         9.27129e+57
          1384.94830	         9.70326e+57
          1385.75460	         1.07864e+58
          1386.56090	         1.23220e+58
          1387.36720	         1.07411e+58
          1388.17350	         1.17576e+58
          1388.97980	         1.10407e+58
          1389.78610	         9.30781e+57
          1390.59240	         7.75784e+57
          1391.39870	         5.51379e+57
          1392.20500	         7.64378e+57
          1393.01130	         8.08803e+57
          1393.81760	         7.80493e+57
          1394.62390	         8.32174e+57
          1395.43020	         7.24284e+57
          1396.23650	         6.66428e+57
          1397.04280	         7.69937e+57
          1397.84910	         9.04321e+57
          1398.65540	         7.75085e+57
          1399.46170	         8.25244e+57
          1400.26800	         9.13113e+57
          1401.07430	         7.62497e+57
          1401.88060	         7.30825e+57
          1402.68690	         9.65086e+57
          1403.49320	         9.31335e+57
          1404.29950	         8.31125e+57
          1405.10580	         8.78407e+57
          1405.91210	         9.48713e+57
          1406.71840	         9.71071e+57
          1407.52470	         9.36490e+57
          1408.33100	         1.02250e+58
          1409.13730	         1.21668e+58
          1409.94360	         1.16298e+58
          1410.74990	         1.14356e+58
          1411.55620	         1.02739e+58
          1412.36250	         8.25099e+57
          1413.16880	         7.63457e+57
          1413.97510	         7.76518e+57
          1414.78140	         8.72555e+57
          1415.58770	         1.04483e+58
          1416.39400	         9.59462e+57
          1417.20030	         1.00943e+58
          1418.00660	         1.07535e+58
          1418.81290	         1.14471e+58
          1419.61920	         1.16970e+58
          1420.42550	         1.18958e+58
          1421.23180	         1.28701e+58
          1422.03810	         1.32443e+58
          1422.84440	         1.16022e+58
          1423.65070	         1.22060e+58
          1424.45700	         1.19783e+58
          1425.26330	         9.28107e+57
          1426.06960	         9.33787e+57
          1426.87590	         9.83920e+57
          1427.68220	         1.07267e+58
          1428.48850	         1.10397e+58
          1429.29480	         1.11336e+58
          1430.10110	         1.06301e+58
          1430.90740	         9.44684e+57
          1431.71370	         8.50906e+57
          1432.52000	         8.10170e+57
          1433.32630	         7.01753e+57
          1434.13260	         8.14057e+57
          1434.93890	         8.09687e+57
          1435.74520	         8.30966e+57
          1436.55150	         9.63671e+57
          1437.35780	         8.97679e+57
          1438.16410	         8.97991e+57
          1438.97040	         8.05367e+57
          1439.77670	         7.95696e+57
          1440.58300	         9.07543e+57
          1441.38930	         9.45845e+57
          1442.19560	         9.69838e+57
          1443.00190	         1.07021e+58
          1443.80820	         1.09413e+58
          1444.61450	         9.81716e+57
          1445.42080	         9.10275e+57
          1446.22710	         1.04454e+58
          1447.03340	         1.08652e+58
          1447.83970	         1.10872e+58
          1448.64600	         9.72946e+57
          1449.45230	         8.55212e+57
          1450.25860	         9.64783e+57
          1451.06490	         9.45712e+57
          1451.87120	         7.57117e+57
          1452.67750	         6.94419e+57
          1453.48380	         8.24584e+57
          1454.29010	         7.53356e+57
          1455.09640	         6.88462e+57
          1455.90270	         9.04322e+57
          1456.70900	         9.50981e+57
          1457.51530	         9.08609e+57
          1458.32160	         1.06362e+58
          1459.12790	         1.16505e+58
          1459.93420	         8.69990e+57
          1460.74050	         6.93280e+57
          1461.54680	         7.99111e+57
          1462.35310	         8.30078e+57
          1463.15940	         1.01973e+58
          1463.96570	         1.24461e+58
          1464.77200	         1.22846e+58
          1465.57830	         9.54033e+57
          1466.38460	         9.52178e+57
          1467.19090	         9.02041e+57
          1467.99720	         7.91006e+57
          1468.80350	         9.32688e+57
          1469.60980	         9.91195e+57
          1470.41610	         1.02358e+58
          1471.22240	         9.03436e+57
          1472.02870	         9.13569e+57
          1472.83500	         9.10566e+57
          1473.64130	         9.54497e+57
          1474.44760	         9.96565e+57
          1475.25390	         8.56006e+57
          1476.06020	         7.87595e+57
          1476.86650	         9.16737e+57
          1477.67280	         8.15364e+57
          1478.47910	         7.07667e+57
          1479.28540	         7.28592e+57
          1480.09170	         8.33083e+57
          1480.89800	         8.55056e+57
          1481.70430	         9.93091e+57
          1482.51060	         9.24358e+57
          1483.31690	         7.37070e+57
          1484.12320	         6.94722e+57
          1484.92950	         7.68515e+57
          1485.73580	         9.26267e+57
          1486.54210	         9.10724e+57
          1487.34840	         8.82340e+57
          1488.15470	         7.95293e+57
          1488.96100	         8.48245e+57
          1489.76730	         9.95701e+57
          1490.57360	         9.00945e+57
          1491.37990	         7.67997e+57
          1492.18620	         8.27646e+57
          1492.99250	         8.38516e+57
          1493.79880	         7.51836e+57
          1494.60510	         6.73613e+57
          1495.41140	         5.93820e+57
          1496.21770	         7.74942e+57
          1497.02400	         1.14095e+58
          1497.83030	         9.18079e+57
          1498.63660	         6.48528e+57
          1499.44290	         6.62808e+57
          1500.24920	         6.68369e+57
          1501.05550	         8.01505e+57
          1501.86180	         7.91277e+57
          1502.66810	         8.45018e+57
          1503.47440	         8.29274e+57
          1504.28070	         7.27272e+57
          1505.08700	         8.52567e+57
          1505.89330	         9.37270e+57
          1506.69960	         8.78099e+57
          1507.50590	         8.53177e+57
          1508.31220	         8.19049e+57
          1509.11850	         8.17621e+57
          1509.92480	         8.93572e+57
          1510.73110	         8.83629e+57
          1511.53740	         7.19128e+57
          1512.34370	         6.54402e+57
          1513.15000	         8.10511e+57
          1513.95630	         9.98693e+57
          1514.76260	         8.98362e+57
          1515.56890	         7.83179e+57
          1516.37520	         7.20408e+57
          1517.18150	         7.48586e+57
          1517.98780	         6.22081e+57
          1518.79410	         5.85401e+57
          1519.60040	         7.78540e+57
          1520.40670	         9.62116e+57
          1521.21300	         8.88712e+57
          1522.01930	         8.51726e+57
          1522.82560	         9.39845e+57
          1523.63190	         9.77415e+57
          1524.43820	         8.44878e+57
          1525.24450	         7.16108e+57
          1526.05080	         6.61358e+57
          1526.85710	         6.52910e+57
          1527.66340	         6.63025e+57
          1528.46970	         7.59226e+57
          1529.27600	         7.74077e+57
          1530.08230	         7.58289e+57
          1530.88860	         6.88138e+57
          1531.69490	         7.67639e+57
          1532.50120	         9.38380e+57
          1533.30750	         9.88008e+57
          1534.11380	         8.94366e+57
          1534.92010	         8.02993e+57
          1535.72640	         8.67989e+57
          1536.53270	         9.18671e+57
          1537.33900	         9.23531e+57
          1538.14530	         8.63794e+57
          1538.95160	         8.97123e+57
          1539.75790	         7.84317e+57
          1540.56420	         7.41712e+57
          1541.37050	         8.25739e+57
          1542.17680	         8.04947e+57
          1542.98310	         7.30910e+57
          1543.78940	         6.59694e+57
          1544.59570	         6.55866e+57
          1545.40200	         7.46429e+57
          1546.20830	         8.91753e+57
          1547.01460	         1.11009e+58
          1547.82090	         1.20220e+58
          1548.62720	         1.22156e+58
          1549.43350	         1.30364e+58
          1550.23980	         1.14660e+58
          1551.04610	         1.20021e+58
          1551.85240	         1.17994e+58
          1552.65870	         1.12772e+58
          1553.46500	         9.98338e+57
          1554.27130	         9.67723e+57
          1555.07760	         1.04953e+58
          1555.88390	         9.25833e+57
          1556.69020	         8.61243e+57
          1557.49650	         8.74176e+57
          1558.30280	         8.21479e+57
          1559.10910	         8.81009e+57
          1559.91540	         9.01783e+57
          1560.72170	         9.06451e+57
          1561.52800	         8.24606e+57
          1562.33430	         8.46769e+57
          1563.14060	         7.97973e+57
          1563.94690	         8.08487e+57
          1564.75320	         8.62045e+57
          1565.55950	         7.00682e+57
          1566.36580	         6.88148e+57
          1567.17210	         9.10616e+57
          1567.97840	         9.32662e+57
          1568.78470	         8.92430e+57
          1569.59100	         9.13558e+57
          1570.39730	         8.13023e+57
          1571.20360	         6.78875e+57
          1572.00990	         6.96751e+57
          1572.81620	         8.63191e+57
          1573.62250	         9.73337e+57
          1574.42880	         8.95783e+57
          1575.23510	         7.85911e+57
          1576.04140	         8.95665e+57
          1576.84770	         9.48310e+57
          1577.65400	         8.77355e+57
          1578.46030	         9.81024e+57
          1579.26660	         1.11330e+58
          1580.07290	         9.73386e+57
          1580.87920	         8.33599e+57
          1581.68550	         7.42373e+57
          1582.49180	         7.62796e+57
          1583.29810	         7.32759e+57
          1584.10440	         7.76685e+57
          1584.91070	         7.85212e+57
          1585.71700	         8.90641e+57
          1586.52330	         9.32199e+57
          1587.32960	         8.46503e+57
          1588.13590	         7.37592e+57
          1588.94220	         7.34671e+57
          1589.74850	         8.71733e+57
          1590.55480	         8.78301e+57
          1591.36110	         8.55208e+57
          1592.16740	         8.43821e+57
          1592.97370	         7.95731e+57
          1593.78000	         8.84995e+57
          1594.58630	         8.92504e+57
          1595.39260	         7.87904e+57
          1596.19890	         8.26019e+57
          1597.00520	         9.17633e+57
          1597.81150	         7.75503e+57
          1598.61780	         7.21817e+57
          1599.42410	         6.44355e+57
          1600.23040	         5.86839e+57
          1601.03670	         7.10648e+57
          1601.84300	         7.33401e+57
          1602.64930	         8.06709e+57
          1603.45560	         8.29694e+57
          1604.26190	         8.22512e+57
          1605.06820	         8.37792e+57
          1605.87450	         7.38180e+57
          1606.68080	         7.38921e+57
          1607.48710	         7.05438e+57
          1608.29340	         6.20700e+57
          1609.09970	         6.34291e+57
          1609.90600	         6.46761e+57
          1610.71230	         5.88305e+57
          1611.51860	         6.04955e+57
          1612.32490	         6.50230e+57
          1613.13120	         7.81293e+57
          1613.93750	         7.82298e+57
          1614.74380	         8.31467e+57
          1615.55010	         8.09829e+57
          1616.35640	         8.41294e+57
          1617.16270	         9.95754e+57
          1617.96900	         1.04853e+58
          1618.77530	         8.87146e+57
          1619.58160	         9.18439e+57
          1620.38790	         7.86891e+57
          1621.19420	         8.09373e+57
          1622.00050	         8.04178e+57
          1622.80680	         9.35880e+57
          1623.61310	         8.70508e+57
          1624.41940	         6.69726e+57
          1625.22570	         7.85953e+57
          1626.03200	         8.18059e+57
          1626.83830	         8.07320e+57
          1627.64460	         8.70503e+57
          1628.45090	         6.87514e+57
          1629.25720	         8.23236e+57
          1630.06350	         9.74899e+57
          1630.86980	         7.86996e+57
          1631.67610	         7.56860e+57
          1632.48240	         7.74680e+57
          1633.28870	         8.42564e+57
          1634.09500	         8.85662e+57
          1634.90130	         1.01420e+58
          1635.70760	         8.03766e+57
          1636.51390	         6.58644e+57
          1637.32020	         7.23261e+57
          1638.12650	         8.49212e+57
          1638.93280	         8.62177e+57
          1639.73910	         9.79477e+57
          1640.54540	         1.04239e+58
          1641.35170	         8.80931e+57
          1642.15800	         8.19527e+57
          1642.96430	         8.71247e+57
          1643.77060	         9.52954e+57
          1644.57690	         8.16756e+57
          1645.38320	         7.92159e+57
          1646.18950	         6.32802e+57
          1646.99580	         7.56100e+57
          1647.80210	         7.84085e+57
          1648.60840	         7.79841e+57
          1649.41470	         7.66800e+57
          1650.22100	         6.43500e+57
          1651.02730	         7.18199e+57
          1651.83360	         7.73011e+57
          1652.63990	         7.21928e+57
          1653.44620	         8.11627e+57
          1654.25250	         7.83010e+57
          1655.05880	         6.90384e+57
          1655.86510	         8.09182e+57
          1656.67140	         8.57501e+57
          1657.47770	         8.39664e+57
          1658.28400	         8.32504e+57
          1659.09030	         8.75466e+57
          1659.89660	         9.71320e+57
          1660.70290	         1.00647e+58
          1661.50920	         9.05394e+57
          1662.31550	         7.62989e+57
          1663.12180	         7.83432e+57
          1663.92810	         8.74972e+57
          1664.73440	         1.03164e+58
          1665.54070	         1.19413e+58
          1666.34700	         1.25589e+58
          1667.15330	         1.16676e+58
          1667.95960	         8.61616e+57
          1668.76590	         6.67981e+57
          1669.57220	         6.82732e+57
          1670.37850	         7.01941e+57
          1671.18480	         8.07811e+57
          1671.99110	         8.08319e+57
          1672.79740	         6.88910e+57
          1673.60370	         6.44548e+57
          1674.41000	         6.09676e+57
          1675.21630	         6.63068e+57
          1676.02260	         6.41688e+57
          1676.82890	         6.00429e+57
          1677.63520	         6.02670e+57
          1678.44150	         6.42745e+57
          1679.24780	         8.40270e+57
          1680.05410	         8.10798e+57
          1680.86040	         5.77614e+57
          1681.66670	         6.09666e+57
          1682.47300	         7.88062e+57
          1683.27930	         8.87855e+57
          1684.08560	         8.44357e+57
          1684.89190	         6.66067e+57
          1685.69820	         5.40915e+57
          1686.50450	         5.44152e+57
          1687.31080	         6.03291e+57
          1688.11710	         7.14337e+57
          1688.92340	         7.13953e+57
          1689.72970	         6.77107e+57
          1690.53600	         6.41058e+57
          1691.34230	         7.15828e+57
          1692.14860	         7.81660e+57
          1692.95490	         6.64821e+57
          1693.76120	         5.95928e+57
          1694.56750	         6.09791e+57
          1695.37380	         8.48036e+57
          1696.18010	         8.50684e+57
          1696.98640	         7.81932e+57
          1697.79270	         7.14688e+57
          1698.59900	         7.05267e+57
          1699.40530	         7.32446e+57
          1700.21160	         7.00227e+57
          1701.01790	         7.18003e+57
          1701.82420	         6.53952e+57
          1702.63050	         7.11668e+57
          1703.43680	         7.52715e+57
          1704.24310	         8.01862e+57
          1705.04940	         7.58338e+57
          1705.85570	         6.35767e+57
          1706.66200	         7.81904e+57
          1707.46830	         8.79887e+57
          1708.27460	         7.06725e+57
          1709.08090	         6.94036e+57
          1709.88720	         6.37766e+57
          1710.69350	         5.67343e+57
          1711.49980	         6.83266e+57
          1712.30610	         7.83257e+57
          1713.11240	         8.74802e+57
          1713.91870	         7.33176e+57
          1714.72500	         8.15788e+57
          1715.53130	         8.92753e+57
          1716.33760	         7.86914e+57
          1717.14390	         7.18407e+57
          1717.95020	         8.01103e+57
          1718.75650	         8.67425e+57
          1719.56280	         8.30934e+57
          1720.36910	         6.45136e+57
          1721.17540	         6.49544e+57
          1721.98170	         6.49453e+57
          1722.78800	         7.21537e+57
          1723.59430	         7.33140e+57
          1724.40060	         7.75583e+57
          1725.20690	         8.62940e+57
          1726.01320	         8.05594e+57
          1726.81950	         7.26183e+57
          1727.62580	         6.97890e+57
          1728.43210	         7.49440e+57
          1729.23840	         7.54021e+57
          1730.04470	         7.37406e+57
          1730.85100	         7.80154e+57
          1731.65730	         7.61844e+57
          1732.46360	         7.34171e+57
          1733.26990	         7.53139e+57
          1734.07620	         7.11759e+57
          1734.88250	         7.89323e+57
          1735.68880	         7.30387e+57
          1736.49510	         7.22278e+57
          1737.30140	         7.80238e+57
          1738.10770	         7.43177e+57
          1738.91400	         7.63546e+57
          1739.72030	         6.90481e+57
          1740.52660	         5.61483e+57
          1741.33290	         5.93455e+57
          1742.13920	         5.55088e+57
          1742.94550	         6.28779e+57
          1743.75180	         6.82082e+57
          1744.55810	         7.39021e+57
          1745.36440	         7.05595e+57
          1746.17070	         5.63827e+57
          1746.97700	         5.38261e+57
          1747.78330	         7.15756e+57
          1748.58960	         7.85007e+57
          1749.39590	         7.15374e+57
          1750.20220	         6.19592e+57
          1751.00850	         5.73232e+57
          1751.81480	         5.61336e+57
          1752.62110	         7.31015e+57
          1753.42740	         8.09672e+57
          1754.23370	         6.38134e+57
          1755.04000	         6.41698e+57
          1755.84630	         6.91134e+57
          1756.65260	         7.89551e+57
          1757.45890	         7.78173e+57
          1758.26520	         6.84709e+57
          1759.07150	         7.39458e+57
          1759.87780	         8.09465e+57
          1760.68410	         7.34218e+57
          1761.49040	         7.90071e+57
          1762.29670	         6.13353e+57
          1763.10300	         7.85011e+57
          1763.90930	         8.23684e+57
          1764.71560	         7.71779e+57
          1765.52190	         6.69246e+57
          1766.32820	         7.46375e+57
          1767.13450	         8.51395e+57
          1767.94080	         6.72011e+57
          1768.74710	         6.12902e+57
          1769.55340	         6.56997e+57
          1770.35970	         6.28942e+57
          1771.16600	         7.30385e+57
          1771.97230	         8.03592e+57
          1772.77860	         7.77053e+57
          1773.58490	         7.31916e+57
          1774.39120	         6.28491e+57
          1775.19750	         6.25089e+57
          1776.00380	         6.50090e+57
          1776.81010	         6.61501e+57
          1777.61640	         6.05796e+57
          1778.42270	         6.72916e+57
          1779.22900	         6.94067e+57
          1780.03530	         6.20567e+57
          1780.84160	         7.75213e+57
          1781.64790	         8.89004e+57
          1782.45420	         7.62869e+57
          1783.26050	         6.31053e+57
          1784.06680	         6.64667e+57
          1784.87310	         7.12205e+57
          1785.67940	         7.55719e+57
          1786.48570	         7.13927e+57
          1787.29200	         5.75970e+57
          1788.09830	         6.53839e+57
          1788.90460	         6.52180e+57
          1789.71090	         5.49088e+57
          1790.51720	         4.78160e+57
          1791.32350	         7.13633e+57
          1792.12980	         7.81244e+57
          1792.93610	         6.79884e+57
          1793.74240	         6.99549e+57
          1794.54870	         7.36126e+57
          1795.35500	         7.88606e+57
          1796.16130	         7.61300e+57
          1796.96760	         7.09303e+57
          1797.77390	         6.98089e+57
          1798.58020	         7.51863e+57
          1799.38650	         6.12715e+57
          1800.19280	         5.78376e+57
          1800.99910	         7.55579e+57
          1801.80540	         7.27636e+57
          1802.61170	         8.11032e+57
          1803.41800	         8.72032e+57
          1804.22430	         7.60834e+57
          1805.03060	         6.78317e+57
          1805.83690	         7.09233e+57
          1806.64320	         7.46146e+57
          1807.44950	         7.34093e+57
          1808.25580	         6.71115e+57
          1809.06210	         7.61442e+57
          1809.86840	         7.47980e+57
          1810.67470	         6.22837e+57
          1811.48100	         7.74442e+57
          1812.28730	         7.63387e+57
          1813.09360	         7.08439e+57
          1813.89990	         7.79378e+57
          1814.70620	         7.18960e+57
          1815.51250	         7.05664e+57
          1816.31880	         7.22890e+57
          1817.12510	         7.27909e+57
          1817.93140	         6.33033e+57
          1818.73770	         6.20396e+57
          1819.54400	         7.71430e+57
          1820.35030	         7.43398e+57
          1821.15660	         6.22571e+57
          1821.96290	         6.52944e+57
          1822.76920	         7.60722e+57
          1823.57550	         7.59253e+57
          1824.38180	         6.39313e+57
          1825.18810	         6.97724e+57
          1825.99440	         8.48216e+57
          1826.80070	         8.16325e+57
          1827.60700	         7.56456e+57
          1828.41330	         6.36072e+57
          1829.21960	         6.52598e+57
          1830.02590	         7.02630e+57
          1830.83220	         8.08597e+57
          1831.63850	         8.31045e+57
          1832.44480	         7.48342e+57
          1833.25110	         7.80889e+57
          1834.05740	         8.76975e+57
          1834.86370	         6.50122e+57
          1835.67000	         5.45059e+57
          1836.47630	         7.71496e+57
          1837.28260	         9.02938e+57
          1838.08890	         8.33019e+57
          1838.89520	         7.94279e+57
          1839.70150	         7.27253e+57
          1840.50780	         7.06497e+57
          1841.31410	         6.96640e+57
          1842.12040	         7.04026e+57
          1842.92670	         6.66677e+57
          1843.73300	         6.70013e+57
          1844.53930	         6.44104e+57
          1845.34560	         6.08196e+57
          1846.15190	         6.41674e+57
          1846.95820	         7.97061e+57
          1847.76450	         7.31064e+57
          1848.57080	         5.25877e+57
          1849.37710	         5.01246e+57
          1850.18340	         5.56915e+57
          1850.98970	         7.14631e+57
          1851.79600	         6.91482e+57
          1852.60230	         6.26893e+57
          1853.40860	         6.32744e+57
          1854.21490	         5.99580e+57
          1855.02120	         5.02850e+57
          1855.82750	         3.82404e+57
          1856.63380	         5.34948e+57
          1857.44010	         6.80962e+57
          1858.24640	         7.36892e+57
          1859.05270	         7.41973e+57
          1859.85900	         5.35337e+57
          1860.66530	         6.78967e+57
          1861.47160	         7.46880e+57
          1862.27790	         7.10618e+57
          1863.08420	         7.20888e+57
          1863.89050	         7.69896e+57
          1864.69680	         7.97062e+57
          1865.50310	         7.30047e+57
          1866.30940	         6.55968e+57
          1867.11570	         6.10045e+57
          1867.92200	         6.04651e+57
          1868.72830	         6.67401e+57
          1869.53460	         6.98231e+57
          1870.34090	         7.95514e+57
          1871.14720	         7.92053e+57
          1871.95350	         7.25004e+57
          1872.75980	         7.03321e+57
          1873.56610	         6.61362e+57
          1874.37240	         5.49494e+57
          1875.17870	         5.80740e+57
          1875.98500	         7.51302e+57
          1876.79130	         7.13306e+57
          1877.59760	         6.95702e+57
          1878.40390	         5.82512e+57
          1879.21020	         5.87348e+57
          1880.01650	         7.42983e+57
          1880.82280	         8.91163e+57
          1881.62910	         8.68308e+57
          1882.43540	         9.58927e+57
          1883.24170	         8.31120e+57
          1884.04800	         6.94738e+57
          1884.85430	         7.11481e+57
          1885.66060	         7.58640e+57
          1886.46690	         7.93314e+57
          1887.27320	         7.60850e+57
          1888.07950	         6.21360e+57
          1888.88580	         6.39140e+57
          1889.69210	         8.56757e+57
          1890.49840	         7.93091e+57
          1891.30470	         8.11899e+57
          1892.11100	         8.69555e+57
          1892.91730	         7.50670e+57
          1893.72360	         6.79636e+57
          1894.52990	         6.12385e+57
          1895.33620	         7.31331e+57
          1896.14250	         7.60298e+57
          1896.94880	         7.20007e+57
          1897.75510	         4.98660e+57
          1898.56140	         5.74016e+57
          1899.36770	         8.49711e+57
          1900.17400	         7.04333e+57
          1900.98030	         6.10074e+57
          1901.78660	         6.69508e+57
          1902.59290	         7.76174e+57
          1903.39920	         8.61131e+57
          1904.20550	         9.30468e+57
          1905.01180	         8.24531e+57
          1905.81810	         9.99109e+57
          1906.62440	         1.31460e+58
          1907.43070	         1.58039e+58
          1908.23700	         1.47795e+58
          1909.04330	         1.22638e+58
          1909.84960	         9.80468e+57
          1910.65590	         9.08737e+57
          1911.46220	         8.29439e+57
          1912.26850	         6.60791e+57
          1913.07480	         5.88863e+57
          1913.88110	         6.22732e+57
          1914.68740	         5.93588e+57
          1915.49370	         5.36638e+57
          1916.30000	         6.60946e+57
          1917.10630	         7.44483e+57
          1917.91260	         6.94287e+57
          1918.71890	         6.19702e+57
          1919.52520	         4.99221e+57
          1920.33150	         5.04495e+57
          1921.13780	         6.45669e+57
          1921.94410	         7.81222e+57
          1922.75040	         7.45498e+57
          1923.55670	         7.38573e+57
          1924.36300	         7.56665e+57
          1925.16930	         6.88872e+57
          1925.97560	         5.41816e+57
          1926.78190	         4.09348e+57
          1927.58820	         4.92623e+57
          1928.39450	         5.29729e+57
          1929.20080	         4.14054e+57
          1930.00710	         5.55099e+57
          1930.81340	         7.73168e+57
          1931.61970	         8.11618e+57
          1932.42600	         8.02431e+57
          1933.23230	         8.10902e+57
          1934.03860	         5.87790e+57
          1934.84490	         4.78256e+57
          1935.65120	         7.63706e+57
          1936.45750	         8.40015e+57
          1937.26380	         7.16671e+57
          1938.07010	         6.90670e+57
          1938.87640	         6.31268e+57
          1939.68270	         7.45497e+57
          1940.48900	         8.17114e+57
          1941.29530	         8.19201e+57
          1942.10160	         6.94036e+57
          1942.90790	         5.93412e+57
          1943.71420	         5.79702e+57
          1944.52050	         6.99258e+57
          1945.32680	         6.38361e+57
          1946.13310	         6.43796e+57
          1946.93940	         7.33805e+57
          1947.74570	         7.46048e+57
          1948.55200	         6.77174e+57
          1949.35830	         6.50808e+57
          1950.16460	         6.63722e+57
          1950.97090	         6.92135e+57
          1951.77720	         7.35288e+57
          1952.58350	         8.29200e+57
          1953.38980	         6.77055e+57
          1954.19610	         4.22461e+57
          1955.00240	         4.82955e+57
          1955.80870	         6.51953e+57
          1956.61500	         6.40306e+57
          1957.42130	         6.07276e+57
          1958.22760	         6.34627e+57
          1959.03390	         6.10592e+57
          1959.84020	         6.76948e+57
          1960.64650	         7.33577e+57
          1961.45280	         5.81140e+57
          1962.25910	         5.80973e+57
          1963.06540	         6.80471e+57
          1963.87170	         5.74693e+57
          1964.67800	         6.88299e+57
          1965.48430	         7.42816e+57
          1966.29060	         6.80930e+57
          1967.09690	         7.66383e+57
          1967.90320	         7.89395e+57
          1968.70950	         7.21621e+57
          1969.51580	         6.63442e+57
          1970.32210	         7.89009e+57
          1971.12840	         7.71825e+57
          1971.93470	         4.47234e+57
          1972.74100	         4.10867e+57
          1973.54730	         4.80938e+57
          1974.35360	         6.74527e+57
          1975.15990	         7.14449e+57
          1975.96620	         6.71162e+57
          1976.77250	         6.60135e+57
          1977.57880	         6.19010e+57
          1978.38510	         5.78017e+57
          1979.19140	         6.68834e+57
          1979.99770	         7.83194e+57
          1980.80400	         7.52314e+57
          1981.61030	         6.64041e+57
          1982.41660	         6.03398e+57
          1983.22290	         5.96440e+57
          1984.02920	         5.34192e+57
          1984.83550	         4.17007e+57
          1985.64180	         5.37812e+57
          1986.44810	         6.23930e+57
          1987.25440	         5.59161e+57
          1988.06070	         6.54497e+57
          1988.86700	         5.97004e+57
          1989.67330	         6.73077e+57
          1990.47960	         6.08836e+57
          1991.28590	         5.87044e+57
          1992.09220	         5.86076e+57
          1992.89850	         5.58673e+57
          1993.70480	         5.72391e+57
          1994.51110	         5.59383e+57
          1995.31740	         5.31783e+57
          1996.12370	         5.84707e+57
          1996.93000	         6.07691e+57
          1997.73630	         7.44400e+57
          1998.54260	         8.15622e+57
          1999.34890	         7.01166e+57
          2000.15520	         5.57078e+57
          2000.96150	         6.78843e+57
          2001.76780	         7.12067e+57
          2002.57410	         4.92737e+57
          2003.38040	         6.29180e+57
          2004.18670	         7.06044e+57
          2004.99300	         6.24307e+57
          2005.79930	         7.01440e+57
          2006.60560	         6.42503e+57
          2007.41190	         6.16609e+57
          2008.21820	         6.90731e+57
          2009.02450	         6.33058e+57
          2009.83080	         5.73528e+57
          2010.63710	         5.67501e+57
          2011.44340	         6.00193e+57
          2012.24970	         6.14568e+57
          2013.05600	         5.58753e+57
          2013.86230	         5.60973e+57
          2014.66860	         5.90336e+57
          2015.47490	         6.08757e+57
          2016.28120	         5.21320e+57
          2017.08750	         5.07032e+57
          2017.89380	         5.85361e+57
          2018.70010	         5.44990e+57
          2019.50640	         5.95994e+57
          2020.31270	         6.80213e+57
          2021.11900	         7.18220e+57
          2021.92530	         6.79144e+57
          2022.73160	         6.96153e+57
          2023.53790	         6.94361e+57
          2024.34420	         6.65815e+57
          2025.15050	         5.81873e+57
          2025.95680	         5.51895e+57
          2026.76310	         5.58178e+57
          2027.56940	         5.71387e+57
          2028.37570	         5.60152e+57
          2029.18200	         5.77781e+57
          2029.98830	         6.69595e+57
          2030.79460	         5.72759e+57
          2031.60090	         6.62412e+57
          2032.40720	         6.59395e+57
          2033.21350	         5.52181e+57
          2034.01980	         5.21246e+57
          2034.82610	         4.88364e+57
          2035.63240	         4.82797e+57
          2036.43870	         6.18799e+57
          2037.24500	         6.95160e+57
          2038.05130	         6.21787e+57
          2038.85760	         5.74761e+57
          2039.66390	         6.71194e+57
          2040.47020	         5.73078e+57
          2041.27650	         5.18005e+57
          2042.08280	         5.45379e+57
          2042.88910	         6.28949e+57
          2043.69540	         6.04877e+57
          2044.50170	         5.79344e+57
          2045.30800	         5.75013e+57
          2046.11430	         4.24095e+57
          2046.92060	         4.93404e+57
          2047.72690	         6.22203e+57
          2048.53320	         5.15010e+57
          2049.33950	         2.74655e+57
          2050.14580	         4.10888e+57
          2050.95210	         6.91711e+57
          2051.75840	         6.88243e+57
          2052.56470	         4.95719e+57
          2053.37100	         4.57133e+57
          2054.17730	         5.82111e+57
          2054.98360	         5.12408e+57
          2055.78990	         3.09701e+57
          2056.59620	         3.72337e+57
          2057.40250	         4.50004e+57
          2058.20880	         5.09994e+57
          2059.01510	         6.71278e+57
          2059.82140	         5.61576e+57
          2060.62770	         9.67450e+57
          2061.43400	         1.68525e+58
          2062.24030	         1.90066e+58
          2063.04660	         3.13223e+57
          2063.85290	         1.60162e+57
          2064.65920	        -2.40924e+57
          2065.46550	        -9.32787e+57
          2066.27180	        -9.12646e+57
          2067.07810	         3.42274e+57
          2067.88440	         5.87986e+57
          2068.69070	         4.53417e+57
          2069.49700	         6.00594e+57
          2070.30330	         5.90333e+57
          2071.10960	         5.94614e+57
          2071.91590	         6.55008e+57
          2072.72220	         3.03323e+57
          2073.52850	         3.90148e+57
          2074.33480	         4.55130e+57
          2075.14110	         5.37849e+57
          2075.94740	         4.19455e+57
          2076.75370	         4.50311e+57
          2077.56000	         4.10425e+57
          2078.36630	         4.34830e+57
          2079.17260	         5.39177e+57
          2079.97890	         5.75644e+57
          2080.78520	         5.83824e+57
          2081.59150	         4.45413e+57
          2082.39780	         5.57634e+57
          2083.20410	         2.80183e+57
          2084.01040	         1.95397e+57
          2084.81670	         3.74067e+57
          2085.62300	         3.80436e+57
          2086.42930	         3.14310e+57
          2087.23560	         4.18287e+57
          2088.04190	         4.50819e+57
          2088.84820	         2.60110e+57
          2089.65450	         2.96375e+57
          2090.46080	         2.32547e+57
          2091.26710	         3.22169e+57
          2092.07340	         3.05553e+57
          2092.87970	         3.08201e+57
          2093.68600	         9.52891e+56
          2094.49230	         3.17917e+57
          2095.29860	         6.52085e+57
          2096.10490	         2.61098e+57
          2096.91120	         1.17727e+57
          2097.71750	         8.92538e+55
          2098.52380	         1.66570e+57
          2099.33010	         2.48846e+56
          2100.13640	         2.75699e+56
          2100.94270	         2.32898e+57
          2101.74900	         2.90851e+57
          2102.55530	         2.60331e+57
          2103.36160	         2.26814e+57
          2104.16790	         3.12118e+57
          2104.97420	         2.41865e+57
          2105.78050	         1.93999e+57
          2106.58680	         2.31976e+57
          2107.39310	        -5.11539e+56
          2108.19940	         3.69800e+57
          2109.00570	        -6.36159e+56
          2109.81200	        -2.55085e+57
          2110.61830	         1.34072e+57
          2111.42460	        -2.24452e+57
          2112.23090	         3.58300e+56
          2113.03720	        -3.77489e+57
          2113.84350	         1.29668e+57
          2114.64980	         6.66563e+57
          2115.45610	        -2.14345e+57
          2116.26240	        -3.02053e+57
          2117.06870	        -3.66833e+57
          2117.87500	         3.83366e+56
          2118.68130	        -9.18396e+56
          2119.48760	        -4.20872e+56
          2120.29390	        -1.35350e+57
          2121.10020	        -5.09765e+57
          2121.90650	        -2.55978e+57
          2122.71280	         1.32116e+57
          2123.51910	         4.31173e+57
          2124.32540	         9.60613e+55
          2125.13170	        -4.80065e+57
          2125.93800	        -4.61591e+57
          2126.74430	        -3.84313e+57
          2127.55060	        -6.48263e+57
          2128.35690	        -4.36630e+57
          2129.16320	         1.72093e+57
          2129.96950	        -1.20830e+57
          2130.77580	        -4.88471e+57
          2131.58210	        -3.03766e+57
          2132.38840	        -3.05620e+57
          2133.19470	         3.89238e+56
          2134.00100	         1.13403e+57
          2134.80730	        -6.82708e+57
          2135.61360	        -5.31840e+57
          2136.41990	         8.92955e+57
          2137.22620	         3.32571e+57
          2138.03250	        -2.68620e+57
          2138.83880	        -5.35827e+57
          2139.64510	         1.18101e+57
          2140.45140	        -1.65956e+57
          2141.25770	        -1.13484e+58
          2142.06400	        -6.82745e+57
          2142.87030	        -7.83854e+57
          2143.67660	        -8.16582e+57
          2144.48290	         2.08365e+57
          2145.28920	         1.15261e+58
          2146.09550	        -6.10516e+56
          2146.90180	        -8.90371e+57
          2147.70810	         1.03416e+57
          2148.51440	         8.41062e+56
          2149.32070	        -1.18969e+58
          2150.12700	        -1.45876e+58
          2150.93330	        -1.08570e+58
          2151.73960	        -2.56101e+57
          2152.54590	        -2.83339e+57
          2153.35220	         2.58358e+57
          2154.15850	        -3.92592e+57
          2154.96480	         4.57904e+57
          2155.77110	        -8.48215e+57
          2156.57740	        -1.37234e+58
          2157.38370	         4.86517e+57
          2158.19000	        -2.37347e+57
          2158.99630	         2.61299e+57
          2159.80260	        -9.87273e+57
          2160.60890	        -1.78779e+58
          2161.41520	        -6.68342e+57
          2162.22150	        -1.13741e+58
          2163.02780	        -7.04214e+57
          2163.83410	        -3.53001e+57
          2164.64040	        -7.67270e+57
          2165.44670	        -5.57007e+57
          2166.25300	        -7.45298e+57
          2167.05930	        -7.55420e+57
          2167.86560	        -1.11940e+58
          2168.67190	        -7.82161e+57
          2169.47820	         1.49242e+57
          2170.28450	        -3.33278e+57
          2171.09080	         2.27000e+57
          2171.89710	         8.19119e+57
          2172.70340	        -6.89755e+57
          2173.50970	        -4.50675e+57
          2174.31600	        -7.26418e+57
          2175.12230	        -2.07742e+58
          2175.92860	        -5.61998e+57
          2176.73490	        -8.57054e+57
          2177.54120	        -8.01883e+57
          2178.34750	        -5.55089e+55
          2179.15380	                 nan
          2179.96010	                 nan
          2180.76640	                 nan
          2181.57270	                 nan
          2182.37900	                 nan
          2183.18530	                 nan
          2183.99160	                 nan
          2184.79790	                 nan
          2185.60420	                 nan
          2186.41050	                 nan
          2187.21680	                 nan
          2188.02310	                 nan
          2188.82940	                 nan
          2189.63570	                 nan
          2190.44200	                 nan
          2191.24830	                 nan
          2192.05460	                 nan
          2192.86090	                 nan
          2193.66720	                 nan
          2194.47350	                 nan
          2195.27980	                 nan
          2196.08610	                 nan
          2196.89240	                 nan
          2197.69870	                 nan
          2198.50500	                 nan
          2199.31130	                 nan
          2200.11760	                 nan
          2200.92390	                 nan
          2201.73020	                 nan
          2202.53650	                 nan
          2203.34280	                 nan
          2204.14910	                 nan
          2204.95540	                 nan
          2205.76170	                 nan
          2206.56800	                 nan
          2207.37430	                 nan
          2208.18060	                 nan
          2208.98690	                 nan
          2209.79320	                 nan
          2210.59950	                 nan
          2211.40580	                 nan
          2212.21210	                 nan
          2213.01840	                 nan
          2213.82470	                 nan
          2214.63100	                 nan
          2215.43730	         0.00000e+00
