#sample_453_stacked_spectrum_rest_UV-bands_median_H-alpha_noDC.txt
#median Lum: 1.69679e+42
#Rest-frame wavelength (A) | Luminosity (erg/s/A)
#
          1110.00000	         0.00000e+00
          1110.80630	         3.71217e+59
          1111.61260	         1.73022e+59
          1112.41890	         2.66934e+57
          1113.22520	         2.70454e+59
          1114.03150	         1.10595e+59
          1114.83780	         2.64333e+59
          1115.64410	        -5.35833e+58
          1116.45040	        -2.35852e+59
          1117.25670	         1.08149e+59
          1118.06300	         2.60230e+59
          1118.86930	         9.05077e+58
          1119.67560	         1.36383e+59
          1120.48190	         5.96592e+58
          1121.28820	        -8.28268e+58
          1122.09450	         4.28820e+58
          1122.90080	         4.90464e+58
          1123.70710	         1.48310e+59
          1124.51340	         7.90685e+58
          1125.31970	         3.87232e+58
          1126.12600	         2.17585e+58
          1126.93230	        -5.82118e+58
          1127.73860	        -7.39278e+58
          1128.54490	         2.53285e+58
          1129.35120	         1.72319e+58
          1130.15750	        -1.82644e+56
          1130.96380	        -1.05356e+58
          1131.77010	         1.24497e+58
          1132.57640	         1.18758e+58
          1133.38270	         2.34769e+58
          1134.18900	         1.27151e+58
          1134.99530	        -1.75867e+58
          1135.80160	         1.63185e+58
          1136.60790	         1.58068e+58
          1137.41420	         4.84088e+57
          1138.22050	         4.55974e+58
          1139.02680	         3.74378e+58
          1139.83310	         3.74577e+58
          1140.63940	         2.91205e+58
          1141.44570	         7.96156e+57
          1142.25200	        -1.85009e+58
          1143.05830	         1.11916e+58
          1143.86460	         2.43249e+58
          1144.67090	         3.21393e+58
          1145.47720	         2.15384e+58
          1146.28350	         1.18054e+58
          1147.08980	         1.35078e+58
          1147.89610	         1.88462e+58
          1148.70240	         1.27851e+58
          1149.50870	         2.68506e+58
          1150.31500	         1.54216e+58
          1151.12130	         1.20147e+58
          1151.92760	         2.06066e+58
          1152.73390	         3.29119e+57
          1153.54020	        -1.97392e+57
          1154.34650	         1.86047e+58
          1155.15280	         1.20003e+58
          1155.95910	         1.03453e+58
          1156.76540	         4.63073e+57
          1157.57170	        -3.21788e+57
          1158.37800	        -4.43090e+57
          1159.18430	         4.51712e+57
          1159.99060	         8.97976e+56
          1160.79690	        -3.50216e+56
          1161.60320	         1.43591e+58
          1162.40950	         6.58707e+57
          1163.21580	         1.59647e+58
          1164.02210	         1.44620e+58
          1164.82840	         1.30425e+58
          1165.63470	         9.57853e+57
          1166.44100	         2.49165e+58
          1167.24730	         2.13837e+58
          1168.05360	         1.67416e+58
          1168.85990	         3.82442e+57
          1169.66620	         6.34674e+57
          1170.47250	         1.37508e+58
          1171.27880	         9.84934e+57
          1172.08510	         1.39700e+58
          1172.89140	         8.75841e+57
          1173.69770	         1.10829e+58
          1174.50400	         1.11446e+58
          1175.31030	         1.49503e+58
          1176.11660	         1.84114e+58
          1176.92290	         1.42260e+58
          1177.72920	         1.20181e+58
          1178.53550	         4.08207e+57
          1179.34180	        -2.16695e+56
          1180.14810	         5.86076e+57
          1180.95440	         7.07037e+57
          1181.76070	         5.29605e+57
          1182.56700	         7.14175e+57
          1183.37330	         5.66429e+57
          1184.17960	         1.03130e+58
          1184.98590	         1.47259e+58
          1185.79220	         1.47935e+58
          1186.59850	         1.70656e+58
          1187.40480	         1.42569e+58
          1188.21110	         1.49743e+58
          1189.01740	         7.54540e+57
          1189.82370	         6.27114e+57
          1190.63000	         1.16339e+58
          1191.43630	         1.40124e+58
          1192.24260	         1.45337e+58
          1193.04890	         1.33800e+58
          1193.85520	         1.41735e+58
          1194.66150	         5.88162e+57
          1195.46780	         1.00425e+58
          1196.27410	         1.42242e+58
          1197.08040	         8.66897e+57
          1197.88670	         1.29700e+58
          1198.69300	         1.39128e+58
          1199.49930	         1.33819e+58
          1200.30560	         1.19622e+58
          1201.11190	         1.12080e+58
          1201.91820	         9.64428e+57
          1202.72450	         9.70125e+57
          1203.53080	         1.28968e+58
          1204.33710	         7.45663e+57
          1205.14340	         5.67567e+57
          1205.94970	         5.77749e+57
          1206.75600	         5.47230e+57
          1207.56230	         6.28997e+57
          1208.36860	         7.46940e+57
          1209.17490	         3.62341e+57
          1209.98120	         8.62973e+57
          1210.78750	         5.93340e+57
          1211.59380	         1.13634e+58
          1212.40010	         1.76207e+58
          1213.20640	         2.22256e+58
          1214.01270	         1.96619e+58
          1214.81900	         2.33482e+58
          1215.62530	         4.49168e+58
          1216.43160	         9.10336e+58
          1217.23790	         1.47452e+59
          1218.04420	         1.12965e+59
          1218.85050	         8.66072e+58
          1219.65680	         5.99442e+58
          1220.46310	         3.87461e+58
          1221.26940	         2.80912e+58
          1222.07570	         1.65591e+58
          1222.88200	         1.62582e+58
          1223.68830	         1.38772e+58
          1224.49460	         8.03767e+57
          1225.30090	         5.32721e+57
          1226.10720	         4.96613e+57
          1226.91350	         6.30507e+57
          1227.71980	         1.03329e+58
          1228.52610	         1.14850e+58
          1229.33240	         8.63451e+57
          1230.13870	         8.49377e+57
          1230.94500	         1.09893e+58
          1231.75130	         6.04882e+57
          1232.55760	         9.31073e+57
          1233.36390	         1.05449e+58
          1234.17020	         1.03217e+58
          1234.97650	         9.47956e+57
          1235.78280	         6.46013e+57
          1236.58910	         9.16587e+57
          1237.39540	         1.18070e+58
          1238.20170	         1.11850e+58
          1239.00800	         1.17555e+58
          1239.81430	         1.20616e+58
          1240.62060	         1.00397e+58
          1241.42690	         1.13707e+58
          1242.23320	         1.28597e+58
          1243.03950	         8.34396e+57
          1243.84580	         8.10106e+57
          1244.65210	         1.09050e+58
          1245.45840	         1.14850e+58
          1246.26470	         1.13216e+58
          1247.07100	         9.74499e+57
          1247.87730	         7.08058e+57
          1248.68360	         5.01440e+57
          1249.48990	         9.22616e+57
          1250.29620	         1.21547e+58
          1251.10250	         7.25478e+57
          1251.90880	         2.99292e+57
          1252.71510	         4.43410e+57
          1253.52140	         6.53950e+57
          1254.32770	         8.70256e+57
          1255.13400	         1.31035e+58
          1255.94030	         1.25325e+58
          1256.74660	         1.05053e+58
          1257.55290	         1.01568e+58
          1258.35920	         8.72363e+57
          1259.16550	         6.25120e+57
          1259.97180	         6.02459e+57
          1260.77810	         9.75324e+57
          1261.58440	         1.14099e+58
          1262.39070	         8.38848e+57
          1263.19700	         7.58548e+57
          1264.00330	         9.34207e+57
          1264.80960	         9.97831e+57
          1265.61590	         1.03125e+58
          1266.42220	         1.03433e+58
          1267.22850	         1.00364e+58
          1268.03480	         1.26838e+58
          1268.84110	         1.40095e+58
          1269.64740	         1.26403e+58
          1270.45370	         1.31177e+58
          1271.26000	         1.32054e+58
          1272.06630	         1.16729e+58
          1272.87260	         1.38068e+58
          1273.67890	         1.29633e+58
          1274.48520	         1.23773e+58
          1275.29150	         1.35730e+58
          1276.09780	         1.16339e+58
          1276.90410	         1.31076e+58
          1277.71040	         1.27970e+58
          1278.51670	         1.02279e+58
          1279.32300	         1.26680e+58
          1280.12930	         1.35787e+58
          1280.93560	         1.16974e+58
          1281.74190	         1.20539e+58
          1282.54820	         1.07301e+58
          1283.35450	         1.03375e+58
          1284.16080	         1.02340e+58
          1284.96710	         1.21387e+58
          1285.77340	         1.09773e+58
          1286.57970	         1.19997e+58
          1287.38600	         1.86602e+58
          1288.19230	         1.97974e+58
          1288.99860	         1.54903e+58
          1289.80490	         1.06782e+58
          1290.61120	         1.33328e+58
          1291.41750	         1.54991e+58
          1292.22380	         1.28739e+58
          1293.03010	         1.05500e+58
          1293.83640	         1.27139e+58
          1294.64270	         9.26121e+57
          1295.44900	         5.37618e+57
          1296.25530	         7.02701e+57
          1297.06160	         7.62158e+57
          1297.86790	         8.40684e+57
          1298.67420	         9.42080e+57
          1299.48050	         9.29631e+57
          1300.28680	         9.79009e+57
          1301.09310	         6.92571e+57
          1301.89940	         3.91081e+57
          1302.70570	         6.21005e+57
          1303.51200	         6.63379e+57
          1304.31830	         9.84380e+57
          1305.12460	         1.07307e+58
          1305.93090	         1.05740e+58
          1306.73720	         1.24346e+58
          1307.54350	         1.37826e+58
          1308.34980	         1.36958e+58
          1309.15610	         1.42579e+58
          1309.96240	         1.51879e+58
          1310.76870	         1.30972e+58
          1311.57500	         1.21909e+58
          1312.38130	         1.35816e+58
          1313.18760	         1.50812e+58
          1313.99390	         1.58773e+58
          1314.80020	         1.64099e+58
          1315.60650	         1.71796e+58
          1316.41280	         1.26371e+58
          1317.21910	         1.09690e+58
          1318.02540	         1.13106e+58
          1318.83170	         1.30449e+58
          1319.63800	         1.35689e+58
          1320.44430	         1.13762e+58
          1321.25060	         1.29595e+58
          1322.05690	         1.40874e+58
          1322.86320	         1.21657e+58
          1323.66950	         1.20242e+58
          1324.47580	         9.30885e+57
          1325.28210	         8.93967e+57
          1326.08840	         1.11802e+58
          1326.89470	         1.21820e+58
          1327.70100	         1.02151e+58
          1328.50730	         7.61236e+57
          1329.31360	         8.52334e+57
          1330.11990	         9.08184e+57
          1330.92620	         8.71365e+57
          1331.73250	         1.04558e+58
          1332.53880	         9.98186e+57
          1333.34510	         7.91227e+57
          1334.15140	         7.98386e+57
          1334.95770	         9.15972e+57
          1335.76400	         1.03166e+58
          1336.57030	         1.11871e+58
          1337.37660	         9.26069e+57
          1338.18290	         9.40450e+57
          1338.98920	         1.23087e+58
          1339.79550	         1.30094e+58
          1340.60180	         1.34896e+58
          1341.40810	         1.42967e+58
          1342.21440	         1.22539e+58
          1343.02070	         1.11729e+58
          1343.82700	         1.24708e+58
          1344.63330	         1.21972e+58
          1345.43960	         1.45843e+58
          1346.24590	         1.30099e+58
          1347.05220	         1.18910e+58
          1347.85850	         1.12495e+58
          1348.66480	         1.16170e+58
          1349.47110	         1.15835e+58
          1350.27740	         1.07573e+58
          1351.08370	         1.21566e+58
          1351.89000	         1.27161e+58
          1352.69630	         1.14712e+58
          1353.50260	         1.04835e+58
          1354.30890	         1.17199e+58
          1355.11520	         1.20131e+58
          1355.92150	         1.13031e+58
          1356.72780	         1.08419e+58
          1357.53410	         1.10932e+58
          1358.34040	         1.11655e+58
          1359.14670	         1.12904e+58
          1359.95300	         1.16129e+58
          1360.75930	         1.10612e+58
          1361.56560	         1.04341e+58
          1362.37190	         1.09471e+58
          1363.17820	         1.01351e+58
          1363.98450	         1.14431e+58
          1364.79080	         1.34463e+58
          1365.59710	         1.26935e+58
          1366.40340	         1.19955e+58
          1367.20970	         1.12069e+58
          1368.01600	         1.11769e+58
          1368.82230	         1.07740e+58
          1369.62860	         8.99966e+57
          1370.43490	         8.40164e+57
          1371.24120	         1.01370e+58
          1372.04750	         9.71437e+57
          1372.85380	         1.06202e+58
          1373.66010	         1.19006e+58
          1374.46640	         1.19742e+58
          1375.27270	         1.08030e+58
          1376.07900	         8.51734e+57
          1376.88530	         7.14430e+57
          1377.69160	         7.80262e+57
          1378.49790	         6.81037e+57
          1379.30420	         7.02022e+57
          1380.11050	         8.94703e+57
          1380.91680	         9.11651e+57
          1381.72310	         7.64966e+57
          1382.52940	         7.06193e+57
          1383.33570	         9.16397e+57
          1384.14200	         1.14416e+58
          1384.94830	         1.07158e+58
          1385.75460	         9.79706e+57
          1386.56090	         1.09206e+58
          1387.36720	         1.21885e+58
          1388.17350	         1.17807e+58
          1388.97980	         1.12419e+58
          1389.78610	         9.43566e+57
          1390.59240	         8.63504e+57
          1391.39870	         8.03178e+57
          1392.20500	         8.99176e+57
          1393.01130	         8.38766e+57
          1393.81760	         7.15965e+57
          1394.62390	         6.70518e+57
          1395.43020	         5.87558e+57
          1396.23650	         6.28493e+57
          1397.04280	         7.61854e+57
          1397.84910	         8.75924e+57
          1398.65540	         9.47388e+57
          1399.46170	         9.92546e+57
          1400.26800	         9.68197e+57
          1401.07430	         8.26139e+57
          1401.88060	         8.02677e+57
          1402.68690	         9.82157e+57
          1403.49320	         1.09923e+58
          1404.29950	         9.78727e+57
          1405.10580	         1.15378e+58
          1405.91210	         1.18463e+58
          1406.71840	         1.00321e+58
          1407.52470	         1.00548e+58
          1408.33100	         9.72374e+57
          1409.13730	         1.16938e+58
          1409.94360	         1.10600e+58
          1410.74990	         1.02720e+58
          1411.55620	         1.03027e+58
          1412.36250	         9.10552e+57
          1413.16880	         9.45830e+57
          1413.97510	         9.36161e+57
          1414.78140	         1.07084e+58
          1415.58770	         1.03140e+58
          1416.39400	         1.01564e+58
          1417.20030	         1.06702e+58
          1418.00660	         9.80911e+57
          1418.81290	         1.02705e+58
          1419.61920	         1.00632e+58
          1420.42550	         1.28940e+58
          1421.23180	         1.37783e+58
          1422.03810	         1.20183e+58
          1422.84440	         1.14185e+58
          1423.65070	         1.35308e+58
          1424.45700	         1.23165e+58
          1425.26330	         9.58763e+57
          1426.06960	         9.71132e+57
          1426.87590	         1.06481e+58
          1427.68220	         1.12502e+58
          1428.48850	         1.12941e+58
          1429.29480	         9.58121e+57
          1430.10110	         1.03178e+58
          1430.90740	         8.39393e+57
          1431.71370	         7.66395e+57
          1432.52000	         8.75618e+57
          1433.32630	         7.63938e+57
          1434.13260	         7.29824e+57
          1434.93890	         7.75908e+57
          1435.74520	         7.95718e+57
          1436.55150	         9.28493e+57
          1437.35780	         1.01251e+58
          1438.16410	         1.01215e+58
          1438.97040	         1.02162e+58
          1439.77670	         9.61919e+57
          1440.58300	         9.32678e+57
          1441.38930	         8.81804e+57
          1442.19560	         9.04255e+57
          1443.00190	         1.01160e+58
          1443.80820	         1.06819e+58
          1444.61450	         9.69689e+57
          1445.42080	         8.69412e+57
          1446.22710	         9.67145e+57
          1447.03340	         1.00982e+58
          1447.83970	         1.08986e+58
          1448.64600	         1.08687e+58
          1449.45230	         1.02579e+58
          1450.25860	         1.05510e+58
          1451.06490	         9.19164e+57
          1451.87120	         7.63942e+57
          1452.67750	         8.14243e+57
          1453.48380	         8.93452e+57
          1454.29010	         8.12020e+57
          1455.09640	         8.93725e+57
          1455.90270	         9.42697e+57
          1456.70900	         8.88271e+57
          1457.51530	         1.00164e+58
          1458.32160	         1.25850e+58
          1459.12790	         1.19105e+58
          1459.93420	         1.03288e+58
          1460.74050	         7.94225e+57
          1461.54680	         8.38357e+57
          1462.35310	         9.03323e+57
          1463.15940	         9.26179e+57
          1463.96570	         1.03834e+58
          1464.77200	         1.03250e+58
          1465.57830	         9.28666e+57
          1466.38460	         8.93232e+57
          1467.19090	         9.08869e+57
          1467.99720	         8.90558e+57
          1468.80350	         8.08551e+57
          1469.60980	         8.43915e+57
          1470.41610	         1.00401e+58
          1471.22240	         8.87078e+57
          1472.02870	         9.25832e+57
          1472.83500	         9.57704e+57
          1473.64130	         9.04466e+57
          1474.44760	         8.68742e+57
          1475.25390	         7.83348e+57
          1476.06020	         7.52858e+57
          1476.86650	         8.27420e+57
          1477.67280	         8.15444e+57
          1478.47910	         7.62647e+57
          1479.28540	         8.20248e+57
          1480.09170	         8.46377e+57
          1480.89800	         7.73280e+57
          1481.70430	         8.19744e+57
          1482.51060	         7.63038e+57
          1483.31690	         6.57524e+57
          1484.12320	         7.08065e+57
          1484.92950	         7.26013e+57
          1485.73580	         7.79312e+57
          1486.54210	         8.81963e+57
          1487.34840	         9.14063e+57
          1488.15470	         8.32021e+57
          1488.96100	         8.78322e+57
          1489.76730	         8.70115e+57
          1490.57360	         9.08059e+57
          1491.37990	         7.86586e+57
          1492.18620	         7.78458e+57
          1492.99250	         8.28590e+57
          1493.79880	         8.03992e+57
          1494.60510	         8.52708e+57
          1495.41140	         7.52016e+57
          1496.21770	         7.96848e+57
          1497.02400	         9.40343e+57
          1497.83030	         8.61307e+57
          1498.63660	         7.46240e+57
          1499.44290	         6.57748e+57
          1500.24920	         6.51006e+57
          1501.05550	         7.81162e+57
          1501.86180	         8.78853e+57
          1502.66810	         8.92671e+57
          1503.47440	         7.98457e+57
          1504.28070	         7.98914e+57
          1505.08700	         8.99591e+57
          1505.89330	         9.00495e+57
          1506.69960	         8.54222e+57
          1507.50590	         8.65692e+57
          1508.31220	         8.37076e+57
          1509.11850	         8.08139e+57
          1509.92480	         9.60292e+57
          1510.73110	         9.05711e+57
          1511.53740	         7.43837e+57
          1512.34370	         6.48630e+57
          1513.15000	         7.64174e+57
          1513.95630	         9.42385e+57
          1514.76260	         9.01509e+57
          1515.56890	         7.92278e+57
          1516.37520	         8.93877e+57
          1517.18150	         9.13274e+57
          1517.98780	         8.48703e+57
          1518.79410	         7.09249e+57
          1519.60040	         7.79000e+57
          1520.40670	         9.28543e+57
          1521.21300	         9.00035e+57
          1522.01930	         8.21210e+57
          1522.82560	         8.68196e+57
          1523.63190	         1.04299e+58
          1524.43820	         7.95297e+57
          1525.24450	         5.58650e+57
          1526.05080	         6.62323e+57
          1526.85710	         7.16087e+57
          1527.66340	         7.23348e+57
          1528.46970	         8.08509e+57
          1529.27600	         7.71172e+57
          1530.08230	         7.35812e+57
          1530.88860	         7.14761e+57
          1531.69490	         8.36993e+57
          1532.50120	         9.33794e+57
          1533.30750	         9.91632e+57
          1534.11380	         9.40639e+57
          1534.92010	         8.53500e+57
          1535.72640	         9.60856e+57
          1536.53270	         8.93449e+57
          1537.33900	         7.68669e+57
          1538.14530	         8.23241e+57
          1538.95160	         8.80569e+57
          1539.75790	         8.84072e+57
          1540.56420	         8.31106e+57
          1541.37050	         7.82852e+57
          1542.17680	         7.55640e+57
          1542.98310	         7.89269e+57
          1543.78940	         7.95889e+57
          1544.59570	         6.63332e+57
          1545.40200	         7.81921e+57
          1546.20830	         1.00263e+58
          1547.01460	         1.17547e+58
          1547.82090	         1.06874e+58
          1548.62720	         1.13856e+58
          1549.43350	         1.18911e+58
          1550.23980	         1.12947e+58
          1551.04610	         1.21392e+58
          1551.85240	         1.20873e+58
          1552.65870	         1.11705e+58
          1553.46500	         1.01919e+58
          1554.27130	         9.91342e+57
          1555.07760	         9.56288e+57
          1555.88390	         8.77238e+57
          1556.69020	         8.94871e+57
          1557.49650	         9.11625e+57
          1558.30280	         8.48990e+57
          1559.10910	         8.59939e+57
          1559.91540	         9.17991e+57
          1560.72170	         9.01555e+57
          1561.52800	         8.60020e+57
          1562.33430	         8.45223e+57
          1563.14060	         8.13970e+57
          1563.94690	         7.59067e+57
          1564.75320	         7.61971e+57
          1565.55950	         6.73695e+57
          1566.36580	         6.76632e+57
          1567.17210	         8.75580e+57
          1567.97840	         9.75373e+57
          1568.78470	         8.92076e+57
          1569.59100	         9.12016e+57
          1570.39730	         8.32495e+57
          1571.20360	         7.33778e+57
          1572.00990	         7.62300e+57
          1572.81620	         8.16370e+57
          1573.62250	         9.62588e+57
          1574.42880	         9.66814e+57
          1575.23510	         7.27322e+57
          1576.04140	         7.77034e+57
          1576.84770	         9.62780e+57
          1577.65400	         8.72288e+57
          1578.46030	         9.02852e+57
          1579.26660	         1.03694e+58
          1580.07290	         9.39885e+57
          1580.87920	         7.76406e+57
          1581.68550	         8.10198e+57
          1582.49180	         8.58966e+57
          1583.29810	         8.11967e+57
          1584.10440	         8.16192e+57
          1584.91070	         8.61537e+57
          1585.71700	         8.13527e+57
          1586.52330	         9.52287e+57
          1587.32960	         8.92648e+57
          1588.13590	         8.26491e+57
          1588.94220	         8.06115e+57
          1589.74850	         8.55998e+57
          1590.55480	         8.52869e+57
          1591.36110	         8.33996e+57
          1592.16740	         8.63261e+57
          1592.97370	         8.99714e+57
          1593.78000	         9.28451e+57
          1594.58630	         9.54670e+57
          1595.39260	         9.03986e+57
          1596.19890	         9.24019e+57
          1597.00520	         9.30252e+57
          1597.81150	         9.41824e+57
          1598.61780	         7.56828e+57
          1599.42410	         7.32203e+57
          1600.23040	         7.51054e+57
          1601.03670	         7.36465e+57
          1601.84300	         7.70650e+57
          1602.64930	         8.22398e+57
          1603.45560	         8.82227e+57
          1604.26190	         8.70267e+57
          1605.06820	         8.02205e+57
          1605.87450	         7.10876e+57
          1606.68080	         6.92506e+57
          1607.48710	         6.53429e+57
          1608.29340	         6.14638e+57
          1609.09970	         7.08596e+57
          1609.90600	         7.23042e+57
          1610.71230	         6.76372e+57
          1611.51860	         7.08340e+57
          1612.32490	         7.68997e+57
          1613.13120	         9.20618e+57
          1613.93750	         8.81642e+57
          1614.74380	         8.91221e+57
          1615.55010	         9.02816e+57
          1616.35640	         8.89973e+57
          1617.16270	         9.73249e+57
          1617.96900	         1.04977e+58
          1618.77530	         8.86739e+57
          1619.58160	         7.53415e+57
          1620.38790	         7.34173e+57
          1621.19420	         8.85651e+57
          1622.00050	         8.39878e+57
          1622.80680	         8.86092e+57
          1623.61310	         8.49510e+57
          1624.41940	         8.50800e+57
          1625.22570	         9.67325e+57
          1626.03200	         9.11465e+57
          1626.83830	         7.71942e+57
          1627.64460	         7.72019e+57
          1628.45090	         6.79078e+57
          1629.25720	         7.72610e+57
          1630.06350	         9.54035e+57
          1630.86980	         6.46334e+57
          1631.67610	         6.08799e+57
          1632.48240	         6.75247e+57
          1633.28870	         7.30778e+57
          1634.09500	         8.76685e+57
          1634.90130	         9.68642e+57
          1635.70760	         8.92329e+57
          1636.51390	         7.21124e+57
          1637.32020	         7.87768e+57
          1638.12650	         9.89929e+57
          1638.93280	         1.00119e+58
          1639.73910	         1.08162e+58
          1640.54540	         1.07299e+58
          1641.35170	         9.26662e+57
          1642.15800	         1.06536e+58
          1642.96430	         9.64034e+57
          1643.77060	         8.54899e+57
          1644.57690	         8.85962e+57
          1645.38320	         9.07181e+57
          1646.18950	         7.95666e+57
          1646.99580	         7.88139e+57
          1647.80210	         8.16000e+57
          1648.60840	         8.08259e+57
          1649.41470	         8.06599e+57
          1650.22100	         6.52392e+57
          1651.02730	         7.12695e+57
          1651.83360	         7.55349e+57
          1652.63990	         7.31717e+57
          1653.44620	         7.95416e+57
          1654.25250	         7.46991e+57
          1655.05880	         8.01933e+57
          1655.86510	         8.48194e+57
          1656.67140	         8.61493e+57
          1657.47770	         8.74570e+57
          1658.28400	         8.85482e+57
          1659.09030	         9.72529e+57
          1659.89660	         1.01729e+58
          1660.70290	         9.78993e+57
          1661.50920	         9.93485e+57
          1662.31550	         9.51505e+57
          1663.12180	         9.20293e+57
          1663.92810	         9.44870e+57
          1664.73440	         1.06307e+58
          1665.54070	         1.12312e+58
          1666.34700	         1.24287e+58
          1667.15330	         1.17887e+58
          1667.95960	         9.04658e+57
          1668.76590	         6.99404e+57
          1669.57220	         7.09411e+57
          1670.37850	         6.93939e+57
          1671.18480	         7.29013e+57
          1671.99110	         8.45034e+57
          1672.79740	         7.19443e+57
          1673.60370	         6.36514e+57
          1674.41000	         7.67252e+57
          1675.21630	         8.34596e+57
          1676.02260	         7.94701e+57
          1676.82890	         6.78158e+57
          1677.63520	         6.15859e+57
          1678.44150	         7.07919e+57
          1679.24780	         8.06168e+57
          1680.05410	         7.76640e+57
          1680.86040	         6.31121e+57
          1681.66670	         7.19817e+57
          1682.47300	         8.22005e+57
          1683.27930	         8.10415e+57
          1684.08560	         8.92206e+57
          1684.89190	         8.17448e+57
          1685.69820	         5.62956e+57
          1686.50450	         5.13900e+57
          1687.31080	         6.38143e+57
          1688.11710	         7.92679e+57
          1688.92340	         7.11076e+57
          1689.72970	         6.77583e+57
          1690.53600	         6.19300e+57
          1691.34230	         6.64823e+57
          1692.14860	         8.38571e+57
          1692.95490	         7.90084e+57
          1693.76120	         6.41874e+57
          1694.56750	         6.91588e+57
          1695.37380	         8.87524e+57
          1696.18010	         8.88513e+57
          1696.98640	         7.87935e+57
          1697.79270	         8.60558e+57
          1698.59900	         8.46869e+57
          1699.40530	         6.82645e+57
          1700.21160	         6.64497e+57
          1701.01790	         8.20895e+57
          1701.82420	         7.70877e+57
          1702.63050	         7.87663e+57
          1703.43680	         8.36756e+57
          1704.24310	         8.43553e+57
          1705.04940	         7.72648e+57
          1705.85570	         7.61456e+57
          1706.66200	         8.39845e+57
          1707.46830	         8.95295e+57
          1708.27460	         8.42457e+57
          1709.08090	         6.73346e+57
          1709.88720	         5.46041e+57
          1710.69350	         5.81091e+57
          1711.49980	         6.18304e+57
          1712.30610	         7.06828e+57
          1713.11240	         8.99719e+57
          1713.91870	         7.60330e+57
          1714.72500	         7.45278e+57
          1715.53130	         9.05729e+57
          1716.33760	         8.75879e+57
          1717.14390	         7.96993e+57
          1717.95020	         8.47649e+57
          1718.75650	         9.59675e+57
          1719.56280	         8.86686e+57
          1720.36910	         6.95902e+57
          1721.17540	         6.78101e+57
          1721.98170	         5.82373e+57
          1722.78800	         5.63051e+57
          1723.59430	         7.16434e+57
          1724.40060	         8.73949e+57
          1725.20690	         8.69385e+57
          1726.01320	         8.54112e+57
          1726.81950	         8.33585e+57
          1727.62580	         7.60601e+57
          1728.43210	         7.21825e+57
          1729.23840	         7.54921e+57
          1730.04470	         7.49958e+57
          1730.85100	         7.64536e+57
          1731.65730	         8.17412e+57
          1732.46360	         7.79470e+57
          1733.26990	         6.90886e+57
          1734.07620	         6.75203e+57
          1734.88250	         7.91464e+57
          1735.68880	         8.53604e+57
          1736.49510	         8.19241e+57
          1737.30140	         7.87362e+57
          1738.10770	         6.89533e+57
          1738.91400	         7.42653e+57
          1739.72030	         7.10329e+57
          1740.52660	         5.82562e+57
          1741.33290	         6.07131e+57
          1742.13920	         6.81130e+57
          1742.94550	         7.07584e+57
          1743.75180	         7.68720e+57
          1744.55810	         7.47799e+57
          1745.36440	         6.45214e+57
          1746.17070	         6.36836e+57
          1746.97700	         5.41829e+57
          1747.78330	         6.62729e+57
          1748.58960	         6.76890e+57
          1749.39590	         6.19397e+57
          1750.20220	         7.05619e+57
          1751.00850	         6.20597e+57
          1751.81480	         5.32264e+57
          1752.62110	         7.04575e+57
          1753.42740	         8.03466e+57
          1754.23370	         7.02617e+57
          1755.04000	         6.97188e+57
          1755.84630	         7.28080e+57
          1756.65260	         7.97147e+57
          1757.45890	         8.20228e+57
          1758.26520	         7.86774e+57
          1759.07150	         9.50241e+57
          1759.87780	         8.25311e+57
          1760.68410	         6.42277e+57
          1761.49040	         7.80139e+57
          1762.29670	         7.65564e+57
          1763.10300	         7.85282e+57
          1763.90930	         8.74051e+57
          1764.71560	         8.31201e+57
          1765.52190	         7.46962e+57
          1766.32820	         8.28123e+57
          1767.13450	         8.03934e+57
          1767.94080	         6.30241e+57
          1768.74710	         6.74427e+57
          1769.55340	         7.34743e+57
          1770.35970	         6.71868e+57
          1771.16600	         8.21104e+57
          1771.97230	         8.74573e+57
          1772.77860	         9.14991e+57
          1773.58490	         7.74551e+57
          1774.39120	         6.13745e+57
          1775.19750	         6.69214e+57
          1776.00380	         7.20442e+57
          1776.81010	         6.54610e+57
          1777.61640	         6.42769e+57
          1778.42270	         7.58333e+57
          1779.22900	         7.84362e+57
          1780.03530	         7.26365e+57
          1780.84160	         7.53732e+57
          1781.64790	         8.17464e+57
          1782.45420	         7.79778e+57
          1783.26050	         6.70002e+57
          1784.06680	         6.70186e+57
          1784.87310	         8.40626e+57
          1785.67940	         8.49798e+57
          1786.48570	         7.52044e+57
          1787.29200	         5.62548e+57
          1788.09830	         5.50737e+57
          1788.90460	         5.57694e+57
          1789.71090	         5.16409e+57
          1790.51720	         5.41826e+57
          1791.32350	         7.73435e+57
          1792.12980	         9.02075e+57
          1792.93610	         7.56841e+57
          1793.74240	         6.94222e+57
          1794.54870	         7.81717e+57
          1795.35500	         8.15722e+57
          1796.16130	         6.45945e+57
          1796.96760	         6.22688e+57
          1797.77390	         6.81031e+57
          1798.58020	         7.29629e+57
          1799.38650	         5.86145e+57
          1800.19280	         7.14879e+57
          1800.99910	         8.73124e+57
          1801.80540	         8.34734e+57
          1802.61170	         9.25618e+57
          1803.41800	         8.35218e+57
          1804.22430	         6.98924e+57
          1805.03060	         6.92373e+57
          1805.83690	         7.76730e+57
          1806.64320	         7.61260e+57
          1807.44950	         6.97351e+57
          1808.25580	         7.85938e+57
          1809.06210	         8.65936e+57
          1809.86840	         7.24302e+57
          1810.67470	         6.25862e+57
          1811.48100	         8.14190e+57
          1812.28730	         8.28356e+57
          1813.09360	         6.71324e+57
          1813.89990	         7.95703e+57
          1814.70620	         6.77400e+57
          1815.51250	         6.96762e+57
          1816.31880	         9.09539e+57
          1817.12510	         7.73776e+57
          1817.93140	         5.89552e+57
          1818.73770	         6.37917e+57
          1819.54400	         7.73425e+57
          1820.35030	         8.54601e+57
          1821.15660	         7.17032e+57
          1821.96290	         6.28475e+57
          1822.76920	         7.47055e+57
          1823.57550	         8.11280e+57
          1824.38180	         7.02762e+57
          1825.18810	         7.64477e+57
          1825.99440	         9.10744e+57
          1826.80070	         7.91834e+57
          1827.60700	         6.78827e+57
          1828.41330	         5.77586e+57
          1829.21960	         5.48305e+57
          1830.02590	         6.88615e+57
          1830.83220	         7.65816e+57
          1831.63850	         7.38472e+57
          1832.44480	         7.31494e+57
          1833.25110	         8.42552e+57
          1834.05740	         8.16597e+57
          1834.86370	         7.12785e+57
          1835.67000	         6.43639e+57
          1836.47630	         7.37139e+57
          1837.28260	         8.55493e+57
          1838.08890	         8.90713e+57
          1838.89520	         9.24202e+57
          1839.70150	         7.72360e+57
          1840.50780	         6.97694e+57
          1841.31410	         7.10457e+57
          1842.12040	         6.98900e+57
          1842.92670	         7.09267e+57
          1843.73300	         6.20731e+57
          1844.53930	         6.32198e+57
          1845.34560	         7.20333e+57
          1846.15190	         7.77570e+57
          1846.95820	         7.63446e+57
          1847.76450	         6.50113e+57
          1848.57080	         6.08941e+57
          1849.37710	         6.86754e+57
          1850.18340	         8.75006e+57
          1850.98970	         8.08053e+57
          1851.79600	         7.09380e+57
          1852.60230	         5.40389e+57
          1853.40860	         5.38960e+57
          1854.21490	         6.90716e+57
          1855.02120	         7.01725e+57
          1855.82750	         5.33771e+57
          1856.63380	         5.53042e+57
          1857.44010	         8.14704e+57
          1858.24640	         7.19992e+57
          1859.05270	         7.28939e+57
          1859.85900	         6.50677e+57
          1860.66530	         6.50621e+57
          1861.47160	         6.86512e+57
          1862.27790	         7.74424e+57
          1863.08420	         8.02081e+57
          1863.89050	         8.00945e+57
          1864.69680	         7.34000e+57
          1865.50310	         7.72652e+57
          1866.30940	         6.25346e+57
          1867.11570	         5.51799e+57
          1867.92200	         6.76127e+57
          1868.72830	         7.93577e+57
          1869.53460	         6.93850e+57
          1870.34090	         7.65551e+57
          1871.14720	         7.99754e+57
          1871.95350	         7.90912e+57
          1872.75980	         7.01875e+57
          1873.56610	         6.14794e+57
          1874.37240	         5.28537e+57
          1875.17870	         6.55727e+57
          1875.98500	         7.23448e+57
          1876.79130	         7.61586e+57
          1877.59760	         6.97753e+57
          1878.40390	         6.34360e+57
          1879.21020	         7.16941e+57
          1880.01650	         8.02790e+57
          1880.82280	         9.00838e+57
          1881.62910	         9.19676e+57
          1882.43540	         9.85778e+57
          1883.24170	         7.95409e+57
          1884.04800	         6.34651e+57
          1884.85430	         6.49958e+57
          1885.66060	         8.03321e+57
          1886.46690	         7.93481e+57
          1887.27320	         8.12316e+57
          1888.07950	         6.64686e+57
          1888.88580	         6.08633e+57
          1889.69210	         7.97695e+57
          1890.49840	         8.19042e+57
          1891.30470	         7.84134e+57
          1892.11100	         7.92009e+57
          1892.91730	         8.51226e+57
          1893.72360	         8.28768e+57
          1894.52990	         7.82006e+57
          1895.33620	         6.37027e+57
          1896.14250	         6.00787e+57
          1896.94880	         6.15315e+57
          1897.75510	         4.10894e+57
          1898.56140	         7.08120e+57
          1899.36770	         7.53130e+57
          1900.17400	         5.53259e+57
          1900.98030	         5.79513e+57
          1901.78660	         6.76322e+57
          1902.59290	         6.30999e+57
          1903.39920	         8.46255e+57
          1904.20550	         9.23576e+57
          1905.01180	         8.91446e+57
          1905.81810	         9.82733e+57
          1906.62440	         1.22591e+58
          1907.43070	         1.45697e+58
          1908.23700	         1.52599e+58
          1909.04330	         1.36060e+58
          1909.84960	         1.16955e+58
          1910.65590	         1.01610e+58
          1911.46220	         9.35074e+57
          1912.26850	         7.19522e+57
          1913.07480	         5.70659e+57
          1913.88110	         6.08003e+57
          1914.68740	         5.51481e+57
          1915.49370	         5.12685e+57
          1916.30000	         5.89307e+57
          1917.10630	         6.32713e+57
          1917.91260	         5.33606e+57
          1918.71890	         6.24518e+57
          1919.52520	         6.23322e+57
          1920.33150	         5.98396e+57
          1921.13780	         6.95146e+57
          1921.94410	         7.90731e+57
          1922.75040	         8.60483e+57
          1923.55670	         8.26688e+57
          1924.36300	         7.17150e+57
          1925.16930	         6.03162e+57
          1925.97560	         5.52009e+57
          1926.78190	         5.07073e+57
          1927.58820	         5.21710e+57
          1928.39450	         6.36243e+57
          1929.20080	         5.93699e+57
          1930.00710	         6.59998e+57
          1930.81340	         7.18629e+57
          1931.61970	         7.06196e+57
          1932.42600	         7.95385e+57
          1933.23230	         7.85406e+57
          1934.03860	         7.40268e+57
          1934.84490	         6.36620e+57
          1935.65120	         7.42999e+57
          1936.45750	         8.72341e+57
          1937.26380	         6.49912e+57
          1938.07010	         6.73747e+57
          1938.87640	         6.84440e+57
          1939.68270	         7.50124e+57
          1940.48900	         7.14960e+57
          1941.29530	         7.64159e+57
          1942.10160	         8.53700e+57
          1942.90790	         6.95733e+57
          1943.71420	         5.98324e+57
          1944.52050	         6.54649e+57
          1945.32680	         7.04063e+57
          1946.13310	         7.38454e+57
          1946.93940	         7.95607e+57
          1947.74570	         7.85789e+57
          1948.55200	         6.80881e+57
          1949.35830	         6.61397e+57
          1950.16460	         4.95937e+57
          1950.97090	         5.72896e+57
          1951.77720	         7.10774e+57
          1952.58350	         7.32384e+57
          1953.38980	         6.13745e+57
          1954.19610	         4.17829e+57
          1955.00240	         4.22489e+57
          1955.80870	         5.88338e+57
          1956.61500	         6.23758e+57
          1957.42130	         5.26899e+57
          1958.22760	         5.95220e+57
          1959.03390	         6.70343e+57
          1959.84020	         7.24954e+57
          1960.64650	         7.20109e+57
          1961.45280	         6.87706e+57
          1962.25910	         6.24245e+57
          1963.06540	         5.74870e+57
          1963.87170	         7.08432e+57
          1964.67800	         7.15027e+57
          1965.48430	         7.02002e+57
          1966.29060	         6.27210e+57
          1967.09690	         7.72585e+57
          1967.90320	         7.08292e+57
          1968.70950	         6.67386e+57
          1969.51580	         6.06825e+57
          1970.32210	         7.02124e+57
          1971.12840	         7.27483e+57
          1971.93470	         5.76437e+57
          1972.74100	         5.32543e+57
          1973.54730	         6.48178e+57
          1974.35360	         6.45057e+57
          1975.15990	         7.42779e+57
          1975.96620	         8.02719e+57
          1976.77250	         8.16555e+57
          1977.57880	         8.06252e+57
          1978.38510	         6.31155e+57
          1979.19140	         6.50962e+57
          1979.99770	         8.68673e+57
          1980.80400	         7.80791e+57
          1981.61030	         7.15802e+57
          1982.41660	         5.93006e+57
          1983.22290	         6.26292e+57
          1984.02920	         6.21256e+57
          1984.83550	         5.35020e+57
          1985.64180	         6.06046e+57
          1986.44810	         6.00680e+57
          1987.25440	         5.43076e+57
          1988.06070	         6.09728e+57
          1988.86700	         5.60614e+57
          1989.67330	         6.85699e+57
          1990.47960	         7.12615e+57
          1991.28590	         6.60282e+57
          1992.09220	         5.26915e+57
          1992.89850	         5.06513e+57
          1993.70480	         6.18776e+57
          1994.51110	         5.09441e+57
          1995.31740	         4.34027e+57
          1996.12370	         4.54506e+57
          1996.93000	         5.45841e+57
          1997.73630	         7.45143e+57
          1998.54260	         7.89067e+57
          1999.34890	         7.11986e+57
          2000.15520	         6.29546e+57
          2000.96150	         6.89119e+57
          2001.76780	         6.74508e+57
          2002.57410	         4.95709e+57
          2003.38040	         5.46435e+57
          2004.18670	         6.07578e+57
          2004.99300	         5.45993e+57
          2005.79930	         6.11006e+57
          2006.60560	         6.84363e+57
          2007.41190	         6.43212e+57
          2008.21820	         6.95115e+57
          2009.02450	         7.63037e+57
          2009.83080	         6.15592e+57
          2010.63710	         6.45490e+57
          2011.44340	         6.97540e+57
          2012.24970	         7.04305e+57
          2013.05600	         5.00245e+57
          2013.86230	         4.68737e+57
          2014.66860	         6.03490e+57
          2015.47490	         6.39874e+57
          2016.28120	         5.72378e+57
          2017.08750	         5.14339e+57
          2017.89380	         6.38861e+57
          2018.70010	         6.02459e+57
          2019.50640	         5.57490e+57
          2020.31270	         7.43986e+57
          2021.11900	         6.85329e+57
          2021.92530	         7.66646e+57
          2022.73160	         6.88639e+57
          2023.53790	         5.84111e+57
          2024.34420	         6.60177e+57
          2025.15050	         7.14719e+57
          2025.95680	         5.74942e+57
          2026.76310	         5.60226e+57
          2027.56940	         6.21744e+57
          2028.37570	         7.11830e+57
          2029.18200	         7.04135e+57
          2029.98830	         6.88324e+57
          2030.79460	         6.51661e+57
          2031.60090	         7.15808e+57
          2032.40720	         6.99638e+57
          2033.21350	         6.94433e+57
          2034.01980	         6.46260e+57
          2034.82610	         5.43138e+57
          2035.63240	         5.33101e+57
          2036.43870	         6.02998e+57
          2037.24500	         7.56521e+57
          2038.05130	         5.93251e+57
          2038.85760	         5.25571e+57
          2039.66390	         6.72611e+57
          2040.47020	         6.16172e+57
          2041.27650	         6.18111e+57
          2042.08280	         4.55087e+57
          2042.88910	         5.33952e+57
          2043.69540	         4.89210e+57
          2044.50170	         3.97268e+57
          2045.30800	         4.93206e+57
          2046.11430	         4.77633e+57
          2046.92060	         5.94241e+57
          2047.72690	         7.27473e+57
          2048.53320	         5.90787e+57
          2049.33950	         6.02628e+57
          2050.14580	         6.89268e+57
          2050.95210	         7.02139e+57
          2051.75840	         7.44666e+57
          2052.56470	         5.33148e+57
          2053.37100	         4.58632e+57
          2054.17730	         3.82113e+57
          2054.98360	         3.95992e+57
          2055.78990	         3.63062e+57
          2056.59620	         3.88248e+57
          2057.40250	         5.02713e+57
          2058.20880	         6.30890e+57
          2059.01510	         6.85208e+57
          2059.82140	         6.01533e+57
          2060.62770	         8.53581e+57
          2061.43400	         1.58769e+58
          2062.24030	         1.28631e+58
          2063.04660	         4.16807e+57
          2063.85290	         3.49322e+56
          2064.65920	        -2.34328e+57
          2065.46550	        -8.30289e+57
          2066.27180	        -6.82248e+57
          2067.07810	         2.59549e+57
          2067.88440	         5.56277e+57
          2068.69070	         6.50838e+57
          2069.49700	         6.01780e+57
          2070.30330	         4.82239e+57
          2071.10960	         4.37123e+57
          2071.91590	         6.13951e+57
          2072.72220	         3.26688e+57
          2073.52850	         4.00595e+57
          2074.33480	         4.64582e+57
          2075.14110	         4.92907e+57
          2075.94740	         4.63880e+57
          2076.75370	         4.53355e+57
          2077.56000	         5.65993e+57
          2078.36630	         6.16910e+57
          2079.17260	         5.31640e+57
          2079.97890	         5.03213e+57
          2080.78520	         5.95889e+57
          2081.59150	         5.06595e+57
          2082.39780	         3.39824e+57
          2083.20410	         3.10276e+57
          2084.01040	         3.24575e+57
          2084.81670	         2.98910e+57
          2085.62300	         3.48636e+57
          2086.42930	         3.81149e+57
          2087.23560	         3.83419e+57
          2088.04190	         3.89821e+57
          2088.84820	         4.49003e+57
          2089.65450	         3.53648e+57
          2090.46080	         2.19172e+57
          2091.26710	         3.03100e+57
          2092.07340	         2.69085e+57
          2092.87970	         2.63178e+57
          2093.68600	        -4.54256e+56
          2094.49230	         3.16734e+57
          2095.29860	         5.24866e+57
          2096.10490	         2.79640e+57
          2096.91120	         6.59910e+56
          2097.71750	         2.91833e+57
          2098.52380	        -3.56169e+55
          2099.33010	         3.39619e+56
          2100.13640	         6.11302e+56
          2100.94270	         2.87479e+57
          2101.74900	         4.09350e+57
          2102.55530	         2.60620e+57
          2103.36160	         3.26927e+57
          2104.16790	         3.79513e+57
          2104.97420	        -2.00190e+56
          2105.78050	        -5.55815e+56
          2106.58680	        -1.03089e+57
          2107.39310	        -3.88136e+57
          2108.19940	        -1.52991e+56
          2109.00570	        -1.30691e+57
          2109.81200	        -2.56886e+57
          2110.61830	         7.73701e+56
          2111.42460	         5.04218e+56
          2112.23090	         3.48018e+56
          2113.03720	         1.40230e+56
          2113.84350	        -1.13874e+55
          2114.64980	         6.64163e+57
          2115.45610	         6.86501e+56
          2116.26240	        -6.37583e+56
          2117.06870	         1.32134e+57
          2117.87500	        -2.84344e+57
          2118.68130	        -2.74424e+57
          2119.48760	        -1.10898e+57
          2120.29390	         3.54480e+57
          2121.10020	        -4.59354e+57
          2121.90650	        -4.30127e+57
          2122.71280	        -2.08094e+57
          2123.51910	         6.90411e+57
          2124.32540	         1.63258e+57
          2125.13170	         2.36646e+57
          2125.93800	         7.47289e+57
          2126.74430	        -3.90989e+57
          2127.55060	        -4.50830e+57
          2128.35690	        -3.28775e+56
          2129.16320	         7.51058e+56
          2129.96950	        -6.38857e+57
          2130.77580	        -6.57072e+57
          2131.58210	        -1.70672e+57
          2132.38840	        -2.29763e+57
          2133.19470	         2.03379e+57
          2134.00100	         3.80592e+57
          2134.80730	        -6.20810e+57
          2135.61360	         1.99163e+57
          2136.41990	         1.23624e+58
          2137.22620	         8.73915e+57
          2138.03250	        -1.58911e+57
          2138.83880	        -3.91690e+57
          2139.64510	         5.04529e+57
          2140.45140	        -3.73847e+56
          2141.25770	        -1.04113e+58
          2142.06400	        -7.71574e+57
          2142.87030	        -4.01237e+57
          2143.67660	         2.24199e+57
          2144.48290	         1.59798e+57
          2145.28920	         6.39643e+57
          2146.09550	        -1.43785e+58
          2146.90180	        -1.33751e+58
          2147.70810	        -1.33844e+58
          2148.51440	        -1.29045e+57
          2149.32070	         1.78225e+56
          2150.12700	        -9.91828e+57
          2150.93330	        -1.99495e+57
          2151.73960	         3.55283e+57
          2152.54590	        -3.21091e+57
          2153.35220	        -9.32544e+56
          2154.15850	        -7.36310e+57
          2154.96480	        -4.27686e+57
          2155.77110	        -2.98346e+57
          2156.57740	        -1.01110e+58
          2157.38370	        -6.49165e+57
          2158.19000	        -2.17936e+57
          2158.99630	         4.40106e+57
          2159.80260	        -1.73727e+58
          2160.60890	        -4.04514e+57
          2161.41520	        -1.06556e+56
          2162.22150	         1.61439e+56
          2163.02780	        -5.13423e+56
          2163.83410	        -8.95757e+57
          2164.64040	        -1.45151e+58
          2165.44670	        -1.51503e+58
          2166.25300	        -1.33222e+58
          2167.05930	        -1.24375e+58
          2167.86560	        -2.16881e+57
          2168.67190	        -9.34837e+57
          2169.47820	        -6.70379e+57
          2170.28450	        -1.32800e+57
          2171.09080	         3.51046e+57
          2171.89710	         3.25561e+57
          2172.70340	         4.38627e+57
          2173.50970	        -1.47623e+58
          2174.31600	        -4.41696e+57
          2175.12230	        -7.46908e+56
          2175.92860	        -3.88244e+57
          2176.73490	        -9.84797e+57
          2177.54120	        -4.97860e+57
          2178.34750	        -1.53394e+57
          2179.15380	                 nan
          2179.96010	                 nan
          2180.76640	                 nan
          2181.57270	                 nan
          2182.37900	                 nan
          2183.18530	                 nan
          2183.99160	                 nan
          2184.79790	                 nan
          2185.60420	                 nan
          2186.41050	                 nan
          2187.21680	                 nan
          2188.02310	                 nan
          2188.82940	                 nan
          2189.63570	                 nan
          2190.44200	                 nan
          2191.24830	                 nan
          2192.05460	                 nan
          2192.86090	                 nan
          2193.66720	                 nan
          2194.47350	                 nan
          2195.27980	                 nan
          2196.08610	                 nan
          2196.89240	                 nan
          2197.69870	                 nan
          2198.50500	                 nan
          2199.31130	                 nan
          2200.11760	                 nan
          2200.92390	                 nan
          2201.73020	                 nan
          2202.53650	                 nan
          2203.34280	                 nan
          2204.14910	                 nan
          2204.95540	                 nan
          2205.76170	                 nan
          2206.56800	                 nan
          2207.37430	                 nan
          2208.18060	                 nan
          2208.98690	                 nan
          2209.79320	                 nan
          2210.59950	                 nan
          2211.40580	                 nan
          2212.21210	                 nan
          2213.01840	                 nan
          2213.82470	                 nan
          2214.63100	                 nan
          2215.43730	         0.00000e+00
