#sample_222_stacked_spectrum_rest_UV-bands_median_H-alpha_noDC.txt
#median Lum: 1.70708e+42
#Rest-frame wavelength (A) | Luminosity (erg/s/A)
#
          1110.00000	         0.00000e+00
          1110.80630	         5.33247e+58
          1111.61260	         1.60418e+59
          1112.41890	        -2.28051e+59
          1113.22520	        -1.85067e+59
          1114.03150	        -1.45477e+59
          1114.83780	         1.01425e+59
          1115.64410	         2.36360e+59
          1116.45040	         3.68385e+59
          1117.25670	         6.12179e+57
          1118.06300	         1.76686e+59
          1118.86930	         3.80693e+58
          1119.67560	         1.00766e+59
          1120.48190	        -2.62714e+58
          1121.28820	        -1.90702e+59
          1122.09450	        -5.51887e+58
          1122.90080	         1.82234e+58
          1123.70710	         2.60399e+58
          1124.51340	         8.08470e+58
          1125.31970	         1.22132e+58
          1126.12600	         1.15986e+58
          1126.93230	        -3.11095e+58
          1127.73860	        -5.90697e+58
          1128.54490	        -2.26537e+58
          1129.35120	         8.09212e+57
          1130.15750	        -3.31029e+58
          1130.96380	        -2.36006e+58
          1131.77010	         3.71601e+58
          1132.57640	         1.57256e+58
          1133.38270	         4.31985e+58
          1134.18900	         2.59271e+58
          1134.99530	        -4.70155e+57
          1135.80160	         1.48669e+58
          1136.60790	         3.87126e+57
          1137.41420	        -4.77392e+57
          1138.22050	         3.49853e+58
          1139.02680	         4.90195e+58
          1139.83310	         1.19905e+58
          1140.63940	         3.34782e+57
          1141.44570	        -5.15950e+57
          1142.25200	        -5.38052e+57
          1143.05830	        -3.25208e+57
          1143.86460	         1.51775e+58
          1144.67090	         2.92062e+58
          1145.47720	         8.44338e+57
          1146.28350	         2.08548e+58
          1147.08980	         1.11682e+58
          1147.89610	         1.50344e+58
          1148.70240	         2.15282e+58
          1149.50870	         2.70702e+58
          1150.31500	         1.33609e+58
          1151.12130	         3.64713e+57
          1151.92760	        -6.34485e+57
          1152.73390	        -2.42746e+57
          1153.54020	         1.80550e+58
          1154.34650	         3.04645e+58
          1155.15280	         2.65562e+58
          1155.95910	         8.80148e+56
          1156.76540	        -1.11437e+57
          1157.57170	        -5.78920e+57
          1158.37800	        -6.07484e+57
          1159.18430	        -3.21392e+57
          1159.99060	         6.77479e+57
          1160.79690	         7.97046e+56
          1161.60320	         1.40567e+58
          1162.40950	         4.38852e+57
          1163.21580	         6.88613e+57
          1164.02210	         1.58346e+58
          1164.82840	         1.46437e+58
          1165.63470	         2.63262e+58
          1166.44100	         3.21003e+58
          1167.24730	         1.91765e+58
          1168.05360	         9.96241e+57
          1168.85990	         1.06036e+58
          1169.66620	         1.23144e+57
          1170.47250	         6.48796e+57
          1171.27880	         1.15014e+58
          1172.08510	         1.72886e+58
          1172.89140	         2.19596e+58
          1173.69770	         4.04530e+57
          1174.50400	         9.39690e+57
          1175.31030	         1.78003e+58
          1176.11660	         1.78283e+58
          1176.92290	         1.93101e+58
          1177.72920	         1.42307e+58
          1178.53550	         6.73164e+57
          1179.34180	         5.39725e+57
          1180.14810	         7.94996e+57
          1180.95440	         5.50020e+57
          1181.76070	         3.76893e+57
          1182.56700	         5.59415e+57
          1183.37330	         1.15031e+58
          1184.17960	         1.52225e+58
          1184.98590	         1.06922e+58
          1185.79220	         1.17379e+58
          1186.59850	         1.24457e+58
          1187.40480	         1.08119e+58
          1188.21110	         1.87787e+58
          1189.01740	         9.29327e+57
          1189.82370	         1.05969e+58
          1190.63000	         1.77068e+58
          1191.43630	         1.98125e+58
          1192.24260	         1.00977e+58
          1193.04890	         1.43159e+58
          1193.85520	         1.61185e+58
          1194.66150	         2.23826e+57
          1195.46780	         1.11076e+58
          1196.27410	         1.86280e+58
          1197.08040	         9.63978e+57
          1197.88670	         1.24127e+58
          1198.69300	         1.80353e+58
          1199.49930	         1.76677e+58
          1200.30560	         1.15317e+58
          1201.11190	         9.02910e+57
          1201.91820	         1.04533e+58
          1202.72450	         8.39130e+57
          1203.53080	         1.53575e+58
          1204.33710	         1.00608e+58
          1205.14340	         6.83000e+57
          1205.94970	         7.69216e+57
          1206.75600	         7.69026e+57
          1207.56230	         7.39904e+57
          1208.36860	         8.95668e+57
          1209.17490	         4.31028e+57
          1209.98120	         6.34134e+57
          1210.78750	         8.51343e+57
          1211.59380	         9.71564e+57
          1212.40010	         1.71193e+58
          1213.20640	         1.73845e+58
          1214.01270	         1.96631e+58
          1214.81900	         2.49505e+58
          1215.62530	         4.23340e+58
          1216.43160	         9.00042e+58
          1217.23790	         1.51235e+59
          1218.04420	         1.16368e+59
          1218.85050	         8.86565e+58
          1219.65680	         5.21928e+58
          1220.46310	         2.86767e+58
          1221.26940	         2.19550e+58
          1222.07570	         1.53721e+58
          1222.88200	         1.20055e+58
          1223.68830	         1.03391e+58
          1224.49460	         6.72538e+57
          1225.30090	         4.22479e+57
          1226.10720	         6.06929e+57
          1226.91350	         7.28640e+57
          1227.71980	         7.21200e+57
          1228.52610	         9.62127e+57
          1229.33240	         5.64140e+57
          1230.13870	         5.75556e+57
          1230.94500	         8.68982e+57
          1231.75130	         7.76222e+57
          1232.55760	         7.49647e+57
          1233.36390	         1.02170e+58
          1234.17020	         1.16952e+58
          1234.97650	         9.14411e+57
          1235.78280	         9.10618e+57
          1236.58910	         1.04169e+58
          1237.39540	         1.13235e+58
          1238.20170	         1.06848e+58
          1239.00800	         1.27631e+58
          1239.81430	         1.67049e+58
          1240.62060	         1.05340e+58
          1241.42690	         9.17194e+57
          1242.23320	         1.37505e+58
          1243.03950	         8.41320e+57
          1243.84580	         8.39231e+57
          1244.65210	         1.11527e+58
          1245.45840	         1.13668e+58
          1246.26470	         8.64030e+57
          1247.07100	         6.38625e+57
          1247.87730	         5.65559e+57
          1248.68360	         4.12247e+57
          1249.48990	         5.74632e+57
          1250.29620	         1.39830e+58
          1251.10250	         1.11203e+58
          1251.90880	         4.51536e+57
          1252.71510	         5.39345e+57
          1253.52140	         7.74808e+57
          1254.32770	         1.14880e+58
          1255.13400	         1.33191e+58
          1255.94030	         1.08871e+58
          1256.74660	         1.05092e+58
          1257.55290	         8.99024e+57
          1258.35920	         6.31918e+57
          1259.16550	         2.91996e+57
          1259.97180	         5.99198e+57
          1260.77810	         1.15845e+58
          1261.58440	         1.17488e+58
          1262.39070	         6.19932e+57
          1263.19700	         7.25929e+57
          1264.00330	         1.11263e+58
          1264.80960	         1.31646e+58
          1265.61590	         1.53346e+58
          1266.42220	         1.43526e+58
          1267.22850	         1.25574e+58
          1268.03480	         1.50600e+58
          1268.84110	         1.39778e+58
          1269.64740	         1.32827e+58
          1270.45370	         1.64255e+58
          1271.26000	         1.49716e+58
          1272.06630	         1.27560e+58
          1272.87260	         1.19478e+58
          1273.67890	         1.38491e+58
          1274.48520	         1.15309e+58
          1275.29150	         9.71095e+57
          1276.09780	         1.12497e+58
          1276.90410	         1.38231e+58
          1277.71040	         1.13043e+58
          1278.51670	         9.98573e+57
          1279.32300	         1.23713e+58
          1280.12930	         1.05352e+58
          1280.93560	         9.96817e+57
          1281.74190	         1.11654e+58
          1282.54820	         1.18420e+58
          1283.35450	         1.08555e+58
          1284.16080	         1.22987e+58
          1284.96710	         1.32099e+58
          1285.77340	         1.16916e+58
          1286.57970	         1.22988e+58
          1287.38600	         1.29713e+58
          1288.19230	         1.83256e+58
          1288.99860	         1.90897e+58
          1289.80490	         1.52724e+58
          1290.61120	         1.59640e+58
          1291.41750	         1.37763e+58
          1292.22380	         1.13691e+58
          1293.03010	         1.05900e+58
          1293.83640	         1.21662e+58
          1294.64270	         1.02191e+58
          1295.44900	         6.67285e+57
          1296.25530	         5.51093e+57
          1297.06160	         7.87109e+57
          1297.86790	         9.61039e+57
          1298.67420	         7.82464e+57
          1299.48050	         8.54290e+57
          1300.28680	         1.04024e+58
          1301.09310	         8.74184e+57
          1301.89940	         3.83003e+57
          1302.70570	         4.71338e+57
          1303.51200	         8.03659e+57
          1304.31830	         1.16108e+58
          1305.12460	         1.09804e+58
          1305.93090	         1.08783e+58
          1306.73720	         1.23438e+58
          1307.54350	         1.47890e+58
          1308.34980	         1.52680e+58
          1309.15610	         1.58677e+58
          1309.96240	         1.59219e+58
          1310.76870	         1.37800e+58
          1311.57500	         1.22116e+58
          1312.38130	         9.74320e+57
          1313.18760	         1.44715e+58
          1313.99390	         1.61878e+58
          1314.80020	         1.69191e+58
          1315.60650	         1.50346e+58
          1316.41280	         1.38699e+58
          1317.21910	         1.22989e+58
          1318.02540	         1.23891e+58
          1318.83170	         1.26916e+58
          1319.63800	         1.25471e+58
          1320.44430	         1.19621e+58
          1321.25060	         1.12857e+58
          1322.05690	         1.21492e+58
          1322.86320	         1.21412e+58
          1323.66950	         1.20031e+58
          1324.47580	         9.95675e+57
          1325.28210	         9.67229e+57
          1326.08840	         1.12485e+58
          1326.89470	         1.26505e+58
          1327.70100	         1.14734e+58
          1328.50730	         7.97731e+57
          1329.31360	         9.82545e+57
          1330.11990	         1.01347e+58
          1330.92620	         7.44846e+57
          1331.73250	         1.00155e+58
          1332.53880	         1.17894e+58
          1333.34510	         9.62304e+57
          1334.15140	         8.23651e+57
          1334.95770	         8.84674e+57
          1335.76400	         1.14632e+58
          1336.57030	         1.13776e+58
          1337.37660	         1.02662e+58
          1338.18290	         1.00229e+58
          1338.98920	         1.05153e+58
          1339.79550	         1.10059e+58
          1340.60180	         1.08339e+58
          1341.40810	         1.27028e+58
          1342.21440	         1.25405e+58
          1343.02070	         1.21570e+58
          1343.82700	         1.30224e+58
          1344.63330	         1.18523e+58
          1345.43960	         1.07813e+58
          1346.24590	         9.89075e+57
          1347.05220	         1.17223e+58
          1347.85850	         1.06923e+58
          1348.66480	         1.14115e+58
          1349.47110	         1.15429e+58
          1350.27740	         9.97452e+57
          1351.08370	         1.15082e+58
          1351.89000	         1.31249e+58
          1352.69630	         1.25307e+58
          1353.50260	         1.15379e+58
          1354.30890	         1.26506e+58
          1355.11520	         1.23387e+58
          1355.92150	         1.00946e+58
          1356.72780	         9.15388e+57
          1357.53410	         1.10877e+58
          1358.34040	         1.26936e+58
          1359.14670	         1.15068e+58
          1359.95300	         1.13663e+58
          1360.75930	         1.09070e+58
          1361.56560	         1.05679e+58
          1362.37190	         1.11233e+58
          1363.17820	         1.06454e+58
          1363.98450	         1.16996e+58
          1364.79080	         1.23744e+58
          1365.59710	         1.23594e+58
          1366.40340	         1.18250e+58
          1367.20970	         1.07603e+58
          1368.01600	         1.01522e+58
          1368.82230	         8.59524e+57
          1369.62860	         8.89057e+57
          1370.43490	         9.33456e+57
          1371.24120	         1.05095e+58
          1372.04750	         8.72743e+57
          1372.85380	         1.16591e+58
          1373.66010	         1.17932e+58
          1374.46640	         1.07425e+58
          1375.27270	         1.15327e+58
          1376.07900	         9.68220e+57
          1376.88530	         8.64227e+57
          1377.69160	         8.55411e+57
          1378.49790	         6.54932e+57
          1379.30420	         7.11156e+57
          1380.11050	         9.50745e+57
          1380.91680	         8.31236e+57
          1381.72310	         7.06799e+57
          1382.52940	         7.60572e+57
          1383.33570	         8.08679e+57
          1384.14200	         9.94958e+57
          1384.94830	         1.01402e+58
          1385.75460	         1.08088e+58
          1386.56090	         1.32024e+58
          1387.36720	         1.29792e+58
          1388.17350	         1.30355e+58
          1388.97980	         1.03316e+58
          1389.78610	         6.95868e+57
          1390.59240	         7.22747e+57
          1391.39870	         7.28771e+57
          1392.20500	         8.65758e+57
          1393.01130	         8.16171e+57
          1393.81760	         8.13490e+57
          1394.62390	         7.95983e+57
          1395.43020	         5.38392e+57
          1396.23650	         5.77825e+57
          1397.04280	         7.63281e+57
          1397.84910	         8.03393e+57
          1398.65540	         8.12638e+57
          1399.46170	         9.86937e+57
          1400.26800	         9.27830e+57
          1401.07430	         8.59210e+57
          1401.88060	         7.72761e+57
          1402.68690	         8.55766e+57
          1403.49320	         9.57130e+57
          1404.29950	         9.67831e+57
          1405.10580	         1.14488e+58
          1405.91210	         1.09715e+58
          1406.71840	         1.04214e+58
          1407.52470	         1.04654e+58
          1408.33100	         1.06933e+58
          1409.13730	         1.17453e+58
          1409.94360	         1.03847e+58
          1410.74990	         1.06016e+58
          1411.55620	         1.05388e+58
          1412.36250	         8.40350e+57
          1413.16880	         7.44913e+57
          1413.97510	         7.43854e+57
          1414.78140	         8.20546e+57
          1415.58770	         9.73092e+57
          1416.39400	         1.00749e+58
          1417.20030	         1.12675e+58
          1418.00660	         9.96782e+57
          1418.81290	         8.94798e+57
          1419.61920	         9.92862e+57
          1420.42550	         1.22768e+58
          1421.23180	         1.29206e+58
          1422.03810	         1.30840e+58
          1422.84440	         1.22551e+58
          1423.65070	         1.27540e+58
          1424.45700	         1.14869e+58
          1425.26330	         8.36827e+57
          1426.06960	         9.07846e+57
          1426.87590	         9.69454e+57
          1427.68220	         9.47978e+57
          1428.48850	         1.06617e+58
          1429.29480	         1.00369e+58
          1430.10110	         9.24061e+57
          1430.90740	         8.56054e+57
          1431.71370	         8.33727e+57
          1432.52000	         9.10370e+57
          1433.32630	         8.38440e+57
          1434.13260	         8.16628e+57
          1434.93890	         8.78976e+57
          1435.74520	         9.41870e+57
          1436.55150	         8.87745e+57
          1437.35780	         8.83700e+57
          1438.16410	         9.35262e+57
          1438.97040	         9.30408e+57
          1439.77670	         9.38707e+57
          1440.58300	         9.46395e+57
          1441.38930	         1.06176e+58
          1442.19560	         1.04088e+58
          1443.00190	         9.08407e+57
          1443.80820	         1.00598e+58
          1444.61450	         1.02168e+58
          1445.42080	         8.87945e+57
          1446.22710	         9.92960e+57
          1447.03340	         9.89985e+57
          1447.83970	         1.11663e+58
          1448.64600	         1.15211e+58
          1449.45230	         1.08612e+58
          1450.25860	         1.01109e+58
          1451.06490	         9.01655e+57
          1451.87120	         7.57314e+57
          1452.67750	         8.01078e+57
          1453.48380	         7.91959e+57
          1454.29010	         7.07945e+57
          1455.09640	         7.59622e+57
          1455.90270	         9.11208e+57
          1456.70900	         8.47087e+57
          1457.51530	         9.33704e+57
          1458.32160	         1.13979e+58
          1459.12790	         1.08905e+58
          1459.93420	         9.27672e+57
          1460.74050	         7.38300e+57
          1461.54680	         8.13087e+57
          1462.35310	         8.85629e+57
          1463.15940	         9.99461e+57
          1463.96570	         1.09217e+58
          1464.77200	         1.14226e+58
          1465.57830	         1.05083e+58
          1466.38460	         8.42203e+57
          1467.19090	         9.24723e+57
          1467.99720	         1.01730e+58
          1468.80350	         9.31781e+57
          1469.60980	         9.10699e+57
          1470.41610	         9.78757e+57
          1471.22240	         8.86811e+57
          1472.02870	         9.65107e+57
          1472.83500	         1.01995e+58
          1473.64130	         9.52435e+57
          1474.44760	         9.81265e+57
          1475.25390	         9.83709e+57
          1476.06020	         9.42698e+57
          1476.86650	         7.85514e+57
          1477.67280	         8.16306e+57
          1478.47910	         8.42415e+57
          1479.28540	         7.50789e+57
          1480.09170	         8.77631e+57
          1480.89800	         9.12417e+57
          1481.70430	         8.10985e+57
          1482.51060	         8.05800e+57
          1483.31690	         7.67146e+57
          1484.12320	         8.12371e+57
          1484.92950	         7.66654e+57
          1485.73580	         7.33869e+57
          1486.54210	         8.21190e+57
          1487.34840	         9.37752e+57
          1488.15470	         8.38457e+57
          1488.96100	         7.89148e+57
          1489.76730	         8.64971e+57
          1490.57360	         8.36748e+57
          1491.37990	         7.94724e+57
          1492.18620	         8.15887e+57
          1492.99250	         8.24160e+57
          1493.79880	         8.82724e+57
          1494.60510	         7.89046e+57
          1495.41140	         6.60879e+57
          1496.21770	         7.63485e+57
          1497.02400	         1.09688e+58
          1497.83030	         9.17046e+57
          1498.63660	         7.15102e+57
          1499.44290	         8.22327e+57
          1500.24920	         8.55006e+57
          1501.05550	         7.82998e+57
          1501.86180	         7.90185e+57
          1502.66810	         8.81486e+57
          1503.47440	         8.20224e+57
          1504.28070	         8.20410e+57
          1505.08700	         9.14832e+57
          1505.89330	         9.96796e+57
          1506.69960	         9.96734e+57
          1507.50590	         8.60381e+57
          1508.31220	         8.33572e+57
          1509.11850	         8.85235e+57
          1509.92480	         9.75143e+57
          1510.73110	         9.53047e+57
          1511.53740	         8.38190e+57
          1512.34370	         7.54903e+57
          1513.15000	         8.36754e+57
          1513.95630	         1.01116e+58
          1514.76260	         9.00581e+57
          1515.56890	         8.20018e+57
          1516.37520	         9.19323e+57
          1517.18150	         8.03387e+57
          1517.98780	         7.51211e+57
          1518.79410	         7.52515e+57
          1519.60040	         6.86247e+57
          1520.40670	         8.91094e+57
          1521.21300	         9.38965e+57
          1522.01930	         7.80280e+57
          1522.82560	         9.00054e+57
          1523.63190	         1.04431e+58
          1524.43820	         9.62782e+57
          1525.24450	         7.48208e+57
          1526.05080	         6.29511e+57
          1526.85710	         5.61705e+57
          1527.66340	         6.28637e+57
          1528.46970	         7.74909e+57
          1529.27600	         8.21030e+57
          1530.08230	         7.97314e+57
          1530.88860	         7.55793e+57
          1531.69490	         8.16571e+57
          1532.50120	         1.00172e+58
          1533.30750	         1.01220e+58
          1534.11380	         9.32956e+57
          1534.92010	         9.45444e+57
          1535.72640	         9.76094e+57
          1536.53270	         9.77714e+57
          1537.33900	         8.93665e+57
          1538.14530	         8.89955e+57
          1538.95160	         9.28457e+57
          1539.75790	         8.68874e+57
          1540.56420	         8.75524e+57
          1541.37050	         8.18283e+57
          1542.17680	         7.73068e+57
          1542.98310	         7.55899e+57
          1543.78940	         8.11608e+57
          1544.59570	         7.83963e+57
          1545.40200	         7.76661e+57
          1546.20830	         9.49702e+57
          1547.01460	         1.06716e+58
          1547.82090	         1.10687e+58
          1548.62720	         1.14271e+58
          1549.43350	         1.10232e+58
          1550.23980	         1.07616e+58
          1551.04610	         1.27669e+58
          1551.85240	         1.25335e+58
          1552.65870	         1.13198e+58
          1553.46500	         9.75779e+57
          1554.27130	         1.01219e+58
          1555.07760	         1.02219e+58
          1555.88390	         9.03546e+57
          1556.69020	         8.95754e+57
          1557.49650	         9.72503e+57
          1558.30280	         9.65965e+57
          1559.10910	         9.14063e+57
          1559.91540	         9.50770e+57
          1560.72170	         9.90724e+57
          1561.52800	         9.31196e+57
          1562.33430	         8.80760e+57
          1563.14060	         8.81595e+57
          1563.94690	         8.30468e+57
          1564.75320	         7.95332e+57
          1565.55950	         6.77399e+57
          1566.36580	         7.72997e+57
          1567.17210	         9.65790e+57
          1567.97840	         1.00458e+58
          1568.78470	         9.13142e+57
          1569.59100	         9.12008e+57
          1570.39730	         8.71783e+57
          1571.20360	         7.61804e+57
          1572.00990	         7.75506e+57
          1572.81620	         8.52713e+57
          1573.62250	         9.74481e+57
          1574.42880	         9.38757e+57
          1575.23510	         9.15730e+57
          1576.04140	         9.07380e+57
          1576.84770	         9.00644e+57
          1577.65400	         8.81080e+57
          1578.46030	         9.27636e+57
          1579.26660	         9.91312e+57
          1580.07290	         9.28488e+57
          1580.87920	         7.51438e+57
          1581.68550	         7.24272e+57
          1582.49180	         8.85176e+57
          1583.29810	         7.79433e+57
          1584.10440	         7.76185e+57
          1584.91070	         8.52900e+57
          1585.71700	         8.80339e+57
          1586.52330	         8.97980e+57
          1587.32960	         9.15130e+57
          1588.13590	         8.98668e+57
          1588.94220	         9.01311e+57
          1589.74850	         9.46967e+57
          1590.55480	         9.17328e+57
          1591.36110	         8.41326e+57
          1592.16740	         8.44689e+57
          1592.97370	         8.46231e+57
          1593.78000	         9.24881e+57
          1594.58630	         8.90334e+57
          1595.39260	         8.21857e+57
          1596.19890	         8.84281e+57
          1597.00520	         9.81927e+57
          1597.81150	         8.59345e+57
          1598.61780	         6.81921e+57
          1599.42410	         7.01055e+57
          1600.23040	         7.28096e+57
          1601.03670	         7.70716e+57
          1601.84300	         6.80117e+57
          1602.64930	         7.98497e+57
          1603.45560	         9.37798e+57
          1604.26190	         8.70372e+57
          1605.06820	         7.98353e+57
          1605.87450	         7.53261e+57
          1606.68080	         8.04596e+57
          1607.48710	         7.20037e+57
          1608.29340	         6.37615e+57
          1609.09970	         6.80697e+57
          1609.90600	         7.54561e+57
          1610.71230	         6.97331e+57
          1611.51860	         6.92640e+57
          1612.32490	         7.02602e+57
          1613.13120	         8.75687e+57
          1613.93750	         8.48556e+57
          1614.74380	         8.47545e+57
          1615.55010	         9.29317e+57
          1616.35640	         9.24637e+57
          1617.16270	         1.08561e+58
          1617.96900	         1.09600e+58
          1618.77530	         8.73146e+57
          1619.58160	         7.83280e+57
          1620.38790	         7.12918e+57
          1621.19420	         8.79802e+57
          1622.00050	         8.32206e+57
          1622.80680	         8.65334e+57
          1623.61310	         8.93462e+57
          1624.41940	         8.40488e+57
          1625.22570	         8.63218e+57
          1626.03200	         8.12699e+57
          1626.83830	         7.72680e+57
          1627.64460	         8.39543e+57
          1628.45090	         7.60091e+57
          1629.25720	         8.50834e+57
          1630.06350	         8.99992e+57
          1630.86980	         6.62896e+57
          1631.67610	         7.20737e+57
          1632.48240	         8.17321e+57
          1633.28870	         8.68774e+57
          1634.09500	         8.92499e+57
          1634.90130	         1.04163e+58
          1635.70760	         9.45543e+57
          1636.51390	         7.48118e+57
          1637.32020	         6.93038e+57
          1638.12650	         8.51775e+57
          1638.93280	         9.19390e+57
          1639.73910	         1.00654e+58
          1640.54540	         9.72337e+57
          1641.35170	         8.19974e+57
          1642.15800	         8.18856e+57
          1642.96430	         8.07908e+57
          1643.77060	         8.53860e+57
          1644.57690	         7.53763e+57
          1645.38320	         7.34028e+57
          1646.18950	         6.29084e+57
          1646.99580	         7.36745e+57
          1647.80210	         8.47136e+57
          1648.60840	         7.97025e+57
          1649.41470	         8.66339e+57
          1650.22100	         7.62084e+57
          1651.02730	         7.33519e+57
          1651.83360	         7.84920e+57
          1652.63990	         7.85810e+57
          1653.44620	         9.20308e+57
          1654.25250	         8.34818e+57
          1655.05880	         8.16207e+57
          1655.86510	         8.43414e+57
          1656.67140	         8.24017e+57
          1657.47770	         8.37570e+57
          1658.28400	         9.05980e+57
          1659.09030	         9.29966e+57
          1659.89660	         9.20715e+57
          1660.70290	         9.14736e+57
          1661.50920	         8.91187e+57
          1662.31550	         8.19154e+57
          1663.12180	         7.88252e+57
          1663.92810	         9.86238e+57
          1664.73440	         1.17308e+58
          1665.54070	         1.14772e+58
          1666.34700	         1.24854e+58
          1667.15330	         1.24051e+58
          1667.95960	         9.17980e+57
          1668.76590	         6.65738e+57
          1669.57220	         6.84784e+57
          1670.37850	         7.55077e+57
          1671.18480	         7.30401e+57
          1671.99110	         7.43128e+57
          1672.79740	         7.30533e+57
          1673.60370	         6.36574e+57
          1674.41000	         7.25665e+57
          1675.21630	         7.36888e+57
          1676.02260	         6.00900e+57
          1676.82890	         6.20814e+57
          1677.63520	         6.46093e+57
          1678.44150	         7.65517e+57
          1679.24780	         7.98341e+57
          1680.05410	         7.32826e+57
          1680.86040	         5.22507e+57
          1681.66670	         6.13328e+57
          1682.47300	         8.63171e+57
          1683.27930	         9.20823e+57
          1684.08560	         8.31561e+57
          1684.89190	         7.55634e+57
          1685.69820	         6.25790e+57
          1686.50450	         6.41621e+57
          1687.31080	         6.88892e+57
          1688.11710	         6.57905e+57
          1688.92340	         6.03491e+57
          1689.72970	         6.68831e+57
          1690.53600	         7.26480e+57
          1691.34230	         8.00767e+57
          1692.14860	         8.13805e+57
          1692.95490	         7.90892e+57
          1693.76120	         7.85194e+57
          1694.56750	         7.79418e+57
          1695.37380	         9.13846e+57
          1696.18010	         9.81148e+57
          1696.98640	         9.52083e+57
          1697.79270	         8.96581e+57
          1698.59900	         7.87807e+57
          1699.40530	         6.66600e+57
          1700.21160	         7.00014e+57
          1701.01790	         8.39095e+57
          1701.82420	         7.21192e+57
          1702.63050	         6.53469e+57
          1703.43680	         8.49130e+57
          1704.24310	         9.06447e+57
          1705.04940	         8.24652e+57
          1705.85570	         7.63253e+57
          1706.66200	         7.40666e+57
          1707.46830	         7.35357e+57
          1708.27460	         8.74731e+57
          1709.08090	         7.22518e+57
          1709.88720	         5.13731e+57
          1710.69350	         5.42444e+57
          1711.49980	         7.22590e+57
          1712.30610	         7.79246e+57
          1713.11240	         8.66505e+57
          1713.91870	         8.41694e+57
          1714.72500	         9.48905e+57
          1715.53130	         9.80431e+57
          1716.33760	         8.49027e+57
          1717.14390	         7.40561e+57
          1717.95020	         7.79696e+57
          1718.75650	         8.67659e+57
          1719.56280	         9.10526e+57
          1720.36910	         7.80013e+57
          1721.17540	         7.43882e+57
          1721.98170	         6.23670e+57
          1722.78800	         6.41129e+57
          1723.59430	         7.34088e+57
          1724.40060	         8.79357e+57
          1725.20690	         8.66279e+57
          1726.01320	         8.54517e+57
          1726.81950	         7.64940e+57
          1727.62580	         7.41502e+57
          1728.43210	         7.74099e+57
          1729.23840	         7.70587e+57
          1730.04470	         8.81918e+57
          1730.85100	         9.03068e+57
          1731.65730	         7.59242e+57
          1732.46360	         7.08755e+57
          1733.26990	         7.48472e+57
          1734.07620	         6.93639e+57
          1734.88250	         7.98808e+57
          1735.68880	         8.09798e+57
          1736.49510	         8.05009e+57
          1737.30140	         7.85290e+57
          1738.10770	         6.55959e+57
          1738.91400	         7.39250e+57
          1739.72030	         7.52726e+57
          1740.52660	         6.28527e+57
          1741.33290	         6.30940e+57
          1742.13920	         6.15065e+57
          1742.94550	         6.86720e+57
          1743.75180	         7.47978e+57
          1744.55810	         7.84005e+57
          1745.36440	         6.67444e+57
          1746.17070	         5.90754e+57
          1746.97700	         5.20081e+57
          1747.78330	         6.28199e+57
          1748.58960	         7.11137e+57
          1749.39590	         6.76876e+57
          1750.20220	         6.00623e+57
          1751.00850	         5.66742e+57
          1751.81480	         6.53613e+57
          1752.62110	         6.93204e+57
          1753.42740	         7.70231e+57
          1754.23370	         7.60441e+57
          1755.04000	         7.48669e+57
          1755.84630	         6.83951e+57
          1756.65260	         8.09997e+57
          1757.45890	         8.74473e+57
          1758.26520	         6.57506e+57
          1759.07150	         7.22956e+57
          1759.87780	         7.11561e+57
          1760.68410	         7.25254e+57
          1761.49040	         7.92435e+57
          1762.29670	         6.36830e+57
          1763.10300	         7.06852e+57
          1763.90930	         8.13633e+57
          1764.71560	         8.77616e+57
          1765.52190	         8.28787e+57
          1766.32820	         8.78176e+57
          1767.13450	         8.01345e+57
          1767.94080	         6.78011e+57
          1768.74710	         6.88202e+57
          1769.55340	         7.45150e+57
          1770.35970	         7.19190e+57
          1771.16600	         6.98049e+57
          1771.97230	         8.67092e+57
          1772.77860	         9.73405e+57
          1773.58490	         7.70369e+57
          1774.39120	         5.96628e+57
          1775.19750	         5.88398e+57
          1776.00380	         6.14747e+57
          1776.81010	         6.73466e+57
          1777.61640	         6.81967e+57
          1778.42270	         6.59743e+57
          1779.22900	         6.46455e+57
          1780.03530	         6.83833e+57
          1780.84160	         6.91494e+57
          1781.64790	         8.17183e+57
          1782.45420	         7.24406e+57
          1783.26050	         6.55655e+57
          1784.06680	         7.61998e+57
          1784.87310	         7.69879e+57
          1785.67940	         6.54785e+57
          1786.48570	         6.95002e+57
          1787.29200	         6.36392e+57
          1788.09830	         6.58000e+57
          1788.90460	         6.00000e+57
          1789.71090	         5.15409e+57
          1790.51720	         5.53688e+57
          1791.32350	         7.15967e+57
          1792.12980	         8.81718e+57
          1792.93610	         8.36085e+57
          1793.74240	         7.62693e+57
          1794.54870	         8.43775e+57
          1795.35500	         8.15054e+57
          1796.16130	         7.65077e+57
          1796.96760	         6.89219e+57
          1797.77390	         7.20684e+57
          1798.58020	         7.42964e+57
          1799.38650	         6.89139e+57
          1800.19280	         6.95261e+57
          1800.99910	         6.51887e+57
          1801.80540	         6.28879e+57
          1802.61170	         7.70600e+57
          1803.41800	         8.36546e+57
          1804.22430	         7.57292e+57
          1805.03060	         7.67045e+57
          1805.83690	         7.57093e+57
          1806.64320	         8.30039e+57
          1807.44950	         7.94220e+57
          1808.25580	         8.49162e+57
          1809.06210	         8.08537e+57
          1809.86840	         6.41548e+57
          1810.67470	         6.00992e+57
          1811.48100	         7.90772e+57
          1812.28730	         7.10225e+57
          1813.09360	         8.03364e+57
          1813.89990	         8.42846e+57
          1814.70620	         7.68711e+57
          1815.51250	         8.59713e+57
          1816.31880	         8.59552e+57
          1817.12510	         7.73310e+57
          1817.93140	         7.02451e+57
          1818.73770	         7.08515e+57
          1819.54400	         8.11685e+57
          1820.35030	         9.67933e+57
          1821.15660	         7.15707e+57
          1821.96290	         6.26825e+57
          1822.76920	         7.48446e+57
          1823.57550	         7.65755e+57
          1824.38180	         7.56710e+57
          1825.18810	         6.73985e+57
          1825.99440	         8.57647e+57
          1826.80070	         7.74838e+57
          1827.60700	         6.32496e+57
          1828.41330	         6.05610e+57
          1829.21960	         6.49981e+57
          1830.02590	         6.29755e+57
          1830.83220	         7.84379e+57
          1831.63850	         7.42428e+57
          1832.44480	         6.26910e+57
          1833.25110	         8.07458e+57
          1834.05740	         9.19676e+57
          1834.86370	         7.38470e+57
          1835.67000	         6.50238e+57
          1836.47630	         7.00081e+57
          1837.28260	         8.08922e+57
          1838.08890	         8.82666e+57
          1838.89520	         8.66439e+57
          1839.70150	         7.61924e+57
          1840.50780	         6.70412e+57
          1841.31410	         6.76325e+57
          1842.12040	         6.51139e+57
          1842.92670	         7.03273e+57
          1843.73300	         6.55430e+57
          1844.53930	         6.08763e+57
          1845.34560	         7.12283e+57
          1846.15190	         7.25506e+57
          1846.95820	         7.55974e+57
          1847.76450	         7.79767e+57
          1848.57080	         7.05215e+57
          1849.37710	         7.46249e+57
          1850.18340	         8.01426e+57
          1850.98970	         8.52580e+57
          1851.79600	         8.44616e+57
          1852.60230	         7.51351e+57
          1853.40860	         7.07479e+57
          1854.21490	         7.44008e+57
          1855.02120	         6.45749e+57
          1855.82750	         5.13152e+57
          1856.63380	         6.17093e+57
          1857.44010	         7.67042e+57
          1858.24640	         7.45426e+57
          1859.05270	         7.09471e+57
          1859.85900	         5.69210e+57
          1860.66530	         4.84534e+57
          1861.47160	         6.45646e+57
          1862.27790	         7.49234e+57
          1863.08420	         7.29332e+57
          1863.89050	         7.53526e+57
          1864.69680	         7.19813e+57
          1865.50310	         7.01000e+57
          1866.30940	         6.40532e+57
          1867.11570	         6.85727e+57
          1867.92200	         7.04716e+57
          1868.72830	         7.37031e+57
          1869.53460	         6.74604e+57
          1870.34090	         7.17187e+57
          1871.14720	         7.60015e+57
          1871.95350	         7.34936e+57
          1872.75980	         7.50459e+57
          1873.56610	         6.19772e+57
          1874.37240	         5.79500e+57
          1875.17870	         5.89883e+57
          1875.98500	         7.67805e+57
          1876.79130	         7.40009e+57
          1877.59760	         6.39752e+57
          1878.40390	         6.97138e+57
          1879.21020	         6.95909e+57
          1880.01650	         7.93021e+57
          1880.82280	         8.52957e+57
          1881.62910	         9.11898e+57
          1882.43540	         1.01177e+58
          1883.24170	         9.09752e+57
          1884.04800	         7.28518e+57
          1884.85430	         7.02132e+57
          1885.66060	         7.61894e+57
          1886.46690	         8.17598e+57
          1887.27320	         7.62788e+57
          1888.07950	         6.72458e+57
          1888.88580	         7.31131e+57
          1889.69210	         8.07688e+57
          1890.49840	         8.52178e+57
          1891.30470	         7.87260e+57
          1892.11100	         8.25697e+57
          1892.91730	         7.54442e+57
          1893.72360	         7.91408e+57
          1894.52990	         7.34549e+57
          1895.33620	         7.34833e+57
          1896.14250	         6.79396e+57
          1896.94880	         6.13426e+57
          1897.75510	         4.85256e+57
          1898.56140	         5.84022e+57
          1899.36770	         7.51528e+57
          1900.17400	         6.48165e+57
          1900.98030	         6.02804e+57
          1901.78660	         7.45756e+57
          1902.59290	         7.94087e+57
          1903.39920	         8.80106e+57
          1904.20550	         8.89741e+57
          1905.01180	         8.57585e+57
          1905.81810	         9.54573e+57
          1906.62440	         1.16412e+58
          1907.43070	         1.52555e+58
          1908.23700	         1.56757e+58
          1909.04330	         1.27427e+58
          1909.84960	         1.02602e+58
          1910.65590	         8.98318e+57
          1911.46220	         9.17758e+57
          1912.26850	         8.28858e+57
          1913.07480	         6.07539e+57
          1913.88110	         5.79550e+57
          1914.68740	         5.60611e+57
          1915.49370	         5.80558e+57
          1916.30000	         6.04166e+57
          1917.10630	         7.02445e+57
          1917.91260	         7.45421e+57
          1918.71890	         6.95907e+57
          1919.52520	         6.95256e+57
          1920.33150	         5.99088e+57
          1921.13780	         6.74038e+57
          1921.94410	         8.70190e+57
          1922.75040	         8.01173e+57
          1923.55670	         7.79147e+57
          1924.36300	         7.45484e+57
          1925.16930	         5.97201e+57
          1925.97560	         5.40067e+57
          1926.78190	         4.72587e+57
          1927.58820	         5.44537e+57
          1928.39450	         5.99009e+57
          1929.20080	         5.72007e+57
          1930.00710	         6.01787e+57
          1930.81340	         7.68192e+57
          1931.61970	         6.66945e+57
          1932.42600	         6.46393e+57
          1933.23230	         7.61611e+57
          1934.03860	         6.17158e+57
          1934.84490	         5.29261e+57
          1935.65120	         8.03980e+57
          1936.45750	         8.76305e+57
          1937.26380	         6.48532e+57
          1938.07010	         6.47199e+57
          1938.87640	         7.35111e+57
          1939.68270	         7.44558e+57
          1940.48900	         7.37948e+57
          1941.29530	         7.73062e+57
          1942.10160	         7.12411e+57
          1942.90790	         6.54045e+57
          1943.71420	         6.03521e+57
          1944.52050	         6.40092e+57
          1945.32680	         5.98444e+57
          1946.13310	         6.94309e+57
          1946.93940	         7.36373e+57
          1947.74570	         6.92632e+57
          1948.55200	         5.54709e+57
          1949.35830	         7.03506e+57
          1950.16460	         6.78464e+57
          1950.97090	         6.86350e+57
          1951.77720	         7.26998e+57
          1952.58350	         8.04453e+57
          1953.38980	         6.01864e+57
          1954.19610	         5.21972e+57
          1955.00240	         6.33890e+57
          1955.80870	         6.36371e+57
          1956.61500	         5.75495e+57
          1957.42130	         6.37576e+57
          1958.22760	         7.09192e+57
          1959.03390	         6.49216e+57
          1959.84020	         6.36923e+57
          1960.64650	         6.76353e+57
          1961.45280	         6.81847e+57
          1962.25910	         6.01860e+57
          1963.06540	         6.65581e+57
          1963.87170	         6.44606e+57
          1964.67800	         7.85001e+57
          1965.48430	         7.52742e+57
          1966.29060	         7.62661e+57
          1967.09690	         8.22864e+57
          1967.90320	         7.23709e+57
          1968.70950	         5.91998e+57
          1969.51580	         5.02722e+57
          1970.32210	         6.53761e+57
          1971.12840	         6.79951e+57
          1971.93470	         4.65048e+57
          1972.74100	         5.55425e+57
          1973.54730	         7.10949e+57
          1974.35360	         6.38519e+57
          1975.15990	         6.51646e+57
          1975.96620	         5.94319e+57
          1976.77250	         7.07749e+57
          1977.57880	         7.96863e+57
          1978.38510	         6.69321e+57
          1979.19140	         6.24792e+57
          1979.99770	         6.99664e+57
          1980.80400	         6.74701e+57
          1981.61030	         5.85600e+57
          1982.41660	         5.77268e+57
          1983.22290	         6.63269e+57
          1984.02920	         6.05452e+57
          1984.83550	         6.32538e+57
          1985.64180	         6.55958e+57
          1986.44810	         6.95314e+57
          1987.25440	         6.34689e+57
          1988.06070	         5.72059e+57
          1988.86700	         6.47380e+57
          1989.67330	         7.11237e+57
          1990.47960	         7.03271e+57
          1991.28590	         6.92591e+57
          1992.09220	         5.38061e+57
          1992.89850	         5.18821e+57
          1993.70480	         5.98778e+57
          1994.51110	         5.25003e+57
          1995.31740	         3.93794e+57
          1996.12370	         4.53553e+57
          1996.93000	         6.47602e+57
          1997.73630	         7.85696e+57
          1998.54260	         8.41968e+57
          1999.34890	         7.48892e+57
          2000.15520	         7.00875e+57
          2000.96150	         7.28695e+57
          2001.76780	         4.97602e+57
          2002.57410	         5.07697e+57
          2003.38040	         6.25072e+57
          2004.18670	         5.75492e+57
          2004.99300	         5.86395e+57
          2005.79930	         7.20944e+57
          2006.60560	         6.77355e+57
          2007.41190	         6.48382e+57
          2008.21820	         6.44150e+57
          2009.02450	         6.49527e+57
          2009.83080	         6.89094e+57
          2010.63710	         6.74896e+57
          2011.44340	         7.80759e+57
          2012.24970	         8.45595e+57
          2013.05600	         7.66284e+57
          2013.86230	         6.07332e+57
          2014.66860	         6.10509e+57
          2015.47490	         6.43369e+57
          2016.28120	         5.48067e+57
          2017.08750	         6.69961e+57
          2017.89380	         6.27219e+57
          2018.70010	         6.50680e+57
          2019.50640	         6.00577e+57
          2020.31270	         7.12714e+57
          2021.11900	         7.63503e+57
          2021.92530	         5.77877e+57
          2022.73160	         6.94583e+57
          2023.53790	         6.97361e+57
          2024.34420	         6.18128e+57
          2025.15050	         5.40304e+57
          2025.95680	         5.27266e+57
          2026.76310	         5.74522e+57
          2027.56940	         6.52099e+57
          2028.37570	         5.51220e+57
          2029.18200	         5.82510e+57
          2029.98830	         5.82004e+57
          2030.79460	         5.39555e+57
          2031.60090	         5.27123e+57
          2032.40720	         5.92006e+57
          2033.21350	         5.80399e+57
          2034.01980	         4.88801e+57
          2034.82610	         5.56112e+57
          2035.63240	         5.24830e+57
          2036.43870	         5.23447e+57
          2037.24500	         7.10126e+57
          2038.05130	         6.98694e+57
          2038.85760	         4.67266e+57
          2039.66390	         5.03398e+57
          2040.47020	         5.44671e+57
          2041.27650	         6.24789e+57
          2042.08280	         5.78035e+57
          2042.88910	         5.73409e+57
          2043.69540	         6.81226e+57
          2044.50170	         5.96763e+57
          2045.30800	         4.85301e+57
          2046.11430	         4.02713e+57
          2046.92060	         5.93329e+57
          2047.72690	         6.94566e+57
          2048.53320	         5.65734e+57
          2049.33950	         5.13023e+57
          2050.14580	         6.87857e+57
          2050.95210	         7.14850e+57
          2051.75840	         7.31046e+57
          2052.56470	         5.35056e+57
          2053.37100	         4.49664e+57
          2054.17730	         4.74647e+57
          2054.98360	         4.38797e+57
          2055.78990	         3.55011e+57
          2056.59620	         4.21813e+57
          2057.40250	         5.89480e+57
          2058.20880	         6.97781e+57
          2059.01510	         5.65015e+57
          2059.82140	         6.41527e+57
          2060.62770	         1.02374e+58
          2061.43400	         1.63281e+58
          2062.24030	         9.50529e+57
          2063.04660	         2.55950e+57
          2063.85290	         3.22101e+56
          2064.65920	         1.14764e+57
          2065.46550	        -7.12158e+57
          2066.27180	        -9.80866e+57
          2067.07810	         2.04721e+57
          2067.88440	         3.81055e+57
          2068.69070	         5.74725e+57
          2069.49700	         4.84188e+57
          2070.30330	         4.77234e+57
          2071.10960	         6.73399e+57
          2071.91590	         5.91791e+57
          2072.72220	         3.60233e+57
          2073.52850	         3.92164e+57
          2074.33480	         5.45903e+57
          2075.14110	         5.35807e+57
          2075.94740	         5.57823e+57
          2076.75370	         5.04528e+57
          2077.56000	         4.29345e+57
          2078.36630	         4.41689e+57
          2079.17260	         4.36735e+57
          2079.97890	         5.65216e+57
          2080.78520	         5.62346e+57
          2081.59150	         6.27533e+57
          2082.39780	         5.80314e+57
          2083.20410	         4.01104e+57
          2084.01040	         1.40079e+57
          2084.81670	         3.52743e+57
          2085.62300	         4.22932e+57
          2086.42930	         3.80493e+57
          2087.23560	         2.56841e+57
          2088.04190	         2.96122e+57
          2088.84820	         3.53438e+57
          2089.65450	         3.41513e+57
          2090.46080	         1.99424e+57
          2091.26710	         2.88500e+57
          2092.07340	         3.73344e+57
          2092.87970	         2.17411e+57
          2093.68600	        -9.42373e+56
          2094.49230	         3.56220e+57
          2095.29860	         5.80180e+57
          2096.10490	         4.62287e+57
          2096.91120	         3.17160e+57
          2097.71750	         1.81216e+57
          2098.52380	         2.10420e+57
          2099.33010	         1.82292e+57
          2100.13640	         1.81453e+57
          2100.94270	         1.38117e+57
          2101.74900	         4.41436e+57
          2102.55530	         3.24165e+57
          2103.36160	         9.61278e+55
          2104.16790	         2.72624e+57
          2104.97420	         1.76774e+57
          2105.78050	         1.79866e+57
          2106.58680	         1.60153e+57
          2107.39310	        -1.86150e+57
          2108.19940	         2.10338e+57
          2109.00570	        -3.70456e+56
          2109.81200	        -1.82333e+57
          2110.61830	         7.76160e+56
          2111.42460	         1.48280e+57
          2112.23090	         2.06476e+57
          2113.03720	         1.49371e+57
          2113.84350	         2.02893e+57
          2114.64980	         1.57297e+57
          2115.45610	        -2.34387e+57
          2116.26240	         7.39377e+55
          2117.06870	         1.89344e+56
          2117.87500	        -2.93260e+57
          2118.68130	        -1.00433e+57
          2119.48760	         2.33445e+57
          2120.29390	         1.13807e+57
          2121.10020	        -6.81718e+57
          2121.90650	        -5.76794e+57
          2122.71280	         1.84941e+57
          2123.51910	         2.03797e+57
          2124.32540	        -2.83245e+57
          2125.13170	        -4.26072e+57
          2125.93800	         2.71124e+56
          2126.74430	         3.59739e+56
          2127.55060	        -4.32022e+57
          2128.35690	        -2.89409e+57
          2129.16320	        -1.06429e+58
          2129.96950	        -2.04378e+57
          2130.77580	        -4.08794e+57
          2131.58210	        -2.42670e+56
          2132.38840	        -7.75019e+57
          2133.19470	        -5.54129e+56
          2134.00100	        -6.28960e+57
          2134.80730	        -2.01432e+57
          2135.61360	         9.41652e+57
          2136.41990	        -1.15744e+57
          2137.22620	         2.96997e+57
          2138.03250	         2.96354e+57
          2138.83880	        -4.09595e+57
          2139.64510	        -5.82605e+56
          2140.45140	        -1.85575e+57
          2141.25770	        -5.48222e+57
          2142.06400	        -1.16941e+58
          2142.87030	        -6.20735e+57
          2143.67660	         3.21460e+57
          2144.48290	        -3.83094e+55
          2145.28920	         6.65306e+57
          2146.09550	        -7.00579e+57
          2146.90180	        -1.27503e+58
          2147.70810	        -1.08910e+58
          2148.51440	        -1.37909e+58
          2149.32070	        -6.81157e+57
          2150.12700	        -1.47240e+58
          2150.93330	        -4.53095e+57
          2151.73960	        -2.35786e+57
          2152.54590	        -8.79582e+57
          2153.35220	         4.34277e+57
          2154.15850	        -3.96657e+56
          2154.96480	         6.15056e+56
          2155.77110	        -4.23466e+57
          2156.57740	        -7.34595e+57
          2157.38370	         8.99906e+56
          2158.19000	        -5.76259e+57
          2158.99630	         3.36452e+57
          2159.80260	        -5.45134e+57
          2160.60890	        -1.39995e+58
          2161.41520	        -6.05386e+56
          2162.22150	         2.28200e+56
          2163.02780	        -4.68923e+57
          2163.83410	        -5.29647e+57
          2164.64040	        -3.60684e+57
          2165.44670	        -1.29440e+58
          2166.25300	        -1.28648e+58
          2167.05930	        -9.90260e+57
          2167.86560	        -2.91332e+57
          2168.67190	        -5.26979e+57
          2169.47820	        -1.59580e+56
          2170.28450	        -6.94648e+57
          2171.09080	         1.39505e+57
          2171.89710	         1.20697e+57
          2172.70340	         4.68422e+56
          2173.50970	        -6.27891e+57
          2174.31600	        -3.69461e+57
          2175.12230	        -9.36235e+57
          2175.92860	        -1.04662e+58
          2176.73490	        -9.51023e+57
          2177.54120	        -7.89470e+57
          2178.34750	        -4.56798e+57
          2179.15380	                 nan
          2179.96010	                 nan
          2180.76640	                 nan
          2181.57270	                 nan
          2182.37900	                 nan
          2183.18530	                 nan
          2183.99160	                 nan
          2184.79790	                 nan
          2185.60420	                 nan
          2186.41050	                 nan
          2187.21680	                 nan
          2188.02310	                 nan
          2188.82940	                 nan
          2189.63570	                 nan
          2190.44200	                 nan
          2191.24830	                 nan
          2192.05460	                 nan
          2192.86090	                 nan
          2193.66720	                 nan
          2194.47350	                 nan
          2195.27980	                 nan
          2196.08610	                 nan
          2196.89240	                 nan
          2197.69870	                 nan
          2198.50500	                 nan
          2199.31130	                 nan
          2200.11760	                 nan
          2200.92390	                 nan
          2201.73020	                 nan
          2202.53650	                 nan
          2203.34280	                 nan
          2204.14910	                 nan
          2204.95540	                 nan
          2205.76170	                 nan
          2206.56800	                 nan
          2207.37430	                 nan
          2208.18060	                 nan
          2208.98690	                 nan
          2209.79320	                 nan
          2210.59950	                 nan
          2211.40580	                 nan
          2212.21210	                 nan
          2213.01840	                 nan
          2213.82470	                 nan
          2214.63100	                 nan
          2215.43730	         0.00000e+00
