#sample_313_stacked_spectrum_rest_UV-bands_median_H-alpha_noDC.txt
#median Lum: 1.72151e+42
#Rest-frame wavelength (A) | Luminosity (erg/s/A)
#
          1110.00000	         0.00000e+00
          1110.80630	         3.94930e+59
          1111.61260	         2.43455e+59
          1112.41890	         2.82250e+59
          1113.22520	         8.51182e+58
          1114.03150	        -3.23740e+58
          1114.83780	         1.96157e+59
          1115.64410	         1.96601e+59
          1116.45040	         2.36346e+59
          1117.25670	        -5.01671e+58
          1118.06300	         4.09485e+58
          1118.86930	        -4.99462e+58
          1119.67560	         4.63338e+58
          1120.48190	        -3.06955e+57
          1121.28820	        -6.70254e+58
          1122.09450	        -1.38702e+58
          1122.90080	         1.16493e+58
          1123.70710	         7.50356e+58
          1124.51340	         1.04908e+59
          1125.31970	         4.01815e+58
          1126.12600	         1.47836e+58
          1126.93230	        -5.82362e+58
          1127.73860	        -6.15896e+58
          1128.54490	        -4.12749e+57
          1129.35120	         4.58173e+58
          1130.15750	        -1.46890e+58
          1130.96380	        -2.41047e+58
          1131.77010	         1.27009e+58
          1132.57640	         3.52843e+58
          1133.38270	         3.17254e+58
          1134.18900	         2.66367e+58
          1134.99530	        -1.14637e+58
          1135.80160	         8.25924e+57
          1136.60790	         1.75666e+58
          1137.41420	         1.60188e+58
          1138.22050	         5.25731e+58
          1139.02680	         4.34362e+58
          1139.83310	         9.94362e+57
          1140.63940	         3.94947e+57
          1141.44570	        -1.39995e+58
          1142.25200	        -8.87621e+57
          1143.05830	         1.55831e+58
          1143.86460	         1.29375e+58
          1144.67090	         8.21238e+57
          1145.47720	        -2.02343e+57
          1146.28350	         9.21201e+57
          1147.08980	         1.73705e+58
          1147.89610	        -8.27942e+56
          1148.70240	         1.40603e+58
          1149.50870	         2.67544e+58
          1150.31500	        -2.07337e+57
          1151.12130	        -1.76468e+57
          1151.92760	         1.77417e+57
          1152.73390	         7.53843e+57
          1153.54020	         6.32627e+57
          1154.34650	         2.23672e+58
          1155.15280	         2.67748e+58
          1155.95910	         1.59993e+58
          1156.76540	         1.67527e+58
          1157.57170	         7.94909e+57
          1158.37800	         6.78212e+57
          1159.18430	         5.32428e+57
          1159.99060	         1.39740e+58
          1160.79690	         7.63365e+57
          1161.60320	         1.05544e+58
          1162.40950	         7.48999e+57
          1163.21580	         1.63611e+58
          1164.02210	         1.11360e+58
          1164.82840	         1.52820e+58
          1165.63470	         2.02932e+58
          1166.44100	         2.65833e+58
          1167.24730	         1.67803e+58
          1168.05360	         9.15416e+57
          1168.85990	         4.57314e+57
          1169.66620	         1.38042e+58
          1170.47250	         1.84269e+58
          1171.27880	         1.46627e+58
          1172.08510	         2.01608e+58
          1172.89140	         1.47271e+58
          1173.69770	         2.34117e+57
          1174.50400	         9.67559e+57
          1175.31030	         1.85494e+58
          1176.11660	         1.57434e+58
          1176.92290	         1.36516e+58
          1177.72920	         1.18228e+58
          1178.53550	         7.03700e+57
          1179.34180	         6.17119e+57
          1180.14810	         7.18894e+57
          1180.95440	         1.00129e+58
          1181.76070	         9.66958e+57
          1182.56700	         8.70151e+57
          1183.37330	         5.06336e+57
          1184.17960	         1.25501e+58
          1184.98590	         1.31710e+58
          1185.79220	         9.16817e+57
          1186.59850	         1.33292e+58
          1187.40480	         7.44654e+57
          1188.21110	         1.20273e+58
          1189.01740	         7.51215e+57
          1189.82370	         3.92518e+57
          1190.63000	         7.32628e+57
          1191.43630	         1.34059e+58
          1192.24260	         1.15918e+58
          1193.04890	         1.17900e+58
          1193.85520	         1.34673e+58
          1194.66150	         9.66236e+57
          1195.46780	         1.35237e+58
          1196.27410	         1.32287e+58
          1197.08040	         6.22216e+57
          1197.88670	         1.44395e+58
          1198.69300	         1.78902e+58
          1199.49930	         1.45275e+58
          1200.30560	         1.22613e+58
          1201.11190	         1.38527e+58
          1201.91820	         1.01503e+58
          1202.72450	         9.56487e+57
          1203.53080	         1.36053e+58
          1204.33710	         1.03072e+58
          1205.14340	         9.66913e+57
          1205.94970	         1.17829e+58
          1206.75600	         7.04438e+57
          1207.56230	         4.88329e+57
          1208.36860	         8.36474e+57
          1209.17490	         6.10022e+57
          1209.98120	         3.20336e+57
          1210.78750	         9.44241e+57
          1211.59380	         9.30590e+57
          1212.40010	         1.71641e+58
          1213.20640	         1.81606e+58
          1214.01270	         1.88629e+58
          1214.81900	         2.83067e+58
          1215.62530	         4.69885e+58
          1216.43160	         8.88920e+58
          1217.23790	         1.51041e+59
          1218.04420	         1.15155e+59
          1218.85050	         8.66508e+58
          1219.65680	         5.69421e+58
          1220.46310	         3.47278e+58
          1221.26940	         2.32678e+58
          1222.07570	         1.19184e+58
          1222.88200	         1.05783e+58
          1223.68830	         1.41887e+58
          1224.49460	         7.83495e+57
          1225.30090	         6.62885e+57
          1226.10720	         5.27847e+57
          1226.91350	         5.79463e+57
          1227.71980	         8.28860e+57
          1228.52610	         1.16811e+58
          1229.33240	         9.02348e+57
          1230.13870	         6.85261e+57
          1230.94500	         7.53530e+57
          1231.75130	         9.24994e+57
          1232.55760	         8.26009e+57
          1233.36390	         7.28210e+57
          1234.17020	         9.26713e+57
          1234.97650	         9.78030e+57
          1235.78280	         6.59284e+57
          1236.58910	         8.92158e+57
          1237.39540	         1.12709e+58
          1238.20170	         1.08089e+58
          1239.00800	         1.13349e+58
          1239.81430	         1.03912e+58
          1240.62060	         9.25811e+57
          1241.42690	         1.09399e+58
          1242.23320	         1.38695e+58
          1243.03950	         1.14539e+58
          1243.84580	         9.03427e+57
          1244.65210	         9.90746e+57
          1245.45840	         9.50227e+57
          1246.26470	         8.66562e+57
          1247.07100	         8.05985e+57
          1247.87730	         8.21000e+57
          1248.68360	         3.79519e+57
          1249.48990	         7.99824e+57
          1250.29620	         7.80141e+57
          1251.10250	         6.67643e+57
          1251.90880	         9.31608e+57
          1252.71510	         7.14871e+57
          1253.52140	         6.22862e+57
          1254.32770	         9.65274e+57
          1255.13400	         1.26682e+58
          1255.94030	         9.87745e+57
          1256.74660	         1.03763e+58
          1257.55290	         1.12506e+58
          1258.35920	         8.81899e+57
          1259.16550	         5.67518e+57
          1259.97180	         5.45659e+57
          1260.77810	         7.70909e+57
          1261.58440	         1.00160e+58
          1262.39070	         7.61222e+57
          1263.19700	         8.42963e+57
          1264.00330	         8.22335e+57
          1264.80960	         1.07277e+58
          1265.61590	         1.29729e+58
          1266.42220	         1.15815e+58
          1267.22850	         9.65687e+57
          1268.03480	         1.31422e+58
          1268.84110	         1.48858e+58
          1269.64740	         1.32751e+58
          1270.45370	         1.12059e+58
          1271.26000	         9.42599e+57
          1272.06630	         1.27219e+58
          1272.87260	         1.31508e+58
          1273.67890	         1.18585e+58
          1274.48520	         1.23208e+58
          1275.29150	         1.29196e+58
          1276.09780	         1.30726e+58
          1276.90410	         1.48475e+58
          1277.71040	         1.41801e+58
          1278.51670	         1.18598e+58
          1279.32300	         1.19674e+58
          1280.12930	         1.24057e+58
          1280.93560	         1.24442e+58
          1281.74190	         1.29158e+58
          1282.54820	         1.32142e+58
          1283.35450	         8.01390e+57
          1284.16080	         8.93607e+57
          1284.96710	         1.40909e+58
          1285.77340	         1.15452e+58
          1286.57970	         9.50877e+57
          1287.38600	         1.37055e+58
          1288.19230	         1.80403e+58
          1288.99860	         1.45665e+58
          1289.80490	         1.00497e+58
          1290.61120	         1.28412e+58
          1291.41750	         1.44248e+58
          1292.22380	         1.32821e+58
          1293.03010	         1.06663e+58
          1293.83640	         1.02475e+58
          1294.64270	         9.61691e+57
          1295.44900	         7.78148e+57
          1296.25530	         8.44946e+57
          1297.06160	         8.94036e+57
          1297.86790	         9.00031e+57
          1298.67420	         9.04505e+57
          1299.48050	         8.82608e+57
          1300.28680	         1.05561e+58
          1301.09310	         9.06150e+57
          1301.89940	         4.76726e+57
          1302.70570	         4.76144e+57
          1303.51200	         6.98645e+57
          1304.31830	         1.07395e+58
          1305.12460	         1.17661e+58
          1305.93090	         1.08087e+58
          1306.73720	         1.25857e+58
          1307.54350	         1.45398e+58
          1308.34980	         1.38600e+58
          1309.15610	         1.43426e+58
          1309.96240	         1.47293e+58
          1310.76870	         1.42139e+58
          1311.57500	         1.14192e+58
          1312.38130	         1.00311e+58
          1313.18760	         1.48933e+58
          1313.99390	         1.85553e+58
          1314.80020	         1.74351e+58
          1315.60650	         1.62292e+58
          1316.41280	         1.44321e+58
          1317.21910	         1.27504e+58
          1318.02540	         1.17683e+58
          1318.83170	         1.24433e+58
          1319.63800	         1.11118e+58
          1320.44430	         1.11293e+58
          1321.25060	         1.21154e+58
          1322.05690	         1.39731e+58
          1322.86320	         1.34922e+58
          1323.66950	         1.11094e+58
          1324.47580	         9.60504e+57
          1325.28210	         1.01082e+58
          1326.08840	         1.06595e+58
          1326.89470	         1.25311e+58
          1327.70100	         9.63894e+57
          1328.50730	         5.93231e+57
          1329.31360	         7.82116e+57
          1330.11990	         9.18665e+57
          1330.92620	         9.35986e+57
          1331.73250	         1.11728e+58
          1332.53880	         1.09700e+58
          1333.34510	         1.03318e+58
          1334.15140	         9.16321e+57
          1334.95770	         8.94964e+57
          1335.76400	         1.04306e+58
          1336.57030	         1.12578e+58
          1337.37660	         1.12717e+58
          1338.18290	         1.08550e+58
          1338.98920	         1.07381e+58
          1339.79550	         1.19668e+58
          1340.60180	         1.32081e+58
          1341.40810	         1.35911e+58
          1342.21440	         1.15920e+58
          1343.02070	         1.27622e+58
          1343.82700	         1.25478e+58
          1344.63330	         1.17598e+58
          1345.43960	         1.16195e+58
          1346.24590	         9.73427e+57
          1347.05220	         1.28400e+58
          1347.85850	         1.39304e+58
          1348.66480	         1.13467e+58
          1349.47110	         1.22089e+58
          1350.27740	         1.12278e+58
          1351.08370	         1.10687e+58
          1351.89000	         1.21497e+58
          1352.69630	         1.21368e+58
          1353.50260	         1.12797e+58
          1354.30890	         1.17171e+58
          1355.11520	         1.17845e+58
          1355.92150	         1.10800e+58
          1356.72780	         1.08058e+58
          1357.53410	         1.09242e+58
          1358.34040	         1.05656e+58
          1359.14670	         1.03093e+58
          1359.95300	         1.10762e+58
          1360.75930	         1.07667e+58
          1361.56560	         9.97968e+57
          1362.37190	         1.21455e+58
          1363.17820	         1.15469e+58
          1363.98450	         1.16805e+58
          1364.79080	         1.34168e+58
          1365.59710	         1.19057e+58
          1366.40340	         1.15752e+58
          1367.20970	         1.04087e+58
          1368.01600	         9.00876e+57
          1368.82230	         9.29146e+57
          1369.62860	         1.02134e+58
          1370.43490	         1.05162e+58
          1371.24120	         1.02337e+58
          1372.04750	         9.86139e+57
          1372.85380	         1.15313e+58
          1373.66010	         1.10366e+58
          1374.46640	         1.14648e+58
          1375.27270	         1.17713e+58
          1376.07900	         9.33149e+57
          1376.88530	         7.84925e+57
          1377.69160	         7.49039e+57
          1378.49790	         7.65484e+57
          1379.30420	         8.10397e+57
          1380.11050	         9.72727e+57
          1380.91680	         8.14154e+57
          1381.72310	         7.24253e+57
          1382.52940	         8.92219e+57
          1383.33570	         1.02725e+58
          1384.14200	         1.19510e+58
          1384.94830	         1.29889e+58
          1385.75460	         1.09971e+58
          1386.56090	         9.59304e+57
          1387.36720	         1.04008e+58
          1388.17350	         1.24695e+58
          1388.97980	         9.79499e+57
          1389.78610	         8.76777e+57
          1390.59240	         8.73251e+57
          1391.39870	         7.68844e+57
          1392.20500	         8.60882e+57
          1393.01130	         7.61328e+57
          1393.81760	         7.68890e+57
          1394.62390	         8.73924e+57
          1395.43020	         6.56890e+57
          1396.23650	         5.24257e+57
          1397.04280	         6.55778e+57
          1397.84910	         8.39214e+57
          1398.65540	         8.53765e+57
          1399.46170	         8.93753e+57
          1400.26800	         8.68678e+57
          1401.07430	         8.15726e+57
          1401.88060	         8.72046e+57
          1402.68690	         8.93104e+57
          1403.49320	         8.41332e+57
          1404.29950	         8.83219e+57
          1405.10580	         1.01722e+58
          1405.91210	         1.08572e+58
          1406.71840	         1.05417e+58
          1407.52470	         1.06034e+58
          1408.33100	         1.01473e+58
          1409.13730	         1.09762e+58
          1409.94360	         1.27201e+58
          1410.74990	         1.28899e+58
          1411.55620	         1.03836e+58
          1412.36250	         8.79746e+57
          1413.16880	         8.44808e+57
          1413.97510	         7.83416e+57
          1414.78140	         8.28937e+57
          1415.58770	         1.10291e+58
          1416.39400	         1.19524e+58
          1417.20030	         1.14670e+58
          1418.00660	         1.03355e+58
          1418.81290	         9.73524e+57
          1419.61920	         9.36705e+57
          1420.42550	         1.05211e+58
          1421.23180	         1.23278e+58
          1422.03810	         1.06870e+58
          1422.84440	         9.24671e+57
          1423.65070	         1.10661e+58
          1424.45700	         1.10771e+58
          1425.26330	         9.00118e+57
          1426.06960	         8.62470e+57
          1426.87590	         9.85140e+57
          1427.68220	         9.46741e+57
          1428.48850	         1.09969e+58
          1429.29480	         1.07824e+58
          1430.10110	         1.04818e+58
          1430.90740	         9.58047e+57
          1431.71370	         9.42586e+57
          1432.52000	         8.99941e+57
          1433.32630	         7.50685e+57
          1434.13260	         7.22149e+57
          1434.93890	         8.87945e+57
          1435.74520	         9.96500e+57
          1436.55150	         9.47355e+57
          1437.35780	         9.46577e+57
          1438.16410	         1.00060e+58
          1438.97040	         8.56364e+57
          1439.77670	         8.55978e+57
          1440.58300	         1.00264e+58
          1441.38930	         9.92827e+57
          1442.19560	         1.03105e+58
          1443.00190	         1.03592e+58
          1443.80820	         1.07875e+58
          1444.61450	         9.25625e+57
          1445.42080	         8.60680e+57
          1446.22710	         1.04012e+58
          1447.03340	         9.41498e+57
          1447.83970	         1.06152e+58
          1448.64600	         1.12427e+58
          1449.45230	         9.56841e+57
          1450.25860	         8.49402e+57
          1451.06490	         9.19819e+57
          1451.87120	         8.07502e+57
          1452.67750	         6.59250e+57
          1453.48380	         7.70954e+57
          1454.29010	         8.24920e+57
          1455.09640	         7.92342e+57
          1455.90270	         8.97981e+57
          1456.70900	         9.30125e+57
          1457.51530	         9.51914e+57
          1458.32160	         1.13849e+58
          1459.12790	         1.19530e+58
          1459.93420	         1.00042e+58
          1460.74050	         7.22649e+57
          1461.54680	         8.35229e+57
          1462.35310	         9.16408e+57
          1463.15940	         1.00251e+58
          1463.96570	         1.14586e+58
          1464.77200	         1.14410e+58
          1465.57830	         1.04173e+58
          1466.38460	         9.54007e+57
          1467.19090	         8.82947e+57
          1467.99720	         8.72958e+57
          1468.80350	         8.46623e+57
          1469.60980	         8.79281e+57
          1470.41610	         1.09244e+58
          1471.22240	         9.94368e+57
          1472.02870	         9.59235e+57
          1472.83500	         9.62813e+57
          1473.64130	         9.29728e+57
          1474.44760	         8.60099e+57
          1475.25390	         8.73460e+57
          1476.06020	         8.62359e+57
          1476.86650	         9.08110e+57
          1477.67280	         8.09547e+57
          1478.47910	         6.63362e+57
          1479.28540	         7.84021e+57
          1480.09170	         8.92972e+57
          1480.89800	         8.63599e+57
          1481.70430	         8.92173e+57
          1482.51060	         7.28358e+57
          1483.31690	         6.03031e+57
          1484.12320	         7.39357e+57
          1484.92950	         7.77655e+57
          1485.73580	         8.15634e+57
          1486.54210	         8.34385e+57
          1487.34840	         8.52184e+57
          1488.15470	         8.32545e+57
          1488.96100	         9.66263e+57
          1489.76730	         9.08909e+57
          1490.57360	         8.85203e+57
          1491.37990	         8.21537e+57
          1492.18620	         7.71984e+57
          1492.99250	         9.02487e+57
          1493.79880	         7.74336e+57
          1494.60510	         7.66430e+57
          1495.41140	         7.11908e+57
          1496.21770	         8.81550e+57
          1497.02400	         1.08109e+58
          1497.83030	         9.23334e+57
          1498.63660	         6.97142e+57
          1499.44290	         6.53810e+57
          1500.24920	         6.93890e+57
          1501.05550	         8.51617e+57
          1501.86180	         8.03509e+57
          1502.66810	         8.39678e+57
          1503.47440	         9.25829e+57
          1504.28070	         8.15116e+57
          1505.08700	         9.33876e+57
          1505.89330	         1.01262e+58
          1506.69960	         9.35110e+57
          1507.50590	         8.40232e+57
          1508.31220	         7.33695e+57
          1509.11850	         8.18869e+57
          1509.92480	         9.16284e+57
          1510.73110	         9.26601e+57
          1511.53740	         8.17404e+57
          1512.34370	         6.89565e+57
          1513.15000	         8.11013e+57
          1513.95630	         9.78697e+57
          1514.76260	         9.24805e+57
          1515.56890	         8.67541e+57
          1516.37520	         9.03802e+57
          1517.18150	         8.52006e+57
          1517.98780	         7.91897e+57
          1518.79410	         7.11032e+57
          1519.60040	         8.27482e+57
          1520.40670	         9.53444e+57
          1521.21300	         9.41414e+57
          1522.01930	         9.20465e+57
          1522.82560	         8.99915e+57
          1523.63190	         9.82975e+57
          1524.43820	         8.83036e+57
          1525.24450	         5.40436e+57
          1526.05080	         5.21431e+57
          1526.85710	         6.49134e+57
          1527.66340	         7.47704e+57
          1528.46970	         8.23988e+57
          1529.27600	         7.30633e+57
          1530.08230	         7.05575e+57
          1530.88860	         7.76427e+57
          1531.69490	         8.40406e+57
          1532.50120	         9.38340e+57
          1533.30750	         9.99847e+57
          1534.11380	         9.90433e+57
          1534.92010	         9.16605e+57
          1535.72640	         9.10071e+57
          1536.53270	         9.14803e+57
          1537.33900	         9.61984e+57
          1538.14530	         8.46097e+57
          1538.95160	         8.71367e+57
          1539.75790	         8.49273e+57
          1540.56420	         8.21864e+57
          1541.37050	         8.08400e+57
          1542.17680	         7.19589e+57
          1542.98310	         6.94128e+57
          1543.78940	         7.59291e+57
          1544.59570	         7.31819e+57
          1545.40200	         8.18926e+57
          1546.20830	         9.80802e+57
          1547.01460	         9.78681e+57
          1547.82090	         1.04301e+58
          1548.62720	         1.18670e+58
          1549.43350	         1.17877e+58
          1550.23980	         1.06515e+58
          1551.04610	         1.19960e+58
          1551.85240	         1.22473e+58
          1552.65870	         1.20161e+58
          1553.46500	         1.12879e+58
          1554.27130	         1.06392e+58
          1555.07760	         9.87916e+57
          1555.88390	         9.27719e+57
          1556.69020	         9.01196e+57
          1557.49650	         8.90964e+57
          1558.30280	         8.75583e+57
          1559.10910	         8.64440e+57
          1559.91540	         8.62367e+57
          1560.72170	         8.35853e+57
          1561.52800	         8.27060e+57
          1562.33430	         9.22706e+57
          1563.14060	         8.10869e+57
          1563.94690	         7.86736e+57
          1564.75320	         8.54741e+57
          1565.55950	         7.18560e+57
          1566.36580	         7.99523e+57
          1567.17210	         9.20438e+57
          1567.97840	         9.16041e+57
          1568.78470	         9.20257e+57
          1569.59100	         9.42702e+57
          1570.39730	         9.04477e+57
          1571.20360	         7.32005e+57
          1572.00990	         7.19049e+57
          1572.81620	         8.92939e+57
          1573.62250	         9.72415e+57
          1574.42880	         8.97168e+57
          1575.23510	         7.58646e+57
          1576.04140	         8.30289e+57
          1576.84770	         9.49984e+57
          1577.65400	         8.36922e+57
          1578.46030	         9.17596e+57
          1579.26660	         1.00101e+58
          1580.07290	         1.01262e+58
          1580.87920	         9.00023e+57
          1581.68550	         7.96657e+57
          1582.49180	         8.25378e+57
          1583.29810	         7.99390e+57
          1584.10440	         8.62499e+57
          1584.91070	         9.09655e+57
          1585.71700	         8.42634e+57
          1586.52330	         8.42006e+57
          1587.32960	         8.87309e+57
          1588.13590	         9.35866e+57
          1588.94220	         8.76565e+57
          1589.74850	         9.23735e+57
          1590.55480	         8.95907e+57
          1591.36110	         7.78833e+57
          1592.16740	         8.19020e+57
          1592.97370	         8.63944e+57
          1593.78000	         9.01880e+57
          1594.58630	         8.56258e+57
          1595.39260	         7.90530e+57
          1596.19890	         9.01428e+57
          1597.00520	         9.34765e+57
          1597.81150	         8.52550e+57
          1598.61780	         7.37606e+57
          1599.42410	         6.26516e+57
          1600.23040	         7.44519e+57
          1601.03670	         8.10886e+57
          1601.84300	         7.60264e+57
          1602.64930	         8.33327e+57
          1603.45560	         8.32146e+57
          1604.26190	         8.04279e+57
          1605.06820	         8.68638e+57
          1605.87450	         7.70915e+57
          1606.68080	         7.19330e+57
          1607.48710	         6.24480e+57
          1608.29340	         6.04979e+57
          1609.09970	         7.65184e+57
          1609.90600	         6.99028e+57
          1610.71230	         6.33477e+57
          1611.51860	         7.95671e+57
          1612.32490	         8.40347e+57
          1613.13120	         8.00051e+57
          1613.93750	         8.06297e+57
          1614.74380	         8.66845e+57
          1615.55010	         8.06341e+57
          1616.35640	         8.49683e+57
          1617.16270	         9.83976e+57
          1617.96900	         1.08316e+58
          1618.77530	         8.78565e+57
          1619.58160	         7.76285e+57
          1620.38790	         8.00079e+57
          1621.19420	         9.33152e+57
          1622.00050	         9.55218e+57
          1622.80680	         9.22176e+57
          1623.61310	         9.00920e+57
          1624.41940	         9.09753e+57
          1625.22570	         9.83915e+57
          1626.03200	         9.26785e+57
          1626.83830	         8.96254e+57
          1627.64460	         8.18901e+57
          1628.45090	         7.78276e+57
          1629.25720	         9.46139e+57
          1630.06350	         9.67861e+57
          1630.86980	         7.26891e+57
          1631.67610	         8.25676e+57
          1632.48240	         8.22025e+57
          1633.28870	         7.73777e+57
          1634.09500	         8.98979e+57
          1634.90130	         1.13767e+58
          1635.70760	         9.73589e+57
          1636.51390	         7.12994e+57
          1637.32020	         7.76048e+57
          1638.12650	         8.73364e+57
          1638.93280	         9.23230e+57
          1639.73910	         1.01941e+58
          1640.54540	         9.99192e+57
          1641.35170	         9.25684e+57
          1642.15800	         9.32209e+57
          1642.96430	         8.01772e+57
          1643.77060	         8.17401e+57
          1644.57690	         8.51564e+57
          1645.38320	         8.48429e+57
          1646.18950	         7.89644e+57
          1646.99580	         8.69514e+57
          1647.80210	         8.25689e+57
          1648.60840	         7.55068e+57
          1649.41470	         8.12885e+57
          1650.22100	         7.89190e+57
          1651.02730	         7.21358e+57
          1651.83360	         7.40221e+57
          1652.63990	         8.03713e+57
          1653.44620	         8.23688e+57
          1654.25250	         8.71623e+57
          1655.05880	         7.61254e+57
          1655.86510	         8.12183e+57
          1656.67140	         8.97273e+57
          1657.47770	         7.97664e+57
          1658.28400	         7.47578e+57
          1659.09030	         8.74249e+57
          1659.89660	         9.74813e+57
          1660.70290	         9.81449e+57
          1661.50920	         9.30148e+57
          1662.31550	         9.37058e+57
          1663.12180	         9.72770e+57
          1663.92810	         1.05930e+58
          1664.73440	         1.15342e+58
          1665.54070	         1.30988e+58
          1666.34700	         1.29192e+58
          1667.15330	         1.11734e+58
          1667.95960	         8.82510e+57
          1668.76590	         7.08078e+57
          1669.57220	         6.11363e+57
          1670.37850	         6.84096e+57
          1671.18480	         8.21638e+57
          1671.99110	         8.53378e+57
          1672.79740	         7.42533e+57
          1673.60370	         7.18009e+57
          1674.41000	         8.09295e+57
          1675.21630	         6.83821e+57
          1676.02260	         6.46453e+57
          1676.82890	         7.19722e+57
          1677.63520	         6.84618e+57
          1678.44150	         7.18093e+57
          1679.24780	         9.25432e+57
          1680.05410	         8.61616e+57
          1680.86040	         6.26968e+57
          1681.66670	         7.66667e+57
          1682.47300	         8.57284e+57
          1683.27930	         7.93602e+57
          1684.08560	         8.50229e+57
          1684.89190	         8.37021e+57
          1685.69820	         5.70188e+57
          1686.50450	         4.92105e+57
          1687.31080	         6.09793e+57
          1688.11710	         6.77447e+57
          1688.92340	         6.04320e+57
          1689.72970	         6.49104e+57
          1690.53600	         6.55640e+57
          1691.34230	         7.10436e+57
          1692.14860	         8.20821e+57
          1692.95490	         8.06336e+57
          1693.76120	         6.94886e+57
          1694.56750	         6.31567e+57
          1695.37380	         7.61971e+57
          1696.18010	         8.71104e+57
          1696.98640	         8.82384e+57
          1697.79270	         8.37749e+57
          1698.59900	         7.89194e+57
          1699.40530	         6.67056e+57
          1700.21160	         6.81715e+57
          1701.01790	         9.06378e+57
          1701.82420	         7.07353e+57
          1702.63050	         7.90230e+57
          1703.43680	         9.80780e+57
          1704.24310	         8.83238e+57
          1705.04940	         8.02841e+57
          1705.85570	         7.55041e+57
          1706.66200	         8.39331e+57
          1707.46830	         8.19758e+57
          1708.27460	         7.70532e+57
          1709.08090	         6.47088e+57
          1709.88720	         5.76451e+57
          1710.69350	         5.85827e+57
          1711.49980	         6.28517e+57
          1712.30610	         7.81636e+57
          1713.11240	         9.06811e+57
          1713.91870	         8.13126e+57
          1714.72500	         8.68694e+57
          1715.53130	         8.81926e+57
          1716.33760	         6.32517e+57
          1717.14390	         5.89782e+57
          1717.95020	         8.04616e+57
          1718.75650	         9.38734e+57
          1719.56280	         8.69837e+57
          1720.36910	         7.13076e+57
          1721.17540	         7.34120e+57
          1721.98170	         6.55059e+57
          1722.78800	         6.42008e+57
          1723.59430	         6.94764e+57
          1724.40060	         7.69270e+57
          1725.20690	         7.92839e+57
          1726.01320	         8.31947e+57
          1726.81950	         8.19082e+57
          1727.62580	         7.55128e+57
          1728.43210	         6.53982e+57
          1729.23840	         6.62521e+57
          1730.04470	         7.69665e+57
          1730.85100	         8.39637e+57
          1731.65730	         8.08057e+57
          1732.46360	         7.49517e+57
          1733.26990	         7.65585e+57
          1734.07620	         7.34131e+57
          1734.88250	         7.97398e+57
          1735.68880	         8.51688e+57
          1736.49510	         8.24014e+57
          1737.30140	         7.66805e+57
          1738.10770	         6.67872e+57
          1738.91400	         7.42233e+57
          1739.72030	         6.95830e+57
          1740.52660	         5.87854e+57
          1741.33290	         5.47896e+57
          1742.13920	         5.60772e+57
          1742.94550	         7.06432e+57
          1743.75180	         7.46372e+57
          1744.55810	         7.26906e+57
          1745.36440	         6.66511e+57
          1746.17070	         5.21901e+57
          1746.97700	         5.77398e+57
          1747.78330	         7.26457e+57
          1748.58960	         7.54329e+57
          1749.39590	         5.90675e+57
          1750.20220	         5.61199e+57
          1751.00850	         5.47987e+57
          1751.81480	         5.78805e+57
          1752.62110	         6.50333e+57
          1753.42740	         7.27628e+57
          1754.23370	         6.07377e+57
          1755.04000	         7.09738e+57
          1755.84630	         8.17012e+57
          1756.65260	         8.69734e+57
          1757.45890	         8.80497e+57
          1758.26520	         7.82621e+57
          1759.07150	         8.66443e+57
          1759.87780	         9.28007e+57
          1760.68410	         8.70392e+57
          1761.49040	         8.02395e+57
          1762.29670	         5.89876e+57
          1763.10300	         6.21759e+57
          1763.90930	         6.79087e+57
          1764.71560	         7.44584e+57
          1765.52190	         7.83088e+57
          1766.32820	         8.47593e+57
          1767.13450	         7.99165e+57
          1767.94080	         6.53392e+57
          1768.74710	         7.40778e+57
          1769.55340	         8.72265e+57
          1770.35970	         8.02712e+57
          1771.16600	         7.16613e+57
          1771.97230	         7.87894e+57
          1772.77860	         8.14417e+57
          1773.58490	         7.28980e+57
          1774.39120	         6.64259e+57
          1775.19750	         6.87719e+57
          1776.00380	         6.17373e+57
          1776.81010	         6.57625e+57
          1777.61640	         6.83553e+57
          1778.42270	         7.52402e+57
          1779.22900	         7.02137e+57
          1780.03530	         6.09873e+57
          1780.84160	         7.04699e+57
          1781.64790	         8.80176e+57
          1782.45420	         7.58916e+57
          1783.26050	         7.11495e+57
          1784.06680	         7.30560e+57
          1784.87310	         7.47610e+57
          1785.67940	         7.79942e+57
          1786.48570	         7.20706e+57
          1787.29200	         6.13828e+57
          1788.09830	         5.89903e+57
          1788.90460	         5.51391e+57
          1789.71090	         5.42159e+57
          1790.51720	         5.37576e+57
          1791.32350	         7.48154e+57
          1792.12980	         9.52962e+57
          1792.93610	         7.78392e+57
          1793.74240	         7.20931e+57
          1794.54870	         8.04220e+57
          1795.35500	         7.94386e+57
          1796.16130	         7.47706e+57
          1796.96760	         6.27811e+57
          1797.77390	         6.07892e+57
          1798.58020	         7.33605e+57
          1799.38650	         7.91688e+57
          1800.19280	         7.13737e+57
          1800.99910	         6.92104e+57
          1801.80540	         7.98737e+57
          1802.61170	         8.61809e+57
          1803.41800	         8.11875e+57
          1804.22430	         6.98039e+57
          1805.03060	         7.92761e+57
          1805.83690	         8.03372e+57
          1806.64320	         7.28534e+57
          1807.44950	         8.07714e+57
          1808.25580	         7.18702e+57
          1809.06210	         9.16448e+57
          1809.86840	         7.63619e+57
          1810.67470	         7.08413e+57
          1811.48100	         8.77238e+57
          1812.28730	         9.54768e+57
          1813.09360	         7.94335e+57
          1813.89990	         6.92726e+57
          1814.70620	         6.44902e+57
          1815.51250	         7.69017e+57
          1816.31880	         8.87924e+57
          1817.12510	         8.59243e+57
          1817.93140	         7.21954e+57
          1818.73770	         8.17325e+57
          1819.54400	         9.05754e+57
          1820.35030	         8.89802e+57
          1821.15660	         7.23737e+57
          1821.96290	         7.48516e+57
          1822.76920	         7.66153e+57
          1823.57550	         7.91894e+57
          1824.38180	         7.16344e+57
          1825.18810	         7.70046e+57
          1825.99440	         8.86447e+57
          1826.80070	         9.02518e+57
          1827.60700	         7.75464e+57
          1828.41330	         6.79730e+57
          1829.21960	         6.30127e+57
          1830.02590	         6.39909e+57
          1830.83220	         8.47430e+57
          1831.63850	         8.40038e+57
          1832.44480	         7.24584e+57
          1833.25110	         8.22616e+57
          1834.05740	         7.82708e+57
          1834.86370	         6.77689e+57
          1835.67000	         6.20963e+57
          1836.47630	         7.70235e+57
          1837.28260	         8.19740e+57
          1838.08890	         7.77408e+57
          1838.89520	         7.61729e+57
          1839.70150	         7.51027e+57
          1840.50780	         8.75601e+57
          1841.31410	         8.17528e+57
          1842.12040	         7.34832e+57
          1842.92670	         7.28595e+57
          1843.73300	         6.70848e+57
          1844.53930	         6.51578e+57
          1845.34560	         8.03817e+57
          1846.15190	         9.01170e+57
          1846.95820	         8.69674e+57
          1847.76450	         7.94101e+57
          1848.57080	         6.64258e+57
          1849.37710	         6.52627e+57
          1850.18340	         7.38436e+57
          1850.98970	         8.25873e+57
          1851.79600	         7.66730e+57
          1852.60230	         7.21066e+57
          1853.40860	         7.72320e+57
          1854.21490	         7.45615e+57
          1855.02120	         6.14223e+57
          1855.82750	         4.76610e+57
          1856.63380	         6.89758e+57
          1857.44010	         7.42172e+57
          1858.24640	         7.01488e+57
          1859.05270	         6.61450e+57
          1859.85900	         6.85337e+57
          1860.66530	         6.20322e+57
          1861.47160	         6.18171e+57
          1862.27790	         6.70630e+57
          1863.08420	         6.78817e+57
          1863.89050	         8.17056e+57
          1864.69680	         7.90608e+57
          1865.50310	         7.16714e+57
          1866.30940	         6.28239e+57
          1867.11570	         5.97930e+57
          1867.92200	         6.99908e+57
          1868.72830	         7.42709e+57
          1869.53460	         6.37922e+57
          1870.34090	         7.27699e+57
          1871.14720	         7.56881e+57
          1871.95350	         6.83459e+57
          1872.75980	         6.91669e+57
          1873.56610	         7.48034e+57
          1874.37240	         6.13230e+57
          1875.17870	         6.07082e+57
          1875.98500	         7.01884e+57
          1876.79130	         7.43945e+57
          1877.59760	         6.92789e+57
          1878.40390	         6.12278e+57
          1879.21020	         6.18086e+57
          1880.01650	         6.71631e+57
          1880.82280	         8.28074e+57
          1881.62910	         9.01498e+57
          1882.43540	         9.40465e+57
          1883.24170	         7.83446e+57
          1884.04800	         6.31116e+57
          1884.85430	         6.23181e+57
          1885.66060	         7.46251e+57
          1886.46690	         7.33257e+57
          1887.27320	         7.53718e+57
          1888.07950	         6.90266e+57
          1888.88580	         5.88905e+57
          1889.69210	         8.14571e+57
          1890.49840	         8.28714e+57
          1891.30470	         7.42723e+57
          1892.11100	         7.64324e+57
          1892.91730	         7.39579e+57
          1893.72360	         8.13685e+57
          1894.52990	         8.16847e+57
          1895.33620	         9.25011e+57
          1896.14250	         6.67475e+57
          1896.94880	         5.51640e+57
          1897.75510	         5.42572e+57
          1898.56140	         6.14076e+57
          1899.36770	         7.33377e+57
          1900.17400	         7.29111e+57
          1900.98030	         6.08364e+57
          1901.78660	         6.51784e+57
          1902.59290	         7.78842e+57
          1903.39920	         9.40175e+57
          1904.20550	         1.04385e+58
          1905.01180	         8.99535e+57
          1905.81810	         8.98669e+57
          1906.62440	         1.17851e+58
          1907.43070	         1.43147e+58
          1908.23700	         1.50163e+58
          1909.04330	         1.27911e+58
          1909.84960	         1.04176e+58
          1910.65590	         9.08439e+57
          1911.46220	         9.34110e+57
          1912.26850	         8.15087e+57
          1913.07480	         5.90396e+57
          1913.88110	         4.81728e+57
          1914.68740	         5.15798e+57
          1915.49370	         6.10027e+57
          1916.30000	         6.27233e+57
          1917.10630	         7.27232e+57
          1917.91260	         6.51591e+57
          1918.71890	         6.72706e+57
          1919.52520	         6.44855e+57
          1920.33150	         6.44097e+57
          1921.13780	         7.42415e+57
          1921.94410	         9.19225e+57
          1922.75040	         8.08944e+57
          1923.55670	         7.99869e+57
          1924.36300	         7.59359e+57
          1925.16930	         5.76223e+57
          1925.97560	         5.40287e+57
          1926.78190	         5.39820e+57
          1927.58820	         6.16805e+57
          1928.39450	         5.53179e+57
          1929.20080	         4.52451e+57
          1930.00710	         8.04625e+57
          1930.81340	         9.01061e+57
          1931.61970	         6.67583e+57
          1932.42600	         6.59862e+57
          1933.23230	         7.87959e+57
          1934.03860	         7.25482e+57
          1934.84490	         5.76508e+57
          1935.65120	         8.06547e+57
          1936.45750	         8.82995e+57
          1937.26380	         6.51448e+57
          1938.07010	         7.32814e+57
          1938.87640	         8.27893e+57
          1939.68270	         7.61992e+57
          1940.48900	         8.35123e+57
          1941.29530	         8.82150e+57
          1942.10160	         7.73070e+57
          1942.90790	         6.78987e+57
          1943.71420	         6.31568e+57
          1944.52050	         6.85683e+57
          1945.32680	         6.06139e+57
          1946.13310	         7.12059e+57
          1946.93940	         8.29673e+57
          1947.74570	         7.81293e+57
          1948.55200	         5.99035e+57
          1949.35830	         6.10623e+57
          1950.16460	         5.95194e+57
          1950.97090	         6.00369e+57
          1951.77720	         7.00228e+57
          1952.58350	         7.67216e+57
          1953.38980	         7.17292e+57
          1954.19610	         5.05653e+57
          1955.00240	         4.95232e+57
          1955.80870	         6.52836e+57
          1956.61500	         5.59291e+57
          1957.42130	         5.76026e+57
          1958.22760	         7.42710e+57
          1959.03390	         7.69566e+57
          1959.84020	         7.02524e+57
          1960.64650	         6.05912e+57
          1961.45280	         6.39037e+57
          1962.25910	         7.40833e+57
          1963.06540	         7.46081e+57
          1963.87170	         5.76441e+57
          1964.67800	         7.34303e+57
          1965.48430	         7.57636e+57
          1966.29060	         7.31462e+57
          1967.09690	         6.86346e+57
          1967.90320	         6.53895e+57
          1968.70950	         6.73853e+57
          1969.51580	         6.95856e+57
          1970.32210	         7.42116e+57
          1971.12840	         7.57235e+57
          1971.93470	         4.21131e+57
          1972.74100	         4.69198e+57
          1973.54730	         6.39756e+57
          1974.35360	         7.40789e+57
          1975.15990	         7.24932e+57
          1975.96620	         6.84467e+57
          1976.77250	         7.89945e+57
          1977.57880	         8.09267e+57
          1978.38510	         7.09404e+57
          1979.19140	         7.22391e+57
          1979.99770	         8.58695e+57
          1980.80400	         7.69838e+57
          1981.61030	         5.97988e+57
          1982.41660	         5.96771e+57
          1983.22290	         6.63956e+57
          1984.02920	         6.02590e+57
          1984.83550	         5.99197e+57
          1985.64180	         6.99855e+57
          1986.44810	         7.55373e+57
          1987.25440	         6.15592e+57
          1988.06070	         6.37283e+57
          1988.86700	         6.41810e+57
          1989.67330	         6.51364e+57
          1990.47960	         6.91019e+57
          1991.28590	         6.43444e+57
          1992.09220	         5.78150e+57
          1992.89850	         6.58771e+57
          1993.70480	         6.24295e+57
          1994.51110	         5.13887e+57
          1995.31740	         4.54852e+57
          1996.12370	         5.07464e+57
          1996.93000	         6.45469e+57
          1997.73630	         7.92092e+57
          1998.54260	         7.91256e+57
          1999.34890	         6.86206e+57
          2000.15520	         5.82245e+57
          2000.96150	         6.88047e+57
          2001.76780	         6.20501e+57
          2002.57410	         4.76546e+57
          2003.38040	         5.95670e+57
          2004.18670	         6.32609e+57
          2004.99300	         6.21649e+57
          2005.79930	         7.55045e+57
          2006.60560	         6.88330e+57
          2007.41190	         6.06162e+57
          2008.21820	         6.37072e+57
          2009.02450	         6.75937e+57
          2009.83080	         6.45548e+57
          2010.63710	         5.64438e+57
          2011.44340	         6.26668e+57
          2012.24970	         7.02056e+57
          2013.05600	         6.59783e+57
          2013.86230	         6.61661e+57
          2014.66860	         5.78130e+57
          2015.47490	         5.93675e+57
          2016.28120	         6.51537e+57
          2017.08750	         5.90263e+57
          2017.89380	         6.74298e+57
          2018.70010	         6.13124e+57
          2019.50640	         5.24770e+57
          2020.31270	         6.48044e+57
          2021.11900	         7.42431e+57
          2021.92530	         7.87394e+57
          2022.73160	         7.11889e+57
          2023.53790	         6.65152e+57
          2024.34420	         6.47506e+57
          2025.15050	         5.38174e+57
          2025.95680	         5.81002e+57
          2026.76310	         6.41352e+57
          2027.56940	         6.69593e+57
          2028.37570	         7.23005e+57
          2029.18200	         6.36251e+57
          2029.98830	         5.90929e+57
          2030.79460	         6.87112e+57
          2031.60090	         6.60053e+57
          2032.40720	         5.78734e+57
          2033.21350	         5.02962e+57
          2034.01980	         5.47136e+57
          2034.82610	         4.51747e+57
          2035.63240	         5.90807e+57
          2036.43870	         6.42371e+57
          2037.24500	         6.47970e+57
          2038.05130	         6.40311e+57
          2038.85760	         5.96663e+57
          2039.66390	         6.40602e+57
          2040.47020	         6.07960e+57
          2041.27650	         5.24210e+57
          2042.08280	         5.51634e+57
          2042.88910	         5.98514e+57
          2043.69540	         7.11933e+57
          2044.50170	         5.81288e+57
          2045.30800	         5.93887e+57
          2046.11430	         4.52667e+57
          2046.92060	         5.35657e+57
          2047.72690	         5.07234e+57
          2048.53320	         5.11444e+57
          2049.33950	         5.59577e+57
          2050.14580	         6.31822e+57
          2050.95210	         6.93640e+57
          2051.75840	         7.25410e+57
          2052.56470	         5.89861e+57
          2053.37100	         4.65891e+57
          2054.17730	         3.71293e+57
          2054.98360	         4.64424e+57
          2055.78990	         3.08493e+57
          2056.59620	         2.80650e+57
          2057.40250	         5.29846e+57
          2058.20880	         6.94657e+57
          2059.01510	         6.58272e+57
          2059.82140	         6.40993e+57
          2060.62770	         1.01350e+58
          2061.43400	         1.60532e+58
          2062.24030	         1.34501e+58
          2063.04660	         3.40847e+57
          2063.85290	        -1.13760e+57
          2064.65920	        -3.42467e+57
          2065.46550	        -9.11189e+57
          2066.27180	        -8.37251e+57
          2067.07810	         3.49557e+57
          2067.88440	         5.99687e+57
          2068.69070	         6.61884e+57
          2069.49700	         5.91817e+57
          2070.30330	         4.83799e+57
          2071.10960	         3.82935e+57
          2071.91590	         6.11851e+57
          2072.72220	         4.25581e+57
          2073.52850	         5.97928e+57
          2074.33480	         5.18668e+57
          2075.14110	         4.79466e+57
          2075.94740	         3.72761e+57
          2076.75370	         3.53536e+57
          2077.56000	         4.62370e+57
          2078.36630	         5.60231e+57
          2079.17260	         4.71999e+57
          2079.97890	         5.54854e+57
          2080.78520	         6.17123e+57
          2081.59150	         4.30764e+57
          2082.39780	         4.37958e+57
          2083.20410	         3.02904e+57
          2084.01040	         3.69350e+57
          2084.81670	         3.54326e+57
          2085.62300	         2.85413e+57
          2086.42930	         3.72785e+57
          2087.23560	         2.70781e+57
          2088.04190	         4.89077e+57
          2088.84820	         3.86576e+57
          2089.65450	         3.20388e+57
          2090.46080	         3.87778e+57
          2091.26710	         3.37305e+57
          2092.07340	         4.19302e+57
          2092.87970	         3.48076e+57
          2093.68600	        -2.28648e+57
          2094.49230	         3.08932e+56
          2095.29860	         3.06474e+57
          2096.10490	         1.51078e+57
          2096.91120	         3.96368e+57
          2097.71750	        -4.22526e+56
          2098.52380	        -1.32917e+57
          2099.33010	         9.10557e+56
          2100.13640	         1.08418e+57
          2100.94270	         1.90565e+57
          2101.74900	         4.62371e+57
          2102.55530	         4.07345e+57
          2103.36160	         1.82174e+57
          2104.16790	         1.30233e+57
          2104.97420	         1.82416e+57
          2105.78050	         3.69161e+57
          2106.58680	         1.15600e+57
          2107.39310	        -1.39461e+57
          2108.19940	         1.45694e+57
          2109.00570	        -1.97988e+57
          2109.81200	        -5.72278e+56
          2110.61830	         3.71598e+57
          2111.42460	         1.74129e+57
          2112.23090	         1.20480e+57
          2113.03720	        -9.54121e+56
          2113.84350	         4.02517e+56
          2114.64980	        -1.44443e+57
          2115.45610	        -2.02857e+57
          2116.26240	        -3.60507e+57
          2117.06870	         1.17696e+57
          2117.87500	        -1.68757e+57
          2118.68130	         1.08905e+57
          2119.48760	         3.46374e+57
          2120.29390	         3.00280e+57
          2121.10020	        -5.99165e+56
          2121.90650	        -4.65032e+57
          2122.71280	        -2.56044e+57
          2123.51910	         7.60753e+57
          2124.32540	         2.90188e+57
          2125.13170	         7.31202e+57
          2125.93800	         7.32838e+57
          2126.74430	        -3.36337e+57
          2127.55060	        -5.17371e+57
          2128.35690	        -2.62757e+57
          2129.16320	        -4.01285e+57
          2129.96950	        -1.92262e+57
          2130.77580	         1.00035e+57
          2131.58210	        -9.37326e+56
          2132.38840	         2.37497e+57
          2133.19470	        -3.08651e+57
          2134.00100	        -3.09567e+57
          2134.80730	        -8.21953e+57
          2135.61360	         3.80716e+57
          2136.41990	         2.58867e+57
          2137.22620	         2.25495e+57
          2138.03250	         2.55184e+57
          2138.83880	        -4.16512e+57
          2139.64510	        -1.36637e+57
          2140.45140	        -3.39749e+57
          2141.25770	        -1.94973e+58
          2142.06400	        -1.43623e+58
          2142.87030	         3.12534e+57
          2143.67660	         5.22298e+57
          2144.48290	         1.13339e+58
          2145.28920	         1.26250e+58
          2146.09550	        -7.28227e+57
          2146.90180	        -5.88447e+57
          2147.70810	        -2.20322e+56
          2148.51440	         2.64085e+57
          2149.32070	        -3.47436e+57
          2150.12700	        -8.80065e+57
          2150.93330	        -7.79460e+56
          2151.73960	         2.42534e+57
          2152.54590	        -2.82616e+57
          2153.35220	        -3.26412e+57
          2154.15850	        -6.99200e+57
          2154.96480	        -2.37904e+57
          2155.77110	        -7.15243e+56
          2156.57740	        -1.58141e+58
          2157.38370	        -7.80137e+57
          2158.19000	        -8.94958e+55
          2158.99630	         2.31293e+57
          2159.80260	        -1.74115e+58
          2160.60890	        -1.64936e+58
          2161.41520	         5.20885e+57
          2162.22150	        -9.73240e+57
          2163.02780	        -1.12830e+58
          2163.83410	        -8.77955e+57
          2164.64040	        -8.52980e+57
          2165.44670	        -4.02538e+57
          2166.25300	        -1.64640e+58
          2167.05930	        -1.51737e+57
          2167.86560	        -8.01161e+57
          2168.67190	        -9.20183e+57
          2169.47820	        -8.61134e+57
          2170.28450	        -6.55164e+57
          2171.09080	        -3.26834e+57
          2171.89710	        -3.38948e+57
          2172.70340	         4.56508e+56
          2173.50970	        -7.39534e+57
          2174.31600	        -8.49851e+57
          2175.12230	        -7.61342e+57
          2175.92860	        -1.05203e+58
          2176.73490	        -1.11164e+58
          2177.54120	        -7.48985e+57
          2178.34750	         2.23372e+56
          2179.15380	                 nan
          2179.96010	                 nan
          2180.76640	                 nan
          2181.57270	                 nan
          2182.37900	                 nan
          2183.18530	                 nan
          2183.99160	                 nan
          2184.79790	                 nan
          2185.60420	                 nan
          2186.41050	                 nan
          2187.21680	                 nan
          2188.02310	                 nan
          2188.82940	                 nan
          2189.63570	                 nan
          2190.44200	                 nan
          2191.24830	                 nan
          2192.05460	                 nan
          2192.86090	                 nan
          2193.66720	                 nan
          2194.47350	                 nan
          2195.27980	                 nan
          2196.08610	                 nan
          2196.89240	                 nan
          2197.69870	                 nan
          2198.50500	                 nan
          2199.31130	                 nan
          2200.11760	                 nan
          2200.92390	                 nan
          2201.73020	                 nan
          2202.53650	                 nan
          2203.34280	                 nan
          2204.14910	                 nan
          2204.95540	                 nan
          2205.76170	                 nan
          2206.56800	                 nan
          2207.37430	                 nan
          2208.18060	                 nan
          2208.98690	                 nan
          2209.79320	                 nan
          2210.59950	                 nan
          2211.40580	                 nan
          2212.21210	                 nan
          2213.01840	                 nan
          2213.82470	                 nan
          2214.63100	                 nan
          2215.43730	         0.00000e+00
