#sample_349_stacked_spectrum_rest_UV-bands_median_H-alpha_noDC.txt
#median Lum: 1.69744e+42
#Rest-frame wavelength (A) | Luminosity (erg/s/A)
#
          1110.00000	         0.00000e+00
          1110.80630	        -1.68810e+58
          1111.61260	         1.41080e+59
          1112.41890	         8.45752e+58
          1113.22520	         2.00741e+58
          1114.03150	        -6.39389e+58
          1114.83780	         1.93596e+58
          1115.64410	        -2.15026e+58
          1116.45040	         9.59620e+58
          1117.25670	        -2.18040e+59
          1118.06300	         1.23572e+59
          1118.86930	         4.00999e+57
          1119.67560	         1.01450e+59
          1120.48190	         4.50730e+57
          1121.28820	        -7.44773e+58
          1122.09450	        -6.20890e+58
          1122.90080	         1.00736e+59
          1123.70710	         1.69607e+59
          1124.51340	         1.46957e+59
          1125.31970	        -9.25111e+57
          1126.12600	         3.37466e+57
          1126.93230	        -4.02673e+58
          1127.73860	        -7.96897e+58
          1128.54490	         1.33527e+56
          1129.35120	         4.23914e+58
          1130.15750	        -1.80581e+58
          1130.96380	        -1.45644e+58
          1131.77010	         3.68499e+58
          1132.57640	         2.16143e+58
          1133.38270	         2.22310e+58
          1134.18900	         2.26620e+58
          1134.99530	         1.55991e+58
          1135.80160	         5.47518e+58
          1136.60790	         1.58911e+58
          1137.41420	         1.37108e+57
          1138.22050	         5.16922e+58
          1139.02680	         5.98663e+57
          1139.83310	         9.13240e+57
          1140.63940	         4.56712e+57
          1141.44570	         2.53813e+57
          1142.25200	        -7.22422e+57
          1143.05830	         9.89382e+57
          1143.86460	         9.58248e+57
          1144.67090	         5.33249e+57
          1145.47720	         1.37776e+58
          1146.28350	         1.89612e+58
          1147.08980	         1.35300e+58
          1147.89610	         2.75211e+58
          1148.70240	         3.75914e+58
          1149.50870	         2.92148e+58
          1150.31500	         1.47877e+58
          1151.12130	         1.86881e+57
          1151.92760	         4.56934e+57
          1152.73390	        -1.40932e+57
          1153.54020	         7.16212e+57
          1154.34650	         2.48996e+58
          1155.15280	         1.61130e+58
          1155.95910	         1.56838e+58
          1156.76540	         1.70084e+58
          1157.57170	         1.24340e+57
          1158.37800	         8.43651e+57
          1159.18430	         8.30528e+57
          1159.99060	        -2.24229e+57
          1160.79690	         4.57899e+57
          1161.60320	         1.45115e+58
          1162.40950	         1.12199e+58
          1163.21580	         1.45698e+58
          1164.02210	         1.28964e+58
          1164.82840	         1.07277e+58
          1165.63470	         2.49797e+58
          1166.44100	         2.48945e+58
          1167.24730	         1.60283e+58
          1168.05360	         1.16604e+58
          1168.85990	         7.88975e+57
          1169.66620	         5.51964e+57
          1170.47250	         9.45974e+57
          1171.27880	         1.04737e+58
          1172.08510	         1.99436e+58
          1172.89140	         1.91889e+58
          1173.69770	         5.71595e+57
          1174.50400	         1.29184e+58
          1175.31030	         1.58992e+58
          1176.11660	         2.17298e+58
          1176.92290	         1.50285e+58
          1177.72920	         1.27882e+58
          1178.53550	         1.34536e+58
          1179.34180	         1.13605e+58
          1180.14810	         1.02018e+58
          1180.95440	         1.33181e+58
          1181.76070	         1.05756e+58
          1182.56700	         9.50668e+57
          1183.37330	         8.86864e+57
          1184.17960	         1.29312e+58
          1184.98590	         9.28397e+57
          1185.79220	         6.61124e+57
          1186.59850	         1.07683e+58
          1187.40480	         7.91515e+57
          1188.21110	         1.69617e+58
          1189.01740	         1.44857e+58
          1189.82370	         1.22719e+58
          1190.63000	         1.37425e+58
          1191.43630	         1.35916e+58
          1192.24260	         8.51015e+57
          1193.04890	         1.16778e+58
          1193.85520	         1.29628e+58
          1194.66150	         1.05096e+58
          1195.46780	         1.84289e+58
          1196.27410	         1.64289e+58
          1197.08040	         8.14302e+57
          1197.88670	         1.52213e+58
          1198.69300	         1.65971e+58
          1199.49930	         1.50751e+58
          1200.30560	         1.11650e+58
          1201.11190	         9.39295e+57
          1201.91820	         9.97885e+57
          1202.72450	         8.93787e+57
          1203.53080	         1.31348e+58
          1204.33710	         8.07979e+57
          1205.14340	         1.15489e+58
          1205.94970	         6.66712e+57
          1206.75600	         5.57713e+57
          1207.56230	         6.16137e+57
          1208.36860	         1.11757e+58
          1209.17490	         7.05517e+57
          1209.98120	         7.83167e+57
          1210.78750	         1.24546e+58
          1211.59380	         1.52813e+58
          1212.40010	         2.17262e+58
          1213.20640	         2.22307e+58
          1214.01270	         2.30651e+58
          1214.81900	         2.72901e+58
          1215.62530	         4.85344e+58
          1216.43160	         9.58180e+58
          1217.23790	         1.53884e+59
          1218.04420	         1.12603e+59
          1218.85050	         8.93086e+58
          1219.65680	         6.02179e+58
          1220.46310	         3.53143e+58
          1221.26940	         2.38610e+58
          1222.07570	         1.43655e+58
          1222.88200	         1.17913e+58
          1223.68830	         1.19343e+58
          1224.49460	         1.09149e+58
          1225.30090	         6.97991e+57
          1226.10720	         8.60088e+57
          1226.91350	         8.30274e+57
          1227.71980	         1.11400e+58
          1228.52610	         1.36927e+58
          1229.33240	         8.59893e+57
          1230.13870	         8.31682e+57
          1230.94500	         8.51940e+57
          1231.75130	         6.44999e+57
          1232.55760	         5.42176e+57
          1233.36390	         8.44910e+57
          1234.17020	         1.02050e+58
          1234.97650	         1.00521e+58
          1235.78280	         1.00031e+58
          1236.58910	         1.13739e+58
          1237.39540	         1.16148e+58
          1238.20170	         1.10222e+58
          1239.00800	         1.22845e+58
          1239.81430	         1.43282e+58
          1240.62060	         1.01768e+58
          1241.42690	         9.77359e+57
          1242.23320	         1.34587e+58
          1243.03950	         9.05574e+57
          1243.84580	         8.75778e+57
          1244.65210	         1.13304e+58
          1245.45840	         9.41457e+57
          1246.26470	         7.84343e+57
          1247.07100	         5.98866e+57
          1247.87730	         5.28423e+57
          1248.68360	         2.89026e+57
          1249.48990	         4.41142e+57
          1250.29620	         9.80566e+57
          1251.10250	         6.72297e+57
          1251.90880	         4.16889e+57
          1252.71510	         5.45913e+57
          1253.52140	         6.81040e+57
          1254.32770	         1.03632e+58
          1255.13400	         1.42965e+58
          1255.94030	         1.20176e+58
          1256.74660	         1.03415e+58
          1257.55290	         9.81101e+57
          1258.35920	         8.51311e+57
          1259.16550	         5.01029e+57
          1259.97180	         3.90794e+57
          1260.77810	         7.41939e+57
          1261.58440	         1.14444e+58
          1262.39070	         9.40517e+57
          1263.19700	         7.53101e+57
          1264.00330	         1.03205e+58
          1264.80960	         1.11079e+58
          1265.61590	         1.22606e+58
          1266.42220	         1.15464e+58
          1267.22850	         1.04502e+58
          1268.03480	         1.50326e+58
          1268.84110	         1.52524e+58
          1269.64740	         1.22674e+58
          1270.45370	         1.31978e+58
          1271.26000	         1.20628e+58
          1272.06630	         9.68420e+57
          1272.87260	         1.04081e+58
          1273.67890	         1.23987e+58
          1274.48520	         1.48906e+58
          1275.29150	         1.34345e+58
          1276.09780	         1.11842e+58
          1276.90410	         1.49448e+58
          1277.71040	         1.37049e+58
          1278.51670	         1.19423e+58
          1279.32300	         1.28195e+58
          1280.12930	         1.20851e+58
          1280.93560	         1.19677e+58
          1281.74190	         1.24853e+58
          1282.54820	         1.24008e+58
          1283.35450	         1.23229e+58
          1284.16080	         1.24281e+58
          1284.96710	         1.24848e+58
          1285.77340	         1.06466e+58
          1286.57970	         8.91234e+57
          1287.38600	         1.21772e+58
          1288.19230	         1.71717e+58
          1288.99860	         1.44995e+58
          1289.80490	         9.89311e+57
          1290.61120	         1.03309e+58
          1291.41750	         1.19373e+58
          1292.22380	         1.14650e+58
          1293.03010	         1.04037e+58
          1293.83640	         1.14773e+58
          1294.64270	         1.10418e+58
          1295.44900	         6.72204e+57
          1296.25530	         6.54589e+57
          1297.06160	         8.66749e+57
          1297.86790	         9.47335e+57
          1298.67420	         1.32396e+58
          1299.48050	         1.24350e+58
          1300.28680	         1.15807e+58
          1301.09310	         9.23644e+57
          1301.89940	         6.29150e+57
          1302.70570	         7.04137e+57
          1303.51200	         7.55088e+57
          1304.31830	         9.74920e+57
          1305.12460	         1.16754e+58
          1305.93090	         1.25164e+58
          1306.73720	         1.31218e+58
          1307.54350	         1.39085e+58
          1308.34980	         1.52081e+58
          1309.15610	         1.44202e+58
          1309.96240	         1.41842e+58
          1310.76870	         1.44099e+58
          1311.57500	         1.17304e+58
          1312.38130	         9.45395e+57
          1313.18760	         1.22335e+58
          1313.99390	         1.66577e+58
          1314.80020	         1.59278e+58
          1315.60650	         1.41285e+58
          1316.41280	         1.36896e+58
          1317.21910	         1.15314e+58
          1318.02540	         1.26690e+58
          1318.83170	         1.52627e+58
          1319.63800	         1.34933e+58
          1320.44430	         1.28263e+58
          1321.25060	         1.26677e+58
          1322.05690	         1.27045e+58
          1322.86320	         1.22969e+58
          1323.66950	         1.05868e+58
          1324.47580	         9.32089e+57
          1325.28210	         9.65378e+57
          1326.08840	         1.08346e+58
          1326.89470	         1.38165e+58
          1327.70100	         1.12748e+58
          1328.50730	         9.95571e+57
          1329.31360	         1.00119e+58
          1330.11990	         8.51445e+57
          1330.92620	         9.81401e+57
          1331.73250	         1.13028e+58
          1332.53880	         9.45626e+57
          1333.34510	         9.57420e+57
          1334.15140	         9.81761e+57
          1334.95770	         9.09058e+57
          1335.76400	         1.10300e+58
          1336.57030	         1.20085e+58
          1337.37660	         1.02627e+58
          1338.18290	         1.10517e+58
          1338.98920	         1.18825e+58
          1339.79550	         1.07559e+58
          1340.60180	         1.15453e+58
          1341.40810	         1.46828e+58
          1342.21440	         1.39415e+58
          1343.02070	         1.29215e+58
          1343.82700	         1.51500e+58
          1344.63330	         1.44466e+58
          1345.43960	         1.52906e+58
          1346.24590	         1.20291e+58
          1347.05220	         1.15519e+58
          1347.85850	         1.10735e+58
          1348.66480	         1.10740e+58
          1349.47110	         1.32584e+58
          1350.27740	         1.28674e+58
          1351.08370	         1.08825e+58
          1351.89000	         1.09622e+58
          1352.69630	         1.15794e+58
          1353.50260	         1.23509e+58
          1354.30890	         1.16700e+58
          1355.11520	         1.08923e+58
          1355.92150	         1.03334e+58
          1356.72780	         1.00755e+58
          1357.53410	         1.04197e+58
          1358.34040	         1.14581e+58
          1359.14670	         1.14372e+58
          1359.95300	         1.10662e+58
          1360.75930	         1.15461e+58
          1361.56560	         1.13438e+58
          1362.37190	         1.22296e+58
          1363.17820	         1.04348e+58
          1363.98450	         1.15983e+58
          1364.79080	         1.43167e+58
          1365.59710	         1.24695e+58
          1366.40340	         1.08808e+58
          1367.20970	         1.06405e+58
          1368.01600	         1.15218e+58
          1368.82230	         1.10355e+58
          1369.62860	         1.00859e+58
          1370.43490	         8.05944e+57
          1371.24120	         9.57440e+57
          1372.04750	         9.42806e+57
          1372.85380	         1.15484e+58
          1373.66010	         1.22400e+58
          1374.46640	         9.94116e+57
          1375.27270	         1.02203e+58
          1376.07900	         9.83371e+57
          1376.88530	         9.07738e+57
          1377.69160	         9.26790e+57
          1378.49790	         7.37506e+57
          1379.30420	         8.07966e+57
          1380.11050	         9.40345e+57
          1380.91680	         8.46620e+57
          1381.72310	         7.28218e+57
          1382.52940	         7.76795e+57
          1383.33570	         9.44396e+57
          1384.14200	         1.06911e+58
          1384.94830	         1.16318e+58
          1385.75460	         1.12974e+58
          1386.56090	         1.01035e+58
          1387.36720	         1.03324e+58
          1388.17350	         1.29502e+58
          1388.97980	         1.20528e+58
          1389.78610	         1.00783e+58
          1390.59240	         6.70289e+57
          1391.39870	         6.33138e+57
          1392.20500	         7.00506e+57
          1393.01130	         7.21909e+57
          1393.81760	         8.58078e+57
          1394.62390	         7.25523e+57
          1395.43020	         6.53023e+57
          1396.23650	         6.51312e+57
          1397.04280	         6.12125e+57
          1397.84910	         8.31518e+57
          1398.65540	         8.30066e+57
          1399.46170	         9.82166e+57
          1400.26800	         8.20845e+57
          1401.07430	         6.76419e+57
          1401.88060	         8.00493e+57
          1402.68690	         1.00282e+58
          1403.49320	         1.07765e+58
          1404.29950	         9.21469e+57
          1405.10580	         9.88663e+57
          1405.91210	         1.21646e+58
          1406.71840	         1.10690e+58
          1407.52470	         8.59343e+57
          1408.33100	         8.43484e+57
          1409.13730	         1.10754e+58
          1409.94360	         1.18025e+58
          1410.74990	         1.04619e+58
          1411.55620	         8.87641e+57
          1412.36250	         1.01306e+58
          1413.16880	         9.61897e+57
          1413.97510	         7.26649e+57
          1414.78140	         6.95523e+57
          1415.58770	         9.80925e+57
          1416.39400	         1.10115e+58
          1417.20030	         1.21804e+58
          1418.00660	         1.14670e+58
          1418.81290	         1.06475e+58
          1419.61920	         1.04633e+58
          1420.42550	         1.16097e+58
          1421.23180	         1.48456e+58
          1422.03810	         1.46748e+58
          1422.84440	         1.18829e+58
          1423.65070	         1.32921e+58
          1424.45700	         1.14754e+58
          1425.26330	         8.93599e+57
          1426.06960	         1.02144e+58
          1426.87590	         1.02058e+58
          1427.68220	         1.06419e+58
          1428.48850	         1.08824e+58
          1429.29480	         1.04385e+58
          1430.10110	         9.80628e+57
          1430.90740	         9.04561e+57
          1431.71370	         9.16447e+57
          1432.52000	         8.55213e+57
          1433.32630	         7.57517e+57
          1434.13260	         7.51176e+57
          1434.93890	         8.17316e+57
          1435.74520	         9.16288e+57
          1436.55150	         8.97230e+57
          1437.35780	         8.20299e+57
          1438.16410	         8.63421e+57
          1438.97040	         9.26176e+57
          1439.77670	         9.64481e+57
          1440.58300	         9.01821e+57
          1441.38930	         9.60588e+57
          1442.19560	         1.02464e+58
          1443.00190	         9.46884e+57
          1443.80820	         9.68594e+57
          1444.61450	         9.89413e+57
          1445.42080	         9.55384e+57
          1446.22710	         1.03701e+58
          1447.03340	         1.01473e+58
          1447.83970	         1.02242e+58
          1448.64600	         1.01656e+58
          1449.45230	         1.00644e+58
          1450.25860	         1.15658e+58
          1451.06490	         1.06399e+58
          1451.87120	         8.19961e+57
          1452.67750	         7.47072e+57
          1453.48380	         8.43803e+57
          1454.29010	         8.24464e+57
          1455.09640	         7.30361e+57
          1455.90270	         8.43484e+57
          1456.70900	         8.81914e+57
          1457.51530	         9.52714e+57
          1458.32160	         1.18231e+58
          1459.12790	         1.23132e+58
          1459.93420	         9.42260e+57
          1460.74050	         6.42110e+57
          1461.54680	         7.66190e+57
          1462.35310	         8.38446e+57
          1463.15940	         1.02133e+58
          1463.96570	         1.21721e+58
          1464.77200	         1.19913e+58
          1465.57830	         1.08177e+58
          1466.38460	         9.55974e+57
          1467.19090	         8.99438e+57
          1467.99720	         9.21650e+57
          1468.80350	         9.92704e+57
          1469.60980	         9.35915e+57
          1470.41610	         9.51567e+57
          1471.22240	         9.13664e+57
          1472.02870	         1.08042e+58
          1472.83500	         1.08781e+58
          1473.64130	         9.57615e+57
          1474.44760	         8.87039e+57
          1475.25390	         8.35064e+57
          1476.06020	         9.61358e+57
          1476.86650	         9.40022e+57
          1477.67280	         8.33305e+57
          1478.47910	         6.84407e+57
          1479.28540	         7.31865e+57
          1480.09170	         8.62360e+57
          1480.89800	         7.82755e+57
          1481.70430	         8.25569e+57
          1482.51060	         8.16533e+57
          1483.31690	         7.14325e+57
          1484.12320	         7.40058e+57
          1484.92950	         7.39926e+57
          1485.73580	         7.85460e+57
          1486.54210	         8.36351e+57
          1487.34840	         8.10882e+57
          1488.15470	         8.02012e+57
          1488.96100	         7.87910e+57
          1489.76730	         9.06459e+57
          1490.57360	         9.04092e+57
          1491.37990	         8.23593e+57
          1492.18620	         8.23510e+57
          1492.99250	         8.34749e+57
          1493.79880	         8.43379e+57
          1494.60510	         9.56057e+57
          1495.41140	         7.66679e+57
          1496.21770	         7.73306e+57
          1497.02400	         1.00201e+58
          1497.83030	         8.92761e+57
          1498.63660	         6.64481e+57
          1499.44290	         6.66822e+57
          1500.24920	         7.67692e+57
          1501.05550	         7.91862e+57
          1501.86180	         8.52453e+57
          1502.66810	         9.25247e+57
          1503.47440	         8.69489e+57
          1504.28070	         8.50037e+57
          1505.08700	         1.00744e+58
          1505.89330	         9.43284e+57
          1506.69960	         8.53364e+57
          1507.50590	         8.36582e+57
          1508.31220	         8.50919e+57
          1509.11850	         8.83023e+57
          1509.92480	         9.62853e+57
          1510.73110	         9.21637e+57
          1511.53740	         7.32671e+57
          1512.34370	         7.09948e+57
          1513.15000	         8.67466e+57
          1513.95630	         1.00314e+58
          1514.76260	         9.76202e+57
          1515.56890	         8.48997e+57
          1516.37520	         8.63765e+57
          1517.18150	         8.36907e+57
          1517.98780	         7.79212e+57
          1518.79410	         7.67226e+57
          1519.60040	         8.23882e+57
          1520.40670	         9.72802e+57
          1521.21300	         9.40560e+57
          1522.01930	         7.98498e+57
          1522.82560	         8.80140e+57
          1523.63190	         9.92444e+57
          1524.43820	         8.26836e+57
          1525.24450	         6.60732e+57
          1526.05080	         6.87514e+57
          1526.85710	         7.12485e+57
          1527.66340	         7.07808e+57
          1528.46970	         7.68840e+57
          1529.27600	         7.71863e+57
          1530.08230	         6.52424e+57
          1530.88860	         7.39290e+57
          1531.69490	         9.02516e+57
          1532.50120	         9.89337e+57
          1533.30750	         1.03468e+58
          1534.11380	         9.14945e+57
          1534.92010	         8.75641e+57
          1535.72640	         8.66401e+57
          1536.53270	         9.15468e+57
          1537.33900	         8.00792e+57
          1538.14530	         8.03552e+57
          1538.95160	         8.81270e+57
          1539.75790	         8.34706e+57
          1540.56420	         8.37371e+57
          1541.37050	         8.21988e+57
          1542.17680	         7.68249e+57
          1542.98310	         7.10074e+57
          1543.78940	         7.45075e+57
          1544.59570	         6.79356e+57
          1545.40200	         7.77855e+57
          1546.20830	         8.75763e+57
          1547.01460	         9.61701e+57
          1547.82090	         1.12695e+58
          1548.62720	         1.25924e+58
          1549.43350	         1.26952e+58
          1550.23980	         1.12698e+58
          1551.04610	         1.16028e+58
          1551.85240	         1.27191e+58
          1552.65870	         1.20596e+58
          1553.46500	         1.04492e+58
          1554.27130	         9.45724e+57
          1555.07760	         9.95100e+57
          1555.88390	         8.85733e+57
          1556.69020	         8.24786e+57
          1557.49650	         8.17068e+57
          1558.30280	         7.78777e+57
          1559.10910	         8.16019e+57
          1559.91540	         8.79389e+57
          1560.72170	         9.46940e+57
          1561.52800	         8.86459e+57
          1562.33430	         8.46910e+57
          1563.14060	         8.48335e+57
          1563.94690	         8.52313e+57
          1564.75320	         8.36530e+57
          1565.55950	         7.88204e+57
          1566.36580	         8.19811e+57
          1567.17210	         9.67123e+57
          1567.97840	         9.91301e+57
          1568.78470	         9.73431e+57
          1569.59100	         9.07430e+57
          1570.39730	         8.23595e+57
          1571.20360	         7.72517e+57
          1572.00990	         8.06200e+57
          1572.81620	         8.68103e+57
          1573.62250	         9.81439e+57
          1574.42880	         9.51368e+57
          1575.23510	         7.92851e+57
          1576.04140	         8.02984e+57
          1576.84770	         8.80806e+57
          1577.65400	         9.17889e+57
          1578.46030	         1.07726e+58
          1579.26660	         1.01015e+58
          1580.07290	         9.30160e+57
          1580.87920	         8.45360e+57
          1581.68550	         7.58177e+57
          1582.49180	         8.50154e+57
          1583.29810	         9.23431e+57
          1584.10440	         9.46916e+57
          1584.91070	         9.14553e+57
          1585.71700	         8.75591e+57
          1586.52330	         9.22466e+57
          1587.32960	         8.84265e+57
          1588.13590	         8.45858e+57
          1588.94220	         7.69849e+57
          1589.74850	         8.73917e+57
          1590.55480	         9.57295e+57
          1591.36110	         9.06213e+57
          1592.16740	         8.51189e+57
          1592.97370	         8.82881e+57
          1593.78000	         9.19558e+57
          1594.58630	         9.74300e+57
          1595.39260	         8.75358e+57
          1596.19890	         7.95227e+57
          1597.00520	         7.81092e+57
          1597.81150	         8.25346e+57
          1598.61780	         7.18210e+57
          1599.42410	         7.89935e+57
          1600.23040	         7.54389e+57
          1601.03670	         7.25457e+57
          1601.84300	         7.21958e+57
          1602.64930	         7.99492e+57
          1603.45560	         8.75318e+57
          1604.26190	         8.10585e+57
          1605.06820	         7.89022e+57
          1605.87450	         7.24398e+57
          1606.68080	         7.07485e+57
          1607.48710	         5.92252e+57
          1608.29340	         5.63098e+57
          1609.09970	         6.59490e+57
          1609.90600	         8.05811e+57
          1610.71230	         6.82270e+57
          1611.51860	         6.32456e+57
          1612.32490	         6.31147e+57
          1613.13120	         7.37930e+57
          1613.93750	         8.59376e+57
          1614.74380	         9.48273e+57
          1615.55010	         8.48175e+57
          1616.35640	         1.00177e+58
          1617.16270	         1.09886e+58
          1617.96900	         1.01074e+58
          1618.77530	         7.68157e+57
          1619.58160	         7.75749e+57
          1620.38790	         7.89044e+57
          1621.19420	         8.91756e+57
          1622.00050	         7.55580e+57
          1622.80680	         8.67876e+57
          1623.61310	         9.68784e+57
          1624.41940	         7.89429e+57
          1625.22570	         8.62311e+57
          1626.03200	         9.09059e+57
          1626.83830	         7.53456e+57
          1627.64460	         7.25933e+57
          1628.45090	         7.54464e+57
          1629.25720	         8.49136e+57
          1630.06350	         9.58335e+57
          1630.86980	         7.39800e+57
          1631.67610	         8.69794e+57
          1632.48240	         9.65376e+57
          1633.28870	         7.67003e+57
          1634.09500	         9.16918e+57
          1634.90130	         1.19860e+58
          1635.70760	         8.78381e+57
          1636.51390	         8.33690e+57
          1637.32020	         8.39446e+57
          1638.12650	         9.76233e+57
          1638.93280	         9.53088e+57
          1639.73910	         1.05957e+58
          1640.54540	         1.10049e+58
          1641.35170	         8.45148e+57
          1642.15800	         8.36663e+57
          1642.96430	         7.91617e+57
          1643.77060	         7.46852e+57
          1644.57690	         7.24049e+57
          1645.38320	         8.23674e+57
          1646.18950	         8.38406e+57
          1646.99580	         8.89630e+57
          1647.80210	         8.07082e+57
          1648.60840	         7.91560e+57
          1649.41470	         8.22615e+57
          1650.22100	         6.97851e+57
          1651.02730	         7.26995e+57
          1651.83360	         7.35514e+57
          1652.63990	         7.62917e+57
          1653.44620	         8.57846e+57
          1654.25250	         7.90002e+57
          1655.05880	         8.33572e+57
          1655.86510	         8.60303e+57
          1656.67140	         8.31183e+57
          1657.47770	         8.45557e+57
          1658.28400	         8.02471e+57
          1659.09030	         8.14149e+57
          1659.89660	         8.33917e+57
          1660.70290	         9.71749e+57
          1661.50920	         9.99376e+57
          1662.31550	         8.94252e+57
          1663.12180	         8.86605e+57
          1663.92810	         9.48018e+57
          1664.73440	         1.07393e+58
          1665.54070	         1.22033e+58
          1666.34700	         1.23355e+58
          1667.15330	         1.15523e+58
          1667.95960	         8.94691e+57
          1668.76590	         7.77915e+57
          1669.57220	         6.93252e+57
          1670.37850	         6.93190e+57
          1671.18480	         8.59709e+57
          1671.99110	         7.93955e+57
          1672.79740	         7.50703e+57
          1673.60370	         7.58805e+57
          1674.41000	         7.17722e+57
          1675.21630	         6.97025e+57
          1676.02260	         7.19726e+57
          1676.82890	         6.78203e+57
          1677.63520	         6.39295e+57
          1678.44150	         7.22750e+57
          1679.24780	         9.50953e+57
          1680.05410	         8.81607e+57
          1680.86040	         7.13770e+57
          1681.66670	         7.17653e+57
          1682.47300	         8.34022e+57
          1683.27930	         8.71605e+57
          1684.08560	         7.92345e+57
          1684.89190	         7.88607e+57
          1685.69820	         5.91124e+57
          1686.50450	         4.63001e+57
          1687.31080	         6.05858e+57
          1688.11710	         7.27359e+57
          1688.92340	         7.13331e+57
          1689.72970	         7.77741e+57
          1690.53600	         7.33520e+57
          1691.34230	         7.82000e+57
          1692.14860	         9.11896e+57
          1692.95490	         8.49369e+57
          1693.76120	         6.92818e+57
          1694.56750	         6.90515e+57
          1695.37380	         7.12447e+57
          1696.18010	         7.60114e+57
          1696.98640	         9.01198e+57
          1697.79270	         7.75025e+57
          1698.59900	         8.40963e+57
          1699.40530	         8.52752e+57
          1700.21160	         8.21116e+57
          1701.01790	         9.25464e+57
          1701.82420	         8.08685e+57
          1702.63050	         8.15515e+57
          1703.43680	         8.86366e+57
          1704.24310	         8.20402e+57
          1705.04940	         8.20933e+57
          1705.85570	         8.19749e+57
          1706.66200	         8.51631e+57
          1707.46830	         7.94794e+57
          1708.27460	         7.42889e+57
          1709.08090	         7.17451e+57
          1709.88720	         6.31635e+57
          1710.69350	         6.47409e+57
          1711.49980	         6.79947e+57
          1712.30610	         7.07152e+57
          1713.11240	         7.90308e+57
          1713.91870	         8.28111e+57
          1714.72500	         8.75474e+57
          1715.53130	         8.93155e+57
          1716.33760	         7.73712e+57
          1717.14390	         7.07120e+57
          1717.95020	         8.45707e+57
          1718.75650	         8.69973e+57
          1719.56280	         8.64091e+57
          1720.36910	         7.90938e+57
          1721.17540	         7.23452e+57
          1721.98170	         5.99275e+57
          1722.78800	         6.39839e+57
          1723.59430	         7.43793e+57
          1724.40060	         8.69024e+57
          1725.20690	         8.17639e+57
          1726.01320	         7.96215e+57
          1726.81950	         7.94701e+57
          1727.62580	         7.61309e+57
          1728.43210	         7.45884e+57
          1729.23840	         7.41524e+57
          1730.04470	         8.21425e+57
          1730.85100	         8.73401e+57
          1731.65730	         7.71662e+57
          1732.46360	         8.34153e+57
          1733.26990	         7.48517e+57
          1734.07620	         6.32054e+57
          1734.88250	         6.98631e+57
          1735.68880	         8.00704e+57
          1736.49510	         9.20582e+57
          1737.30140	         8.17610e+57
          1738.10770	         7.92948e+57
          1738.91400	         8.60033e+57
          1739.72030	         7.46143e+57
          1740.52660	         6.06365e+57
          1741.33290	         6.34702e+57
          1742.13920	         6.46192e+57
          1742.94550	         7.39552e+57
          1743.75180	         8.05724e+57
          1744.55810	         8.20916e+57
          1745.36440	         7.43315e+57
          1746.17070	         5.03413e+57
          1746.97700	         4.75034e+57
          1747.78330	         7.19514e+57
          1748.58960	         7.01682e+57
          1749.39590	         6.46964e+57
          1750.20220	         6.79452e+57
          1751.00850	         6.35597e+57
          1751.81480	         5.40598e+57
          1752.62110	         6.25209e+57
          1753.42740	         8.29085e+57
          1754.23370	         6.52781e+57
          1755.04000	         5.84747e+57
          1755.84630	         7.44238e+57
          1756.65260	         9.45028e+57
          1757.45890	         9.34650e+57
          1758.26520	         7.46560e+57
          1759.07150	         8.51526e+57
          1759.87780	         8.74127e+57
          1760.68410	         8.88722e+57
          1761.49040	         8.48826e+57
          1762.29670	         7.39832e+57
          1763.10300	         7.65346e+57
          1763.90930	         8.77868e+57
          1764.71560	         8.80222e+57
          1765.52190	         7.33847e+57
          1766.32820	         8.98775e+57
          1767.13450	         8.75730e+57
          1767.94080	         6.42393e+57
          1768.74710	         6.69837e+57
          1769.55340	         6.22735e+57
          1770.35970	         6.12205e+57
          1771.16600	         7.86168e+57
          1771.97230	         8.56179e+57
          1772.77860	         8.96126e+57
          1773.58490	         7.21425e+57
          1774.39120	         5.79914e+57
          1775.19750	         5.44898e+57
          1776.00380	         6.19463e+57
          1776.81010	         6.82171e+57
          1777.61640	         6.48400e+57
          1778.42270	         6.34067e+57
          1779.22900	         6.46170e+57
          1780.03530	         6.35133e+57
          1780.84160	         6.30425e+57
          1781.64790	         8.18595e+57
          1782.45420	         7.40258e+57
          1783.26050	         7.34868e+57
          1784.06680	         7.18539e+57
          1784.87310	         7.13993e+57
          1785.67940	         6.74329e+57
          1786.48570	         6.54254e+57
          1787.29200	         6.56382e+57
          1788.09830	         6.31793e+57
          1788.90460	         6.25507e+57
          1789.71090	         4.66103e+57
          1790.51720	         5.15493e+57
          1791.32350	         7.78570e+57
          1792.12980	         8.91036e+57
          1792.93610	         6.78058e+57
          1793.74240	         6.82644e+57
          1794.54870	         7.91632e+57
          1795.35500	         8.72519e+57
          1796.16130	         7.47037e+57
          1796.96760	         6.20930e+57
          1797.77390	         6.77019e+57
          1798.58020	         7.24453e+57
          1799.38650	         5.72064e+57
          1800.19280	         6.43389e+57
          1800.99910	         7.92385e+57
          1801.80540	         7.61056e+57
          1802.61170	         8.25822e+57
          1803.41800	         9.16127e+57
          1804.22430	         8.33917e+57
          1805.03060	         7.11750e+57
          1805.83690	         6.14506e+57
          1806.64320	         8.08186e+57
          1807.44950	         7.58404e+57
          1808.25580	         7.61281e+57
          1809.06210	         7.96926e+57
          1809.86840	         6.69970e+57
          1810.67470	         7.33746e+57
          1811.48100	         8.29215e+57
          1812.28730	         8.42800e+57
          1813.09360	         8.17835e+57
          1813.89990	         7.40226e+57
          1814.70620	         7.44046e+57
          1815.51250	         8.23456e+57
          1816.31880	         8.25907e+57
          1817.12510	         7.78207e+57
          1817.93140	         6.74052e+57
          1818.73770	         7.52472e+57
          1819.54400	         8.54367e+57
          1820.35030	         9.11594e+57
          1821.15660	         7.25232e+57
          1821.96290	         6.97371e+57
          1822.76920	         6.97141e+57
          1823.57550	         6.87053e+57
          1824.38180	         6.90037e+57
          1825.18810	         7.59801e+57
          1825.99440	         8.41110e+57
          1826.80070	         6.88698e+57
          1827.60700	         6.02390e+57
          1828.41330	         5.88162e+57
          1829.21960	         5.74972e+57
          1830.02590	         7.68485e+57
          1830.83220	         7.63747e+57
          1831.63850	         7.05680e+57
          1832.44480	         6.34925e+57
          1833.25110	         7.78942e+57
          1834.05740	         8.83274e+57
          1834.86370	         6.81408e+57
          1835.67000	         5.94381e+57
          1836.47630	         7.72540e+57
          1837.28260	         9.25285e+57
          1838.08890	         8.57336e+57
          1838.89520	         7.80371e+57
          1839.70150	         7.88120e+57
          1840.50780	         7.12511e+57
          1841.31410	         6.88623e+57
          1842.12040	         6.63916e+57
          1842.92670	         7.05056e+57
          1843.73300	         6.67335e+57
          1844.53930	         6.92076e+57
          1845.34560	         6.98390e+57
          1846.15190	         7.46693e+57
          1846.95820	         7.18274e+57
          1847.76450	         5.98713e+57
          1848.57080	         4.97533e+57
          1849.37710	         7.25015e+57
          1850.18340	         8.21362e+57
          1850.98970	         7.51223e+57
          1851.79600	         8.41413e+57
          1852.60230	         7.15960e+57
          1853.40860	         6.53918e+57
          1854.21490	         6.59876e+57
          1855.02120	         5.62515e+57
          1855.82750	         4.39336e+57
          1856.63380	         5.12212e+57
          1857.44010	         6.30409e+57
          1858.24640	         6.52927e+57
          1859.05270	         7.51729e+57
          1859.85900	         6.23987e+57
          1860.66530	         4.78591e+57
          1861.47160	         5.97847e+57
          1862.27790	         7.52659e+57
          1863.08420	         8.03302e+57
          1863.89050	         8.50383e+57
          1864.69680	         7.97809e+57
          1865.50310	         7.24426e+57
          1866.30940	         6.68904e+57
          1867.11570	         6.18244e+57
          1867.92200	         7.32013e+57
          1868.72830	         7.20951e+57
          1869.53460	         6.86846e+57
          1870.34090	         7.27472e+57
          1871.14720	         7.60544e+57
          1871.95350	         7.56928e+57
          1872.75980	         7.55148e+57
          1873.56610	         6.87252e+57
          1874.37240	         5.76008e+57
          1875.17870	         5.66981e+57
          1875.98500	         6.46453e+57
          1876.79130	         7.30635e+57
          1877.59760	         6.75658e+57
          1878.40390	         5.26400e+57
          1879.21020	         6.57121e+57
          1880.01650	         7.34975e+57
          1880.82280	         8.21955e+57
          1881.62910	         9.83960e+57
          1882.43540	         9.78636e+57
          1883.24170	         8.27104e+57
          1884.04800	         7.09547e+57
          1884.85430	         7.78110e+57
          1885.66060	         8.25779e+57
          1886.46690	         7.81993e+57
          1887.27320	         7.65206e+57
          1888.07950	         6.73213e+57
          1888.88580	         7.40767e+57
          1889.69210	         8.32314e+57
          1890.49840	         8.10956e+57
          1891.30470	         7.29337e+57
          1892.11100	         8.39359e+57
          1892.91730	         8.62077e+57
          1893.72360	         8.42708e+57
          1894.52990	         7.94963e+57
          1895.33620	         8.28898e+57
          1896.14250	         8.07284e+57
          1896.94880	         6.10976e+57
          1897.75510	         4.91929e+57
          1898.56140	         5.70660e+57
          1899.36770	         5.87394e+57
          1900.17400	         4.51540e+57
          1900.98030	         6.27253e+57
          1901.78660	         7.57088e+57
          1902.59290	         7.28841e+57
          1903.39920	         8.76861e+57
          1904.20550	         1.01186e+58
          1905.01180	         9.79832e+57
          1905.81810	         1.10348e+58
          1906.62440	         1.34292e+58
          1907.43070	         1.49956e+58
          1908.23700	         1.50326e+58
          1909.04330	         1.22999e+58
          1909.84960	         1.06917e+58
          1910.65590	         9.65679e+57
          1911.46220	         8.68292e+57
          1912.26850	         7.14799e+57
          1913.07480	         6.25671e+57
          1913.88110	         6.53455e+57
          1914.68740	         5.79467e+57
          1915.49370	         4.79919e+57
          1916.30000	         5.91748e+57
          1917.10630	         7.53299e+57
          1917.91260	         6.37536e+57
          1918.71890	         5.88793e+57
          1919.52520	         5.98917e+57
          1920.33150	         5.15540e+57
          1921.13780	         5.57686e+57
          1921.94410	         7.91754e+57
          1922.75040	         8.23610e+57
          1923.55670	         7.50379e+57
          1924.36300	         7.08004e+57
          1925.16930	         5.77432e+57
          1925.97560	         5.86051e+57
          1926.78190	         5.27665e+57
          1927.58820	         5.23826e+57
          1928.39450	         4.88506e+57
          1929.20080	         5.20815e+57
          1930.00710	         6.81229e+57
          1930.81340	         8.44004e+57
          1931.61970	         7.18243e+57
          1932.42600	         7.12718e+57
          1933.23230	         8.33051e+57
          1934.03860	         7.20366e+57
          1934.84490	         5.00426e+57
          1935.65120	         6.39882e+57
          1936.45750	         9.12844e+57
          1937.26380	         7.75156e+57
          1938.07010	         7.22836e+57
          1938.87640	         7.84850e+57
          1939.68270	         7.23175e+57
          1940.48900	         8.47277e+57
          1941.29530	         7.75960e+57
          1942.10160	         6.72175e+57
          1942.90790	         6.72689e+57
          1943.71420	         6.65531e+57
          1944.52050	         6.70254e+57
          1945.32680	         6.83359e+57
          1946.13310	         7.55965e+57
          1946.93940	         8.10659e+57
          1947.74570	         7.13149e+57
          1948.55200	         6.53328e+57
          1949.35830	         5.78736e+57
          1950.16460	         5.93278e+57
          1950.97090	         6.16199e+57
          1951.77720	         8.06445e+57
          1952.58350	         9.08910e+57
          1953.38980	         6.51869e+57
          1954.19610	         4.37726e+57
          1955.00240	         5.75864e+57
          1955.80870	         6.29581e+57
          1956.61500	         5.82579e+57
          1957.42130	         5.74604e+57
          1958.22760	         7.90695e+57
          1959.03390	         8.42557e+57
          1959.84020	         7.39915e+57
          1960.64650	         7.29811e+57
          1961.45280	         7.43571e+57
          1962.25910	         6.67431e+57
          1963.06540	         6.35665e+57
          1963.87170	         6.33120e+57
          1964.67800	         7.59195e+57
          1965.48430	         7.70393e+57
          1966.29060	         5.50057e+57
          1967.09690	         8.05227e+57
          1967.90320	         6.68169e+57
          1968.70950	         6.40899e+57
          1969.51580	         5.83146e+57
          1970.32210	         7.23796e+57
          1971.12840	         6.85539e+57
          1971.93470	         4.83447e+57
          1972.74100	         5.68907e+57
          1973.54730	         6.87792e+57
          1974.35360	         6.56203e+57
          1975.15990	         7.87376e+57
          1975.96620	         6.90557e+57
          1976.77250	         6.93582e+57
          1977.57880	         7.72394e+57
          1978.38510	         6.03841e+57
          1979.19140	         7.11072e+57
          1979.99770	         7.59070e+57
          1980.80400	         7.65166e+57
          1981.61030	         6.43631e+57
          1982.41660	         5.64259e+57
          1983.22290	         5.92373e+57
          1984.02920	         6.84951e+57
          1984.83550	         6.25659e+57
          1985.64180	         5.96191e+57
          1986.44810	         7.02847e+57
          1987.25440	         6.31338e+57
          1988.06070	         5.57255e+57
          1988.86700	         6.25996e+57
          1989.67330	         7.21206e+57
          1990.47960	         7.23310e+57
          1991.28590	         6.70982e+57
          1992.09220	         6.66725e+57
          1992.89850	         6.22298e+57
          1993.70480	         5.51535e+57
          1994.51110	         5.40955e+57
          1995.31740	         4.39707e+57
          1996.12370	         5.30201e+57
          1996.93000	         7.05366e+57
          1997.73630	         8.12073e+57
          1998.54260	         7.46528e+57
          1999.34890	         6.29986e+57
          2000.15520	         5.63678e+57
          2000.96150	         6.62399e+57
          2001.76780	         6.31672e+57
          2002.57410	         5.22921e+57
          2003.38040	         8.13430e+57
          2004.18670	         7.69327e+57
          2004.99300	         7.20749e+57
          2005.79930	         7.49969e+57
          2006.60560	         6.36849e+57
          2007.41190	         6.11988e+57
          2008.21820	         6.98579e+57
          2009.02450	         7.39252e+57
          2009.83080	         7.29861e+57
          2010.63710	         6.88958e+57
          2011.44340	         7.29215e+57
          2012.24970	         6.66705e+57
          2013.05600	         6.99268e+57
          2013.86230	         6.07832e+57
          2014.66860	         6.42990e+57
          2015.47490	         7.12270e+57
          2016.28120	         7.25064e+57
          2017.08750	         6.05512e+57
          2017.89380	         4.89005e+57
          2018.70010	         4.54658e+57
          2019.50640	         4.85273e+57
          2020.31270	         6.93963e+57
          2021.11900	         7.05718e+57
          2021.92530	         7.40867e+57
          2022.73160	         7.76841e+57
          2023.53790	         7.58760e+57
          2024.34420	         6.90751e+57
          2025.15050	         5.44184e+57
          2025.95680	         5.62398e+57
          2026.76310	         6.50456e+57
          2027.56940	         6.96748e+57
          2028.37570	         5.92350e+57
          2029.18200	         6.42107e+57
          2029.98830	         6.65606e+57
          2030.79460	         6.07532e+57
          2031.60090	         7.56168e+57
          2032.40720	         5.69398e+57
          2033.21350	         5.77208e+57
          2034.01980	         7.18181e+57
          2034.82610	         6.06980e+57
          2035.63240	         5.24659e+57
          2036.43870	         5.08771e+57
          2037.24500	         5.30178e+57
          2038.05130	         5.86703e+57
          2038.85760	         5.82450e+57
          2039.66390	         5.76480e+57
          2040.47020	         6.35161e+57
          2041.27650	         6.81913e+57
          2042.08280	         4.56165e+57
          2042.88910	         4.59360e+57
          2043.69540	         7.44244e+57
          2044.50170	         6.65111e+57
          2045.30800	         3.95303e+57
          2046.11430	         4.10003e+57
          2046.92060	         5.58486e+57
          2047.72690	         6.39700e+57
          2048.53320	         6.44235e+57
          2049.33950	         6.11509e+57
          2050.14580	         5.79354e+57
          2050.95210	         6.45522e+57
          2051.75840	         9.04078e+57
          2052.56470	         6.36701e+57
          2053.37100	         3.32120e+57
          2054.17730	         4.12377e+57
          2054.98360	         4.43592e+57
          2055.78990	         3.56562e+57
          2056.59620	         2.87613e+57
          2057.40250	         5.45487e+57
          2058.20880	         6.43669e+57
          2059.01510	         6.37585e+57
          2059.82140	         6.69946e+57
          2060.62770	         9.33027e+57
          2061.43400	         1.62002e+58
          2062.24030	         1.38923e+58
          2063.04660	         7.12495e+57
          2063.85290	         3.17149e+57
          2064.65920	        -1.50739e+57
          2065.46550	        -8.96114e+57
          2066.27180	        -6.57332e+57
          2067.07810	         5.78093e+57
          2067.88440	         5.24853e+57
          2068.69070	         5.04396e+57
          2069.49700	         5.41822e+57
          2070.30330	         3.70656e+57
          2071.10960	         5.42273e+57
          2071.91590	         6.91625e+57
          2072.72220	         5.38389e+57
          2073.52850	         5.14252e+57
          2074.33480	         6.00056e+57
          2075.14110	         5.17133e+57
          2075.94740	         6.05181e+57
          2076.75370	         5.34848e+57
          2077.56000	         5.46281e+57
          2078.36630	         5.83419e+57
          2079.17260	         5.37828e+57
          2079.97890	         4.92133e+57
          2080.78520	         5.97803e+57
          2081.59150	         5.01458e+57
          2082.39780	         4.54336e+57
          2083.20410	         3.43888e+57
          2084.01040	         2.71619e+57
          2084.81670	         3.22934e+57
          2085.62300	         4.12893e+57
          2086.42930	         4.39433e+57
          2087.23560	         3.76177e+57
          2088.04190	         4.35305e+57
          2088.84820	         3.25695e+57
          2089.65450	         3.77179e+57
          2090.46080	         3.21218e+57
          2091.26710	         2.59342e+57
          2092.07340	         3.47160e+57
          2092.87970	         4.23337e+57
          2093.68600	         5.73768e+56
          2094.49230	         3.84549e+57
          2095.29860	         4.39800e+57
          2096.10490	         3.46683e+57
          2096.91120	         2.50682e+57
          2097.71750	         1.49195e+57
          2098.52380	         1.69890e+57
          2099.33010	         7.08616e+56
          2100.13640	         2.72313e+57
          2100.94270	         1.42241e+57
          2101.74900	         3.44731e+57
          2102.55530	         4.85787e+57
          2103.36160	         3.15051e+57
          2104.16790	         2.71883e+57
          2104.97420	         1.04374e+57
          2105.78050	         1.56869e+57
          2106.58680	         3.01547e+57
          2107.39310	        -1.74836e+57
          2108.19940	         9.18392e+56
          2109.00570	        -5.86398e+56
          2109.81200	        -1.73476e+57
          2110.61830	         1.64952e+57
          2111.42460	         2.11967e+57
          2112.23090	         9.13158e+56
          2113.03720	         4.80344e+56
          2113.84350	        -1.46050e+57
          2114.64980	        -2.14815e+57
          2115.45610	         5.73229e+56
          2116.26240	        -1.76984e+56
          2117.06870	         1.49640e+56
          2117.87500	        -1.67444e+57
          2118.68130	        -3.42205e+56
          2119.48760	         1.15040e+57
          2120.29390	        -2.14538e+57
          2121.10020	        -2.62684e+57
          2121.90650	        -1.00670e+57
          2122.71280	         2.28568e+57
          2123.51910	         1.59838e+57
          2124.32540	        -5.59256e+55
          2125.13170	         1.65250e+57
          2125.93800	         3.07021e+57
          2126.74430	        -6.22648e+56
          2127.55060	        -9.15184e+57
          2128.35690	        -4.03320e+57
          2129.16320	        -7.19262e+56
          2129.96950	        -8.82596e+57
          2130.77580	        -9.13319e+56
          2131.58210	         1.18567e+57
          2132.38840	        -1.51519e+57
          2133.19470	         1.48539e+57
          2134.00100	         1.60430e+57
          2134.80730	        -1.08780e+58
          2135.61360	        -3.23925e+57
          2136.41990	        -2.77965e+57
          2137.22620	        -4.24600e+57
          2138.03250	        -1.40229e+57
          2138.83880	        -3.54724e+57
          2139.64510	        -5.08880e+57
          2140.45140	        -1.60118e+56
          2141.25770	        -1.09782e+58
          2142.06400	         1.77726e+57
          2142.87030	         7.77280e+57
          2143.67660	         1.04982e+58
          2144.48290	         9.44001e+57
          2145.28920	         7.33370e+57
          2146.09550	        -9.42757e+57
          2146.90180	        -4.47260e+57
          2147.70810	        -2.56289e+57
          2148.51440	        -9.13529e+57
          2149.32070	        -1.01800e+58
          2150.12700	        -7.72155e+57
          2150.93330	        -3.19529e+57
          2151.73960	        -3.86057e+55
          2152.54590	        -3.11008e+57
          2153.35220	        -1.27120e+57
          2154.15850	         4.22006e+57
          2154.96480	         2.29747e+57
          2155.77110	        -2.16255e+55
          2156.57740	         2.69844e+57
          2157.38370	         8.17370e+56
          2158.19000	         2.26874e+57
          2158.99630	         4.55047e+57
          2159.80260	        -1.54337e+58
          2160.60890	        -1.62144e+58
          2161.41520	         1.17368e+57
          2162.22150	        -4.21755e+57
          2163.02780	        -9.11654e+57
          2163.83410	        -1.19387e+57
          2164.64040	        -9.54637e+57
          2165.44670	        -1.29996e+58
          2166.25300	        -2.23523e+58
          2167.05930	        -1.83441e+58
          2167.86560	        -1.44718e+58
          2168.67190	        -1.91312e+58
          2169.47820	        -1.79242e+58
          2170.28450	        -8.50265e+57
          2171.09080	        -6.23528e+57
          2171.89710	         2.40610e+56
          2172.70340	        -9.39615e+57
          2173.50970	        -9.82406e+57
          2174.31600	        -6.67080e+57
          2175.12230	        -2.70433e+57
          2175.92860	        -6.43721e+57
          2176.73490	        -3.42691e+57
          2177.54120	        -6.26650e+57
          2178.34750	        -5.30307e+57
          2179.15380	                 nan
          2179.96010	                 nan
          2180.76640	                 nan
          2181.57270	                 nan
          2182.37900	                 nan
          2183.18530	                 nan
          2183.99160	                 nan
          2184.79790	                 nan
          2185.60420	                 nan
          2186.41050	                 nan
          2187.21680	                 nan
          2188.02310	                 nan
          2188.82940	                 nan
          2189.63570	                 nan
          2190.44200	                 nan
          2191.24830	                 nan
          2192.05460	                 nan
          2192.86090	                 nan
          2193.66720	                 nan
          2194.47350	                 nan
          2195.27980	                 nan
          2196.08610	                 nan
          2196.89240	                 nan
          2197.69870	                 nan
          2198.50500	                 nan
          2199.31130	                 nan
          2200.11760	                 nan
          2200.92390	                 nan
          2201.73020	                 nan
          2202.53650	                 nan
          2203.34280	                 nan
          2204.14910	                 nan
          2204.95540	                 nan
          2205.76170	                 nan
          2206.56800	                 nan
          2207.37430	                 nan
          2208.18060	                 nan
          2208.98690	                 nan
          2209.79320	                 nan
          2210.59950	                 nan
          2211.40580	                 nan
          2212.21210	                 nan
          2213.01840	                 nan
          2213.82470	                 nan
          2214.63100	                 nan
          2215.43730	         0.00000e+00
