#sample_219_stacked_spectrum_rest_UV-bands_median_H-alpha_noDC.txt
#median Lum: 1.69989e+42
#Rest-frame wavelength (A) | Luminosity (erg/s/A)
#
          1110.00000	         0.00000e+00
          1110.80630	         4.13914e+59
          1111.61260	         7.39790e+58
          1112.41890	         9.73974e+58
          1113.22520	         1.44595e+59
          1114.03150	         2.36606e+59
          1114.83780	         9.99816e+57
          1115.64410	         9.75835e+58
          1116.45040	        -3.87450e+58
          1117.25670	         1.05966e+59
          1118.06300	         8.47995e+58
          1118.86930	        -2.94439e+58
          1119.67560	         7.33836e+58
          1120.48190	         2.10186e+58
          1121.28820	        -1.01725e+59
          1122.09450	        -1.50214e+58
          1122.90080	         4.24361e+58
          1123.70710	         1.43863e+59
          1124.51340	         8.57403e+58
          1125.31970	        -6.54044e+58
          1126.12600	         2.01013e+58
          1126.93230	        -6.45624e+58
          1127.73860	        -7.98712e+58
          1128.54490	         1.51720e+58
          1129.35120	         3.27238e+58
          1130.15750	         1.39024e+58
          1130.96380	        -1.08636e+58
          1131.77010	         2.69772e+58
          1132.57640	         5.78121e+58
          1133.38270	         3.82009e+58
          1134.18900	         2.20331e+58
          1134.99530	        -3.24763e+57
          1135.80160	         2.23007e+58
          1136.60790	         3.49718e+58
          1137.41420	         9.58347e+57
          1138.22050	         3.03948e+58
          1139.02680	         2.88388e+58
          1139.83310	         1.57683e+58
          1140.63940	         2.36127e+58
          1141.44570	        -6.84386e+57
          1142.25200	         1.85530e+57
          1143.05830	         3.37695e+58
          1143.86460	         1.69992e+58
          1144.67090	         1.35238e+58
          1145.47720	         5.03804e+57
          1146.28350	         9.03286e+57
          1147.08980	         6.39485e+57
          1147.89610	         2.22672e+58
          1148.70240	         1.82396e+58
          1149.50870	         2.51496e+58
          1150.31500	         8.56776e+57
          1151.12130	         4.68909e+56
          1151.92760	         2.94013e+57
          1152.73390	         1.49469e+58
          1153.54020	         1.12880e+58
          1154.34650	         2.18742e+58
          1155.15280	         2.26786e+58
          1155.95910	         5.09662e+57
          1156.76540	         5.61057e+57
          1157.57170	         5.46481e+57
          1158.37800	         4.77834e+57
          1159.18430	         1.40943e+57
          1159.99060	        -1.46058e+57
          1160.79690	         6.48806e+57
          1161.60320	         1.75193e+58
          1162.40950	         2.29940e+58
          1163.21580	         1.07782e+58
          1164.02210	         8.89974e+57
          1164.82840	         1.73608e+58
          1165.63470	         1.94976e+58
          1166.44100	         3.03980e+58
          1167.24730	         2.79838e+58
          1168.05360	         1.41619e+58
          1168.85990	         7.61085e+57
          1169.66620	         6.03398e+57
          1170.47250	         1.03848e+58
          1171.27880	         1.07755e+58
          1172.08510	         4.47719e+57
          1172.89140	         5.52374e+57
          1173.69770	         2.20544e+57
          1174.50400	         1.00078e+58
          1175.31030	         1.91303e+58
          1176.11660	         1.26722e+58
          1176.92290	         1.13742e+58
          1177.72920	         1.22831e+58
          1178.53550	         4.88297e+57
          1179.34180	        -1.72384e+57
          1180.14810	         6.86579e+57
          1180.95440	         1.07037e+58
          1181.76070	         5.92063e+57
          1182.56700	         7.09605e+57
          1183.37330	         6.78074e+57
          1184.17960	         1.18498e+58
          1184.98590	         1.15691e+58
          1185.79220	         5.28121e+57
          1186.59850	         7.25598e+57
          1187.40480	         1.22738e+58
          1188.21110	         1.71854e+58
          1189.01740	         1.41211e+58
          1189.82370	         5.95981e+57
          1190.63000	         9.79528e+57
          1191.43630	         1.42424e+58
          1192.24260	         1.06700e+58
          1193.04890	         9.71811e+57
          1193.85520	         9.24891e+57
          1194.66150	         8.48389e+57
          1195.46780	         1.07667e+58
          1196.27410	         1.33220e+58
          1197.08040	         7.53678e+57
          1197.88670	         1.50992e+58
          1198.69300	         1.95188e+58
          1199.49930	         1.83089e+58
          1200.30560	         1.25447e+58
          1201.11190	         1.30757e+58
          1201.91820	         1.06711e+58
          1202.72450	         9.36788e+57
          1203.53080	         1.45198e+58
          1204.33710	         1.00699e+58
          1205.14340	         6.35473e+57
          1205.94970	         9.02346e+57
          1206.75600	         8.58400e+57
          1207.56230	         3.82258e+57
          1208.36860	         5.51471e+57
          1209.17490	         3.19639e+57
          1209.98120	         6.06341e+57
          1210.78750	         3.79374e+57
          1211.59380	         1.18238e+58
          1212.40010	         1.88038e+58
          1213.20640	         2.15116e+58
          1214.01270	         2.09423e+58
          1214.81900	         2.44045e+58
          1215.62530	         4.41805e+58
          1216.43160	         8.98590e+58
          1217.23790	         1.48082e+59
          1218.04420	         1.15131e+59
          1218.85050	         8.83424e+58
          1219.65680	         6.03827e+58
          1220.46310	         3.50216e+58
          1221.26940	         2.34611e+58
          1222.07570	         1.28956e+58
          1222.88200	         1.05302e+58
          1223.68830	         8.74252e+57
          1224.49460	         6.68666e+57
          1225.30090	         5.37323e+57
          1226.10720	         5.53085e+57
          1226.91350	         5.00946e+57
          1227.71980	         7.34404e+57
          1228.52610	         1.34315e+58
          1229.33240	         9.79435e+57
          1230.13870	         8.53465e+57
          1230.94500	         8.65357e+57
          1231.75130	         7.92955e+57
          1232.55760	         6.92889e+57
          1233.36390	         8.17899e+57
          1234.17020	         8.18016e+57
          1234.97650	         7.44222e+57
          1235.78280	         7.54965e+57
          1236.58910	         7.61840e+57
          1237.39540	         1.10172e+58
          1238.20170	         1.35264e+58
          1239.00800	         1.39904e+58
          1239.81430	         1.40551e+58
          1240.62060	         1.03073e+58
          1241.42690	         1.13001e+58
          1242.23320	         1.33764e+58
          1243.03950	         1.00291e+58
          1243.84580	         9.52931e+57
          1244.65210	         1.03940e+58
          1245.45840	         1.10913e+58
          1246.26470	         1.10152e+58
          1247.07100	         7.16738e+57
          1247.87730	         6.35618e+57
          1248.68360	         4.03313e+57
          1249.48990	         1.10646e+58
          1250.29620	         1.43946e+58
          1251.10250	         1.05459e+58
          1251.90880	         7.72199e+57
          1252.71510	         6.79844e+57
          1253.52140	         5.89659e+57
          1254.32770	         1.02764e+58
          1255.13400	         1.27242e+58
          1255.94030	         9.61867e+57
          1256.74660	         8.21870e+57
          1257.55290	         9.94922e+57
          1258.35920	         8.66242e+57
          1259.16550	         6.86061e+57
          1259.97180	         4.33704e+57
          1260.77810	         6.22595e+57
          1261.58440	         1.20195e+58
          1262.39070	         1.20282e+58
          1263.19700	         1.02545e+58
          1264.00330	         1.04570e+58
          1264.80960	         1.13087e+58
          1265.61590	         1.04410e+58
          1266.42220	         1.06000e+58
          1267.22850	         1.05358e+58
          1268.03480	         1.40285e+58
          1268.84110	         1.62375e+58
          1269.64740	         1.50940e+58
          1270.45370	         1.26925e+58
          1271.26000	         9.49063e+57
          1272.06630	         8.84628e+57
          1272.87260	         1.26631e+58
          1273.67890	         1.31823e+58
          1274.48520	         1.16002e+58
          1275.29150	         1.15550e+58
          1276.09780	         1.15238e+58
          1276.90410	         1.37622e+58
          1277.71040	         1.37867e+58
          1278.51670	         1.23946e+58
          1279.32300	         1.38566e+58
          1280.12930	         1.24633e+58
          1280.93560	         1.12336e+58
          1281.74190	         1.21437e+58
          1282.54820	         1.19272e+58
          1283.35450	         1.08833e+58
          1284.16080	         1.12159e+58
          1284.96710	         1.39751e+58
          1285.77340	         1.07857e+58
          1286.57970	         8.13366e+57
          1287.38600	         1.44094e+58
          1288.19230	         1.66567e+58
          1288.99860	         1.32502e+58
          1289.80490	         8.72256e+57
          1290.61120	         1.04479e+58
          1291.41750	         1.34283e+58
          1292.22380	         1.19646e+58
          1293.03010	         9.28891e+57
          1293.83640	         1.02124e+58
          1294.64270	         9.93118e+57
          1295.44900	         8.91219e+57
          1296.25530	         8.37268e+57
          1297.06160	         1.05190e+58
          1297.86790	         1.07045e+58
          1298.67420	         8.29955e+57
          1299.48050	         8.69812e+57
          1300.28680	         9.06446e+57
          1301.09310	         7.84666e+57
          1301.89940	         4.79977e+57
          1302.70570	         5.77240e+57
          1303.51200	         6.14491e+57
          1304.31830	         9.59982e+57
          1305.12460	         1.15277e+58
          1305.93090	         1.16380e+58
          1306.73720	         1.28929e+58
          1307.54350	         1.48994e+58
          1308.34980	         1.59042e+58
          1309.15610	         1.52921e+58
          1309.96240	         1.34113e+58
          1310.76870	         1.11972e+58
          1311.57500	         1.06755e+58
          1312.38130	         1.38819e+58
          1313.18760	         1.63048e+58
          1313.99390	         1.53772e+58
          1314.80020	         1.56699e+58
          1315.60650	         1.41341e+58
          1316.41280	         1.34504e+58
          1317.21910	         1.13802e+58
          1318.02540	         1.10758e+58
          1318.83170	         1.27954e+58
          1319.63800	         1.22868e+58
          1320.44430	         1.10499e+58
          1321.25060	         1.28280e+58
          1322.05690	         1.22437e+58
          1322.86320	         1.30560e+58
          1323.66950	         1.35209e+58
          1324.47580	         1.09766e+58
          1325.28210	         9.89141e+57
          1326.08840	         1.13361e+58
          1326.89470	         1.36609e+58
          1327.70100	         1.28889e+58
          1328.50730	         9.95590e+57
          1329.31360	         9.74404e+57
          1330.11990	         1.09787e+58
          1330.92620	         8.76329e+57
          1331.73250	         1.01499e+58
          1332.53880	         1.13304e+58
          1333.34510	         9.47649e+57
          1334.15140	         9.33204e+57
          1334.95770	         1.11954e+58
          1335.76400	         1.12241e+58
          1336.57030	         1.04835e+58
          1337.37660	         1.07108e+58
          1338.18290	         1.10757e+58
          1338.98920	         1.09449e+58
          1339.79550	         1.08928e+58
          1340.60180	         1.22374e+58
          1341.40810	         1.43884e+58
          1342.21440	         1.23028e+58
          1343.02070	         1.22326e+58
          1343.82700	         1.33318e+58
          1344.63330	         1.31184e+58
          1345.43960	         1.53204e+58
          1346.24590	         1.23359e+58
          1347.05220	         1.17953e+58
          1347.85850	         1.06381e+58
          1348.66480	         1.12003e+58
          1349.47110	         1.27193e+58
          1350.27740	         1.05178e+58
          1351.08370	         1.01701e+58
          1351.89000	         1.16265e+58
          1352.69630	         1.26966e+58
          1353.50260	         1.29422e+58
          1354.30890	         1.19383e+58
          1355.11520	         1.24463e+58
          1355.92150	         1.22422e+58
          1356.72780	         9.57438e+57
          1357.53410	         9.81220e+57
          1358.34040	         1.12222e+58
          1359.14670	         1.13875e+58
          1359.95300	         1.16796e+58
          1360.75930	         1.12954e+58
          1361.56560	         1.05349e+58
          1362.37190	         1.20729e+58
          1363.17820	         1.15001e+58
          1363.98450	         1.12206e+58
          1364.79080	         1.34081e+58
          1365.59710	         1.47811e+58
          1366.40340	         1.35925e+58
          1367.20970	         9.98456e+57
          1368.01600	         1.05373e+58
          1368.82230	         1.17439e+58
          1369.62860	         1.06099e+58
          1370.43490	         8.59518e+57
          1371.24120	         8.67788e+57
          1372.04750	         8.40003e+57
          1372.85380	         1.04020e+58
          1373.66010	         1.09939e+58
          1374.46640	         1.08400e+58
          1375.27270	         1.07163e+58
          1376.07900	         9.40872e+57
          1376.88530	         7.87521e+57
          1377.69160	         7.86014e+57
          1378.49790	         6.35978e+57
          1379.30420	         6.67667e+57
          1380.11050	         8.94482e+57
          1380.91680	         8.70436e+57
          1381.72310	         7.96936e+57
          1382.52940	         8.53284e+57
          1383.33570	         1.00624e+58
          1384.14200	         1.00288e+58
          1384.94830	         1.03011e+58
          1385.75460	         9.07519e+57
          1386.56090	         1.02109e+58
          1387.36720	         1.35242e+58
          1388.17350	         1.37091e+58
          1388.97980	         1.06510e+58
          1389.78610	         9.85154e+57
          1390.59240	         9.28603e+57
          1391.39870	         6.90304e+57
          1392.20500	         8.62786e+57
          1393.01130	         7.34933e+57
          1393.81760	         6.65118e+57
          1394.62390	         7.55178e+57
          1395.43020	         5.75728e+57
          1396.23650	         6.64816e+57
          1397.04280	         7.40550e+57
          1397.84910	         7.52622e+57
          1398.65540	         8.69282e+57
          1399.46170	         9.33808e+57
          1400.26800	         9.47291e+57
          1401.07430	         8.43764e+57
          1401.88060	         9.39963e+57
          1402.68690	         1.08084e+58
          1403.49320	         1.02322e+58
          1404.29950	         9.88170e+57
          1405.10580	         1.03226e+58
          1405.91210	         1.04759e+58
          1406.71840	         1.05984e+58
          1407.52470	         1.13335e+58
          1408.33100	         1.13327e+58
          1409.13730	         1.22046e+58
          1409.94360	         1.22573e+58
          1410.74990	         1.12596e+58
          1411.55620	         9.75386e+57
          1412.36250	         1.02111e+58
          1413.16880	         9.20006e+57
          1413.97510	         8.35029e+57
          1414.78140	         9.00141e+57
          1415.58770	         1.01961e+58
          1416.39400	         1.14504e+58
          1417.20030	         1.18320e+58
          1418.00660	         9.46519e+57
          1418.81290	         8.94311e+57
          1419.61920	         1.02899e+58
          1420.42550	         1.20106e+58
          1421.23180	         1.32202e+58
          1422.03810	         1.39738e+58
          1422.84440	         1.25723e+58
          1423.65070	         1.30068e+58
          1424.45700	         1.17483e+58
          1425.26330	         8.99685e+57
          1426.06960	         8.82820e+57
          1426.87590	         1.06762e+58
          1427.68220	         1.12475e+58
          1428.48850	         1.08604e+58
          1429.29480	         1.06747e+58
          1430.10110	         9.84867e+57
          1430.90740	         8.55753e+57
          1431.71370	         8.46813e+57
          1432.52000	         8.75535e+57
          1433.32630	         8.28479e+57
          1434.13260	         7.45591e+57
          1434.93890	         6.95975e+57
          1435.74520	         9.11432e+57
          1436.55150	         1.07908e+58
          1437.35780	         9.80838e+57
          1438.16410	         9.62438e+57
          1438.97040	         8.98722e+57
          1439.77670	         9.01084e+57
          1440.58300	         9.36418e+57
          1441.38930	         8.98675e+57
          1442.19560	         1.01095e+58
          1443.00190	         9.76707e+57
          1443.80820	         1.05621e+58
          1444.61450	         9.36023e+57
          1445.42080	         7.98190e+57
          1446.22710	         1.06725e+58
          1447.03340	         1.05622e+58
          1447.83970	         1.11357e+58
          1448.64600	         1.12646e+58
          1449.45230	         1.05452e+58
          1450.25860	         1.19694e+58
          1451.06490	         1.07363e+58
          1451.87120	         8.32227e+57
          1452.67750	         7.40000e+57
          1453.48380	         8.75772e+57
          1454.29010	         7.04193e+57
          1455.09640	         7.27571e+57
          1455.90270	         8.73612e+57
          1456.70900	         9.80744e+57
          1457.51530	         1.13644e+58
          1458.32160	         1.38699e+58
          1459.12790	         1.34107e+58
          1459.93420	         9.97853e+57
          1460.74050	         7.84907e+57
          1461.54680	         8.22616e+57
          1462.35310	         8.84476e+57
          1463.15940	         9.06246e+57
          1463.96570	         1.01904e+58
          1464.77200	         1.20519e+58
          1465.57830	         1.05531e+58
          1466.38460	         1.02351e+58
          1467.19090	         1.01732e+58
          1467.99720	         8.90762e+57
          1468.80350	         9.42567e+57
          1469.60980	         1.09629e+58
          1470.41610	         1.13024e+58
          1471.22240	         1.00509e+58
          1472.02870	         1.04247e+58
          1472.83500	         9.54182e+57
          1473.64130	         8.52749e+57
          1474.44760	         8.44324e+57
          1475.25390	         7.61011e+57
          1476.06020	         8.06975e+57
          1476.86650	         7.66283e+57
          1477.67280	         8.07780e+57
          1478.47910	         6.64019e+57
          1479.28540	         6.85229e+57
          1480.09170	         8.68083e+57
          1480.89800	         9.12441e+57
          1481.70430	         8.11872e+57
          1482.51060	         7.41523e+57
          1483.31690	         7.21740e+57
          1484.12320	         7.29800e+57
          1484.92950	         7.34364e+57
          1485.73580	         7.25604e+57
          1486.54210	         8.32793e+57
          1487.34840	         9.62351e+57
          1488.15470	         9.51549e+57
          1488.96100	         8.68369e+57
          1489.76730	         8.38808e+57
          1490.57360	         8.39331e+57
          1491.37990	         7.48197e+57
          1492.18620	         7.88439e+57
          1492.99250	         8.36453e+57
          1493.79880	         8.54559e+57
          1494.60510	         8.38025e+57
          1495.41140	         7.09626e+57
          1496.21770	         7.15373e+57
          1497.02400	         1.00529e+58
          1497.83030	         9.29238e+57
          1498.63660	         6.97429e+57
          1499.44290	         6.93842e+57
          1500.24920	         7.50511e+57
          1501.05550	         7.84572e+57
          1501.86180	         8.81451e+57
          1502.66810	         9.01678e+57
          1503.47440	         8.43225e+57
          1504.28070	         8.16169e+57
          1505.08700	         9.23842e+57
          1505.89330	         8.61188e+57
          1506.69960	         7.48205e+57
          1507.50590	         8.65049e+57
          1508.31220	         8.72315e+57
          1509.11850	         8.43348e+57
          1509.92480	         9.93494e+57
          1510.73110	         1.02960e+58
          1511.53740	         8.23000e+57
          1512.34370	         7.47224e+57
          1513.15000	         8.95158e+57
          1513.95630	         1.02559e+58
          1514.76260	         8.46437e+57
          1515.56890	         7.84119e+57
          1516.37520	         9.23526e+57
          1517.18150	         8.33549e+57
          1517.98780	         7.27899e+57
          1518.79410	         7.48206e+57
          1519.60040	         7.83577e+57
          1520.40670	         9.19412e+57
          1521.21300	         9.56556e+57
          1522.01930	         8.40271e+57
          1522.82560	         8.95089e+57
          1523.63190	         9.16169e+57
          1524.43820	         7.43831e+57
          1525.24450	         6.20604e+57
          1526.05080	         5.78017e+57
          1526.85710	         6.23761e+57
          1527.66340	         6.51113e+57
          1528.46970	         7.15876e+57
          1529.27600	         7.45652e+57
          1530.08230	         7.86766e+57
          1530.88860	         8.23678e+57
          1531.69490	         9.97146e+57
          1532.50120	         1.00703e+58
          1533.30750	         9.65895e+57
          1534.11380	         8.90870e+57
          1534.92010	         9.13021e+57
          1535.72640	         9.37681e+57
          1536.53270	         1.02418e+58
          1537.33900	         9.16140e+57
          1538.14530	         8.99646e+57
          1538.95160	         8.70064e+57
          1539.75790	         8.92574e+57
          1540.56420	         8.87972e+57
          1541.37050	         7.82132e+57
          1542.17680	         7.52214e+57
          1542.98310	         7.92062e+57
          1543.78940	         8.44834e+57
          1544.59570	         7.77202e+57
          1545.40200	         7.91385e+57
          1546.20830	         9.40131e+57
          1547.01460	         1.08962e+58
          1547.82090	         1.07236e+58
          1548.62720	         1.22113e+58
          1549.43350	         1.20835e+58
          1550.23980	         1.09414e+58
          1551.04610	         1.21704e+58
          1551.85240	         1.15263e+58
          1552.65870	         1.18246e+58
          1553.46500	         1.05588e+58
          1554.27130	         1.00681e+58
          1555.07760	         1.07115e+58
          1555.88390	         9.70713e+57
          1556.69020	         9.79856e+57
          1557.49650	         9.72318e+57
          1558.30280	         9.16670e+57
          1559.10910	         8.81661e+57
          1559.91540	         8.50982e+57
          1560.72170	         8.91880e+57
          1561.52800	         8.14643e+57
          1562.33430	         8.08439e+57
          1563.14060	         8.07658e+57
          1563.94690	         8.85209e+57
          1564.75320	         8.91032e+57
          1565.55950	         7.46677e+57
          1566.36580	         8.28032e+57
          1567.17210	         9.83628e+57
          1567.97840	         1.06304e+58
          1568.78470	         9.80621e+57
          1569.59100	         1.03166e+58
          1570.39730	         9.86585e+57
          1571.20360	         8.19070e+57
          1572.00990	         8.21687e+57
          1572.81620	         9.36988e+57
          1573.62250	         1.11091e+58
          1574.42880	         9.27680e+57
          1575.23510	         7.96062e+57
          1576.04140	         9.23610e+57
          1576.84770	         9.02489e+57
          1577.65400	         8.87473e+57
          1578.46030	         9.83045e+57
          1579.26660	         1.09288e+58
          1580.07290	         9.93128e+57
          1580.87920	         7.74187e+57
          1581.68550	         7.92683e+57
          1582.49180	         8.98220e+57
          1583.29810	         7.99169e+57
          1584.10440	         7.82206e+57
          1584.91070	         8.81356e+57
          1585.71700	         8.86127e+57
          1586.52330	         8.40110e+57
          1587.32960	         8.20245e+57
          1588.13590	         9.06519e+57
          1588.94220	         8.97736e+57
          1589.74850	         8.81265e+57
          1590.55480	         9.65902e+57
          1591.36110	         8.67218e+57
          1592.16740	         8.21270e+57
          1592.97370	         8.51492e+57
          1593.78000	         9.72736e+57
          1594.58630	         9.55406e+57
          1595.39260	         8.68513e+57
          1596.19890	         8.32423e+57
          1597.00520	         9.00956e+57
          1597.81150	         8.84993e+57
          1598.61780	         7.63169e+57
          1599.42410	         6.50552e+57
          1600.23040	         6.24415e+57
          1601.03670	         7.58631e+57
          1601.84300	         8.20206e+57
          1602.64930	         8.48794e+57
          1603.45560	         8.40077e+57
          1604.26190	         7.98676e+57
          1605.06820	         8.43051e+57
          1605.87450	         7.92252e+57
          1606.68080	         6.68519e+57
          1607.48710	         5.99256e+57
          1608.29340	         6.70279e+57
          1609.09970	         6.74078e+57
          1609.90600	         7.30224e+57
          1610.71230	         6.91200e+57
          1611.51860	         7.17048e+57
          1612.32490	         7.65298e+57
          1613.13120	         8.01800e+57
          1613.93750	         8.18762e+57
          1614.74380	         9.45042e+57
          1615.55010	         1.02075e+58
          1616.35640	         9.20765e+57
          1617.16270	         9.58167e+57
          1617.96900	         1.06770e+58
          1618.77530	         1.03371e+58
          1619.58160	         8.88523e+57
          1620.38790	         7.83657e+57
          1621.19420	         8.67766e+57
          1622.00050	         8.39634e+57
          1622.80680	         9.25950e+57
          1623.61310	         8.79444e+57
          1624.41940	         8.43976e+57
          1625.22570	         8.57966e+57
          1626.03200	         9.31133e+57
          1626.83830	         8.28881e+57
          1627.64460	         7.05167e+57
          1628.45090	         7.11498e+57
          1629.25720	         8.66263e+57
          1630.06350	         8.71820e+57
          1630.86980	         5.66785e+57
          1631.67610	         6.89805e+57
          1632.48240	         8.45598e+57
          1633.28870	         8.83433e+57
          1634.09500	         9.96335e+57
          1634.90130	         1.20350e+58
          1635.70760	         1.07314e+58
          1636.51390	         9.09634e+57
          1637.32020	         8.17593e+57
          1638.12650	         8.53130e+57
          1638.93280	         9.29627e+57
          1639.73910	         1.00122e+58
          1640.54540	         9.84603e+57
          1641.35170	         8.12945e+57
          1642.15800	         9.01828e+57
          1642.96430	         9.08723e+57
          1643.77060	         8.84447e+57
          1644.57690	         9.31755e+57
          1645.38320	         8.41507e+57
          1646.18950	         7.11309e+57
          1646.99580	         8.64943e+57
          1647.80210	         7.80060e+57
          1648.60840	         7.17273e+57
          1649.41470	         8.09257e+57
          1650.22100	         7.33557e+57
          1651.02730	         6.45736e+57
          1651.83360	         7.33325e+57
          1652.63990	         8.99700e+57
          1653.44620	         9.33981e+57
          1654.25250	         8.10961e+57
          1655.05880	         7.53647e+57
          1655.86510	         7.77349e+57
          1656.67140	         7.38420e+57
          1657.47770	         7.96915e+57
          1658.28400	         8.68091e+57
          1659.09030	         9.98746e+57
          1659.89660	         9.34346e+57
          1660.70290	         9.39823e+57
          1661.50920	         9.56519e+57
          1662.31550	         9.65833e+57
          1663.12180	         9.82880e+57
          1663.92810	         9.52843e+57
          1664.73440	         1.07679e+58
          1665.54070	         1.25450e+58
          1666.34700	         1.25212e+58
          1667.15330	         1.14270e+58
          1667.95960	         1.00302e+58
          1668.76590	         8.25845e+57
          1669.57220	         6.62216e+57
          1670.37850	         6.79500e+57
          1671.18480	         7.69639e+57
          1671.99110	         7.67865e+57
          1672.79740	         7.33678e+57
          1673.60370	         7.39471e+57
          1674.41000	         8.55709e+57
          1675.21630	         7.68702e+57
          1676.02260	         6.95609e+57
          1676.82890	         7.26167e+57
          1677.63520	         7.32592e+57
          1678.44150	         7.70308e+57
          1679.24780	         9.11147e+57
          1680.05410	         8.80068e+57
          1680.86040	         6.67936e+57
          1681.66670	         6.63350e+57
          1682.47300	         7.12956e+57
          1683.27930	         7.96876e+57
          1684.08560	         8.62981e+57
          1684.89190	         7.29225e+57
          1685.69820	         5.71907e+57
          1686.50450	         6.23579e+57
          1687.31080	         7.40168e+57
          1688.11710	         7.56118e+57
          1688.92340	         6.24094e+57
          1689.72970	         5.61718e+57
          1690.53600	         6.07547e+57
          1691.34230	         7.31022e+57
          1692.14860	         8.10763e+57
          1692.95490	         8.03971e+57
          1693.76120	         8.21450e+57
          1694.56750	         7.61626e+57
          1695.37380	         7.63382e+57
          1696.18010	         8.76596e+57
          1696.98640	         9.21061e+57
          1697.79270	         8.49590e+57
          1698.59900	         8.15265e+57
          1699.40530	         7.77132e+57
          1700.21160	         7.52295e+57
          1701.01790	         8.40363e+57
          1701.82420	         7.18743e+57
          1702.63050	         7.94635e+57
          1703.43680	         8.99900e+57
          1704.24310	         8.01743e+57
          1705.04940	         7.54919e+57
          1705.85570	         8.14643e+57
          1706.66200	         8.41691e+57
          1707.46830	         8.36183e+57
          1708.27460	         8.68970e+57
          1709.08090	         7.21749e+57
          1709.88720	         5.51871e+57
          1710.69350	         6.31394e+57
          1711.49980	         7.45668e+57
          1712.30610	         7.98964e+57
          1713.11240	         8.76637e+57
          1713.91870	         7.75355e+57
          1714.72500	         7.70478e+57
          1715.53130	         8.44111e+57
          1716.33760	         7.84758e+57
          1717.14390	         6.95693e+57
          1717.95020	         7.78560e+57
          1718.75650	         9.22350e+57
          1719.56280	         9.23133e+57
          1720.36910	         7.61977e+57
          1721.17540	         7.29735e+57
          1721.98170	         6.95286e+57
          1722.78800	         7.34536e+57
          1723.59430	         7.54756e+57
          1724.40060	         8.96494e+57
          1725.20690	         8.28557e+57
          1726.01320	         7.88552e+57
          1726.81950	         8.40663e+57
          1727.62580	         8.48844e+57
          1728.43210	         7.97261e+57
          1729.23840	         8.30440e+57
          1730.04470	         8.11365e+57
          1730.85100	         8.67100e+57
          1731.65730	         8.41169e+57
          1732.46360	         7.83253e+57
          1733.26990	         7.51822e+57
          1734.07620	         6.83845e+57
          1734.88250	         7.03302e+57
          1735.68880	         7.05754e+57
          1736.49510	         7.70404e+57
          1737.30140	         7.93710e+57
          1738.10770	         7.18874e+57
          1738.91400	         7.67650e+57
          1739.72030	         7.74449e+57
          1740.52660	         6.71796e+57
          1741.33290	         5.72355e+57
          1742.13920	         5.64762e+57
          1742.94550	         6.95254e+57
          1743.75180	         7.30941e+57
          1744.55810	         7.58135e+57
          1745.36440	         6.85747e+57
          1746.17070	         5.81631e+57
          1746.97700	         5.32818e+57
          1747.78330	         6.81409e+57
          1748.58960	         7.09921e+57
          1749.39590	         6.64157e+57
          1750.20220	         6.65481e+57
          1751.00850	         5.78803e+57
          1751.81480	         6.47990e+57
          1752.62110	         7.39935e+57
          1753.42740	         7.91601e+57
          1754.23370	         5.18894e+57
          1755.04000	         4.87905e+57
          1755.84630	         8.00815e+57
          1756.65260	         8.95980e+57
          1757.45890	         8.35789e+57
          1758.26520	         6.65804e+57
          1759.07150	         8.28831e+57
          1759.87780	         8.30045e+57
          1760.68410	         8.12279e+57
          1761.49040	         8.16964e+57
          1762.29670	         6.18467e+57
          1763.10300	         7.01101e+57
          1763.90930	         9.06840e+57
          1764.71560	         9.23793e+57
          1765.52190	         8.49958e+57
          1766.32820	         8.37109e+57
          1767.13450	         8.52628e+57
          1767.94080	         7.52499e+57
          1768.74710	         6.83931e+57
          1769.55340	         6.95797e+57
          1770.35970	         6.95760e+57
          1771.16600	         7.45211e+57
          1771.97230	         8.09731e+57
          1772.77860	         8.20270e+57
          1773.58490	         7.26997e+57
          1774.39120	         6.94273e+57
          1775.19750	         6.61768e+57
          1776.00380	         6.95396e+57
          1776.81010	         6.64080e+57
          1777.61640	         6.34717e+57
          1778.42270	         6.52652e+57
          1779.22900	         6.67095e+57
          1780.03530	         7.10513e+57
          1780.84160	         7.76672e+57
          1781.64790	         8.66496e+57
          1782.45420	         7.89999e+57
          1783.26050	         7.90866e+57
          1784.06680	         7.76720e+57
          1784.87310	         8.12112e+57
          1785.67940	         8.33386e+57
          1786.48570	         7.40862e+57
          1787.29200	         6.19055e+57
          1788.09830	         6.61756e+57
          1788.90460	         6.03548e+57
          1789.71090	         4.86994e+57
          1790.51720	         4.50149e+57
          1791.32350	         7.15276e+57
          1792.12980	         8.79764e+57
          1792.93610	         8.14550e+57
          1793.74240	         7.10599e+57
          1794.54870	         8.03870e+57
          1795.35500	         8.99014e+57
          1796.16130	         7.94369e+57
          1796.96760	         7.50841e+57
          1797.77390	         8.04588e+57
          1798.58020	         6.96855e+57
          1799.38650	         6.46344e+57
          1800.19280	         7.46158e+57
          1800.99910	         7.46940e+57
          1801.80540	         7.31093e+57
          1802.61170	         8.25764e+57
          1803.41800	         8.11834e+57
          1804.22430	         7.64808e+57
          1805.03060	         7.21999e+57
          1805.83690	         7.05298e+57
          1806.64320	         7.46672e+57
          1807.44950	         7.46721e+57
          1808.25580	         6.98681e+57
          1809.06210	         7.72152e+57
          1809.86840	         7.60277e+57
          1810.67470	         7.16779e+57
          1811.48100	         7.31253e+57
          1812.28730	         8.80413e+57
          1813.09360	         8.22984e+57
          1813.89990	         8.12922e+57
          1814.70620	         7.92692e+57
          1815.51250	         9.02636e+57
          1816.31880	         8.63754e+57
          1817.12510	         8.42714e+57
          1817.93140	         7.18952e+57
          1818.73770	         6.92434e+57
          1819.54400	         7.70219e+57
          1820.35030	         7.47322e+57
          1821.15660	         6.31925e+57
          1821.96290	         6.55596e+57
          1822.76920	         7.65060e+57
          1823.57550	         7.62084e+57
          1824.38180	         7.58208e+57
          1825.18810	         7.20006e+57
          1825.99440	         7.52816e+57
          1826.80070	         7.59466e+57
          1827.60700	         6.54232e+57
          1828.41330	         5.97497e+57
          1829.21960	         6.86874e+57
          1830.02590	         7.43937e+57
          1830.83220	         7.63428e+57
          1831.63850	         7.69832e+57
          1832.44480	         7.25198e+57
          1833.25110	         7.83769e+57
          1834.05740	         8.22391e+57
          1834.86370	         7.75258e+57
          1835.67000	         6.45234e+57
          1836.47630	         7.96380e+57
          1837.28260	         9.51734e+57
          1838.08890	         9.38853e+57
          1838.89520	         9.00098e+57
          1839.70150	         7.95379e+57
          1840.50780	         7.24024e+57
          1841.31410	         7.25840e+57
          1842.12040	         6.74777e+57
          1842.92670	         6.98782e+57
          1843.73300	         7.06497e+57
          1844.53930	         6.83265e+57
          1845.34560	         7.35247e+57
          1846.15190	         8.03879e+57
          1846.95820	         7.77245e+57
          1847.76450	         7.40880e+57
          1848.57080	         6.08332e+57
          1849.37710	         5.81615e+57
          1850.18340	         7.04827e+57
          1850.98970	         7.91795e+57
          1851.79600	         8.06258e+57
          1852.60230	         6.67385e+57
          1853.40860	         7.22497e+57
          1854.21490	         7.17177e+57
          1855.02120	         5.59459e+57
          1855.82750	         4.26190e+57
          1856.63380	         5.45323e+57
          1857.44010	         7.96359e+57
          1858.24640	         7.54649e+57
          1859.05270	         7.71459e+57
          1859.85900	         6.48180e+57
          1860.66530	         7.01020e+57
          1861.47160	         7.39745e+57
          1862.27790	         7.00818e+57
          1863.08420	         6.74427e+57
          1863.89050	         7.64043e+57
          1864.69680	         7.29341e+57
          1865.50310	         7.19577e+57
          1866.30940	         6.73105e+57
          1867.11570	         6.66888e+57
          1867.92200	         6.80709e+57
          1868.72830	         7.53730e+57
          1869.53460	         7.53390e+57
          1870.34090	         7.96154e+57
          1871.14720	         7.64378e+57
          1871.95350	         7.08731e+57
          1872.75980	         7.65032e+57
          1873.56610	         7.05861e+57
          1874.37240	         5.66173e+57
          1875.17870	         5.77858e+57
          1875.98500	         7.47800e+57
          1876.79130	         7.99927e+57
          1877.59760	         6.63762e+57
          1878.40390	         5.76888e+57
          1879.21020	         6.70221e+57
          1880.01650	         8.05592e+57
          1880.82280	         9.11552e+57
          1881.62910	         9.27512e+57
          1882.43540	         1.04444e+58
          1883.24170	         8.80731e+57
          1884.04800	         6.84476e+57
          1884.85430	         7.66892e+57
          1885.66060	         8.52267e+57
          1886.46690	         9.08198e+57
          1887.27320	         8.42909e+57
          1888.07950	         6.74226e+57
          1888.88580	         7.49391e+57
          1889.69210	         9.54048e+57
          1890.49840	         8.70618e+57
          1891.30470	         7.66207e+57
          1892.11100	         8.59728e+57
          1892.91730	         8.91278e+57
          1893.72360	         8.26665e+57
          1894.52990	         7.78661e+57
          1895.33620	         6.81191e+57
          1896.14250	         5.93897e+57
          1896.94880	         5.39381e+57
          1897.75510	         5.13399e+57
          1898.56140	         7.28472e+57
          1899.36770	         8.73581e+57
          1900.17400	         7.37681e+57
          1900.98030	         6.64888e+57
          1901.78660	         7.10594e+57
          1902.59290	         6.42922e+57
          1903.39920	         8.38263e+57
          1904.20550	         9.42831e+57
          1905.01180	         8.63575e+57
          1905.81810	         9.50048e+57
          1906.62440	         1.20019e+58
          1907.43070	         1.41732e+58
          1908.23700	         1.56219e+58
          1909.04330	         1.31265e+58
          1909.84960	         1.15451e+58
          1910.65590	         9.38536e+57
          1911.46220	         8.86743e+57
          1912.26850	         7.80112e+57
          1913.07480	         6.06189e+57
          1913.88110	         6.45954e+57
          1914.68740	         6.02827e+57
          1915.49370	         6.40865e+57
          1916.30000	         6.68574e+57
          1917.10630	         7.00226e+57
          1917.91260	         7.05418e+57
          1918.71890	         6.72557e+57
          1919.52520	         6.02097e+57
          1920.33150	         5.71182e+57
          1921.13780	         7.20256e+57
          1921.94410	         8.10467e+57
          1922.75040	         8.53103e+57
          1923.55670	         7.86337e+57
          1924.36300	         7.35517e+57
          1925.16930	         6.14798e+57
          1925.97560	         5.11125e+57
          1926.78190	         5.45686e+57
          1927.58820	         6.23910e+57
          1928.39450	         5.58533e+57
          1929.20080	         5.40773e+57
          1930.00710	         7.00573e+57
          1930.81340	         7.62773e+57
          1931.61970	         7.75230e+57
          1932.42600	         7.90478e+57
          1933.23230	         7.52735e+57
          1934.03860	         6.31352e+57
          1934.84490	         6.10602e+57
          1935.65120	         7.49899e+57
          1936.45750	         8.43660e+57
          1937.26380	         6.25349e+57
          1938.07010	         6.90846e+57
          1938.87640	         8.16139e+57
          1939.68270	         8.13517e+57
          1940.48900	         7.94112e+57
          1941.29530	         7.87666e+57
          1942.10160	         7.15955e+57
          1942.90790	         6.67861e+57
          1943.71420	         6.70351e+57
          1944.52050	         5.99226e+57
          1945.32680	         5.66719e+57
          1946.13310	         8.12254e+57
          1946.93940	         7.53733e+57
          1947.74570	         6.87605e+57
          1948.55200	         6.31143e+57
          1949.35830	         6.49428e+57
          1950.16460	         6.46873e+57
          1950.97090	         6.65022e+57
          1951.77720	         7.52580e+57
          1952.58350	         7.75171e+57
          1953.38980	         5.99305e+57
          1954.19610	         4.23899e+57
          1955.00240	         5.42553e+57
          1955.80870	         6.54460e+57
          1956.61500	         6.69933e+57
          1957.42130	         6.36936e+57
          1958.22760	         6.57363e+57
          1959.03390	         7.18144e+57
          1959.84020	         7.54909e+57
          1960.64650	         7.97022e+57
          1961.45280	         6.91868e+57
          1962.25910	         6.73318e+57
          1963.06540	         6.31982e+57
          1963.87170	         6.11455e+57
          1964.67800	         8.25569e+57
          1965.48430	         6.42543e+57
          1966.29060	         5.69425e+57
          1967.09690	         6.73698e+57
          1967.90320	         7.46637e+57
          1968.70950	         7.28903e+57
          1969.51580	         7.14641e+57
          1970.32210	         8.24588e+57
          1971.12840	         8.02698e+57
          1971.93470	         5.65376e+57
          1972.74100	         6.33671e+57
          1973.54730	         6.84764e+57
          1974.35360	         7.15857e+57
          1975.15990	         7.43101e+57
          1975.96620	         6.90279e+57
          1976.77250	         7.59391e+57
          1977.57880	         7.91359e+57
          1978.38510	         6.16333e+57
          1979.19140	         5.99619e+57
          1979.99770	         7.53934e+57
          1980.80400	         7.59609e+57
          1981.61030	         6.73354e+57
          1982.41660	         4.85361e+57
          1983.22290	         5.16166e+57
          1984.02920	         5.44578e+57
          1984.83550	         5.64126e+57
          1985.64180	         6.55574e+57
          1986.44810	         6.56542e+57
          1987.25440	         6.14611e+57
          1988.06070	         5.43093e+57
          1988.86700	         5.79096e+57
          1989.67330	         6.98676e+57
          1990.47960	         6.70281e+57
          1991.28590	         6.46242e+57
          1992.09220	         6.49412e+57
          1992.89850	         6.11163e+57
          1993.70480	         5.33907e+57
          1994.51110	         4.95280e+57
          1995.31740	         4.40947e+57
          1996.12370	         5.04093e+57
          1996.93000	         5.72962e+57
          1997.73630	         7.80294e+57
          1998.54260	         7.27784e+57
          1999.34890	         6.35590e+57
          2000.15520	         6.25183e+57
          2000.96150	         7.74596e+57
          2001.76780	         6.00935e+57
          2002.57410	         5.07547e+57
          2003.38040	         6.89446e+57
          2004.18670	         6.80075e+57
          2004.99300	         6.14556e+57
          2005.79930	         8.35739e+57
          2006.60560	         7.50172e+57
          2007.41190	         6.49666e+57
          2008.21820	         6.10354e+57
          2009.02450	         6.41666e+57
          2009.83080	         6.63429e+57
          2010.63710	         6.09087e+57
          2011.44340	         6.79433e+57
          2012.24970	         7.38891e+57
          2013.05600	         7.21393e+57
          2013.86230	         5.74382e+57
          2014.66860	         5.99851e+57
          2015.47490	         6.83673e+57
          2016.28120	         6.11817e+57
          2017.08750	         5.48738e+57
          2017.89380	         5.16453e+57
          2018.70010	         5.66784e+57
          2019.50640	         5.34900e+57
          2020.31270	         6.25969e+57
          2021.11900	         7.72739e+57
          2021.92530	         6.40835e+57
          2022.73160	         7.31765e+57
          2023.53790	         7.46868e+57
          2024.34420	         6.30907e+57
          2025.15050	         5.77081e+57
          2025.95680	         5.08889e+57
          2026.76310	         5.31552e+57
          2027.56940	         6.77132e+57
          2028.37570	         8.25657e+57
          2029.18200	         6.89486e+57
          2029.98830	         5.53719e+57
          2030.79460	         5.54850e+57
          2031.60090	         5.97628e+57
          2032.40720	         6.47030e+57
          2033.21350	         6.65092e+57
          2034.01980	         5.52124e+57
          2034.82610	         3.90252e+57
          2035.63240	         4.96610e+57
          2036.43870	         5.32657e+57
          2037.24500	         7.28862e+57
          2038.05130	         7.42671e+57
          2038.85760	         5.98113e+57
          2039.66390	         6.58748e+57
          2040.47020	         5.86843e+57
          2041.27650	         6.41167e+57
          2042.08280	         5.38902e+57
          2042.88910	         5.33913e+57
          2043.69540	         4.89425e+57
          2044.50170	         5.87924e+57
          2045.30800	         5.83170e+57
          2046.11430	         5.45872e+57
          2046.92060	         5.36660e+57
          2047.72690	         5.56432e+57
          2048.53320	         5.39334e+57
          2049.33950	         4.38225e+57
          2050.14580	         5.34204e+57
          2050.95210	         5.80809e+57
          2051.75840	         7.17678e+57
          2052.56470	         5.27799e+57
          2053.37100	         5.03542e+57
          2054.17730	         6.00343e+57
          2054.98360	         5.93458e+57
          2055.78990	         5.33544e+57
          2056.59620	         4.20600e+57
          2057.40250	         5.34573e+57
          2058.20880	         6.11659e+57
          2059.01510	         7.04036e+57
          2059.82140	         7.14935e+57
          2060.62770	         1.02597e+58
          2061.43400	         1.63497e+58
          2062.24030	         1.21918e+58
          2063.04660	         4.81653e+57
          2063.85290	         2.01243e+57
          2064.65920	        -1.44936e+57
          2065.46550	        -7.82335e+57
          2066.27180	        -9.71061e+57
          2067.07810	         2.69842e+57
          2067.88440	         6.56603e+57
          2068.69070	         7.24543e+57
          2069.49700	         6.54207e+57
          2070.30330	         4.89296e+57
          2071.10960	         5.70704e+57
          2071.91590	         7.24604e+57
          2072.72220	         4.60550e+57
          2073.52850	         5.10957e+57
          2074.33480	         5.32874e+57
          2075.14110	         5.60398e+57
          2075.94740	         4.13393e+57
          2076.75370	         7.59891e+57
          2077.56000	         4.67863e+57
          2078.36630	         4.94140e+57
          2079.17260	         5.31131e+57
          2079.97890	         6.12461e+57
          2080.78520	         5.71140e+57
          2081.59150	         4.75788e+57
          2082.39780	         4.59730e+57
          2083.20410	         3.15960e+57
          2084.01040	         3.31071e+57
          2084.81670	         4.60351e+57
          2085.62300	         4.22735e+57
          2086.42930	         4.10098e+57
          2087.23560	         3.59373e+57
          2088.04190	         3.73284e+57
          2088.84820	         2.67936e+57
          2089.65450	         2.38061e+57
          2090.46080	         1.65223e+57
          2091.26710	         1.53814e+57
          2092.07340	         2.63496e+57
          2092.87970	         3.03707e+57
          2093.68600	        -4.39725e+56
          2094.49230	         2.89961e+57
          2095.29860	         5.40295e+57
          2096.10490	         3.19044e+57
          2096.91120	         3.43530e+57
          2097.71750	        -3.25027e+56
          2098.52380	        -1.17065e+56
          2099.33010	         5.43095e+56
          2100.13640	         2.11921e+57
          2100.94270	         3.91262e+57
          2101.74900	         2.93017e+57
          2102.55530	         2.05045e+57
          2103.36160	         1.10280e+57
          2104.16790	         8.71760e+55
          2104.97420	         9.84317e+56
          2105.78050	         1.20511e+57
          2106.58680	         5.28772e+56
          2107.39310	        -1.44092e+57
          2108.19940	        -1.19611e+57
          2109.00570	         4.94047e+56
          2109.81200	         1.02280e+57
          2110.61830	         1.79964e+57
          2111.42460	        -2.10176e+57
          2112.23090	         1.96858e+57
          2113.03720	        -1.83902e+57
          2113.84350	         1.51221e+56
          2114.64980	         6.51609e+57
          2115.45610	        -1.17167e+57
          2116.26240	        -9.75056e+57
          2117.06870	        -3.54289e+57
          2117.87500	        -2.86068e+57
          2118.68130	         2.03527e+56
          2119.48760	         1.67400e+57
          2120.29390	         2.71872e+57
          2121.10020	        -3.58256e+57
          2121.90650	         1.72985e+57
          2122.71280	         3.65013e+55
          2123.51910	         2.85910e+57
          2124.32540	         3.46934e+57
          2125.13170	        -1.88847e+57
          2125.93800	         1.70907e+57
          2126.74430	        -1.80639e+56
          2127.55060	        -4.00455e+57
          2128.35690	        -4.47759e+57
          2129.16320	        -6.63863e+57
          2129.96950	        -2.94340e+57
          2130.77580	         1.51623e+57
          2131.58210	         8.02838e+56
          2132.38840	        -1.12814e+56
          2133.19470	         8.25381e+56
          2134.00100	         1.09151e+57
          2134.80730	        -4.12352e+57
          2135.61360	         7.16881e+57
          2136.41990	         1.54977e+57
          2137.22620	        -3.08863e+57
          2138.03250	         5.18476e+57
          2138.83880	        -9.68863e+57
          2139.64510	         9.56946e+56
          2140.45140	         1.55695e+57
          2141.25770	        -5.93785e+57
          2142.06400	        -9.90204e+56
          2142.87030	         2.64343e+57
          2143.67660	         1.10177e+58
          2144.48290	         3.64261e+57
          2145.28920	         9.29119e+57
          2146.09550	        -3.83466e+57
          2146.90180	        -5.00532e+57
          2147.70810	        -3.44881e+57
          2148.51440	        -2.03359e+57
          2149.32070	        -5.69736e+57
          2150.12700	        -1.07175e+58
          2150.93330	        -7.20476e+57
          2151.73960	         3.25127e+56
          2152.54590	         4.12708e+56
          2153.35220	         2.69721e+57
          2154.15850	        -4.47249e+57
          2154.96480	         1.32851e+57
          2155.77110	        -2.03139e+57
          2156.57740	         1.22355e+57
          2157.38370	         9.17271e+57
          2158.19000	         3.82442e+57
          2158.99630	        -6.59576e+57
          2159.80260	        -1.23617e+58
          2160.60890	        -1.10177e+58
          2161.41520	         5.49102e+56
          2162.22150	        -5.94880e+57
          2163.02780	         1.34678e+56
          2163.83410	        -3.16633e+57
          2164.64040	        -1.50634e+58
          2165.44670	        -9.50912e+57
          2166.25300	        -1.32114e+58
          2167.05930	        -2.26947e+56
          2167.86560	         6.48164e+56
          2168.67190	        -4.26002e+57
          2169.47820	        -3.83532e+57
          2170.28450	        -1.48919e+58
          2171.09080	         4.54254e+56
          2171.89710	        -2.24287e+57
          2172.70340	         1.93248e+57
          2173.50970	        -7.10140e+57
          2174.31600	        -6.26303e+57
          2175.12230	        -6.48876e+57
          2175.92860	        -4.95033e+57
          2176.73490	        -1.00581e+58
          2177.54120	        -8.91051e+57
          2178.34750	        -5.25355e+57
          2179.15380	                 nan
          2179.96010	                 nan
          2180.76640	                 nan
          2181.57270	                 nan
          2182.37900	                 nan
          2183.18530	                 nan
          2183.99160	                 nan
          2184.79790	                 nan
          2185.60420	                 nan
          2186.41050	                 nan
          2187.21680	                 nan
          2188.02310	                 nan
          2188.82940	                 nan
          2189.63570	                 nan
          2190.44200	                 nan
          2191.24830	                 nan
          2192.05460	                 nan
          2192.86090	                 nan
          2193.66720	                 nan
          2194.47350	                 nan
          2195.27980	                 nan
          2196.08610	                 nan
          2196.89240	                 nan
          2197.69870	                 nan
          2198.50500	                 nan
          2199.31130	                 nan
          2200.11760	                 nan
          2200.92390	                 nan
          2201.73020	                 nan
          2202.53650	                 nan
          2203.34280	                 nan
          2204.14910	                 nan
          2204.95540	                 nan
          2205.76170	                 nan
          2206.56800	                 nan
          2207.37430	                 nan
          2208.18060	                 nan
          2208.98690	                 nan
          2209.79320	                 nan
          2210.59950	                 nan
          2211.40580	                 nan
          2212.21210	                 nan
          2213.01840	                 nan
          2213.82470	                 nan
          2214.63100	                 nan
          2215.43730	         0.00000e+00
