#sample_246_stacked_spectrum_rest_UV-bands_median_H-alpha_noDC.txt
#median Lum: 1.67467e+42
#Rest-frame wavelength (A) | Luminosity (erg/s/A)
#
          1110.00000	         0.00000e+00
          1110.80630	         5.91930e+58
          1111.61260	         1.21727e+59
          1112.41890	        -1.33953e+58
          1113.22520	        -4.58317e+58
          1114.03150	         7.30812e+58
          1114.83780	         3.43182e+59
          1115.64410	         2.60607e+59
          1116.45040	         1.47340e+59
          1117.25670	         9.49639e+58
          1118.06300	         9.86653e+58
          1118.86930	        -6.09765e+58
          1119.67560	         8.23633e+58
          1120.48190	        -2.58277e+58
          1121.28820	        -1.16834e+59
          1122.09450	        -3.11624e+58
          1122.90080	        -6.16120e+58
          1123.70710	         4.30313e+58
          1124.51340	         5.21607e+58
          1125.31970	         3.10417e+58
          1126.12600	         1.64597e+58
          1126.93230	        -2.00230e+58
          1127.73860	        -5.33546e+58
          1128.54490	         6.99984e+57
          1129.35120	         2.96194e+58
          1130.15750	        -2.18417e+58
          1130.96380	        -3.92133e+58
          1131.77010	        -1.77689e+57
          1132.57640	         3.78448e+58
          1133.38270	         2.55379e+58
          1134.18900	         1.51805e+58
          1134.99530	         3.68528e+58
          1135.80160	         1.39774e+58
          1136.60790	        -1.43792e+58
          1137.41420	        -1.93373e+58
          1138.22050	         2.10020e+58
          1139.02680	         2.25884e+58
          1139.83310	         3.94479e+58
          1140.63940	         2.51628e+58
          1141.44570	        -1.64939e+58
          1142.25200	         5.33082e+57
          1143.05830	         3.21947e+58
          1143.86460	         2.80802e+58
          1144.67090	         2.41938e+58
          1145.47720	         1.31499e+58
          1146.28350	         8.97669e+57
          1147.08980	         2.09167e+58
          1147.89610	         1.76916e+58
          1148.70240	         2.06592e+58
          1149.50870	         1.83683e+58
          1150.31500	         1.57319e+58
          1151.12130	         1.70024e+57
          1151.92760	        -4.68126e+55
          1152.73390	        -1.26047e+57
          1153.54020	        -1.74408e+57
          1154.34650	         1.86887e+58
          1155.15280	         1.85812e+58
          1155.95910	         3.60635e+57
          1156.76540	         8.38943e+57
          1157.57170	        -1.43156e+57
          1158.37800	         4.52764e+57
          1159.18430	        -1.99236e+57
          1159.99060	         6.67311e+57
          1160.79690	         5.71603e+57
          1161.60320	         4.86365e+56
          1162.40950	         2.16733e+58
          1163.21580	         3.68966e+58
          1164.02210	         3.29450e+57
          1164.82840	         1.33991e+58
          1165.63470	         2.34874e+58
          1166.44100	         3.03205e+58
          1167.24730	         1.59537e+58
          1168.05360	         2.75070e+57
          1168.85990	        -1.95034e+56
          1169.66620	         5.67201e+57
          1170.47250	         8.09256e+57
          1171.27880	         1.16086e+58
          1172.08510	         1.28297e+58
          1172.89140	         8.03845e+57
          1173.69770	         1.17142e+58
          1174.50400	         1.28475e+58
          1175.31030	         1.77506e+58
          1176.11660	         2.10406e+58
          1176.92290	         1.69074e+58
          1177.72920	         1.33877e+58
          1178.53550	         6.03424e+57
          1179.34180	        -4.50411e+56
          1180.14810	         4.31485e+56
          1180.95440	         6.12817e+57
          1181.76070	         7.90147e+57
          1182.56700	         9.41769e+57
          1183.37330	         1.04441e+58
          1184.17960	         1.00158e+58
          1184.98590	         1.00199e+58
          1185.79220	         5.75667e+57
          1186.59850	         1.08306e+58
          1187.40480	         9.06424e+57
          1188.21110	         1.49248e+58
          1189.01740	         1.16240e+58
          1189.82370	         1.64867e+58
          1190.63000	         1.07023e+58
          1191.43630	         1.22245e+58
          1192.24260	         8.67197e+57
          1193.04890	         1.48037e+58
          1193.85520	         1.42589e+58
          1194.66150	         7.83558e+57
          1195.46780	         1.08079e+58
          1196.27410	         1.17777e+58
          1197.08040	         4.95757e+57
          1197.88670	         9.98417e+57
          1198.69300	         1.52058e+58
          1199.49930	         1.70446e+58
          1200.30560	         1.17070e+58
          1201.11190	         1.27589e+58
          1201.91820	         1.42199e+58
          1202.72450	         5.94951e+57
          1203.53080	         1.46253e+58
          1204.33710	         1.25722e+58
          1205.14340	         5.30614e+57
          1205.94970	         5.70445e+57
          1206.75600	         6.89215e+57
          1207.56230	         3.53651e+56
          1208.36860	         6.14246e+57
          1209.17490	         7.30100e+57
          1209.98120	         7.01401e+57
          1210.78750	         9.55577e+57
          1211.59380	         1.31764e+58
          1212.40010	         1.92498e+58
          1213.20640	         2.02946e+58
          1214.01270	         2.05692e+58
          1214.81900	         2.55648e+58
          1215.62530	         4.39033e+58
          1216.43160	         9.24055e+58
          1217.23790	         1.52947e+59
          1218.04420	         1.16007e+59
          1218.85050	         8.79335e+58
          1219.65680	         6.20493e+58
          1220.46310	         3.85458e+58
          1221.26940	         2.29908e+58
          1222.07570	         1.85792e+58
          1222.88200	         8.26189e+57
          1223.68830	         9.24458e+57
          1224.49460	         7.14037e+57
          1225.30090	         5.71599e+57
          1226.10720	         6.89293e+57
          1226.91350	         9.96179e+57
          1227.71980	         7.63312e+57
          1228.52610	         1.42635e+58
          1229.33240	         9.88992e+57
          1230.13870	         7.91028e+57
          1230.94500	         8.26370e+57
          1231.75130	         4.77811e+57
          1232.55760	         7.86955e+57
          1233.36390	         7.18873e+57
          1234.17020	         8.66329e+57
          1234.97650	         8.34323e+57
          1235.78280	         8.61393e+57
          1236.58910	         6.96769e+57
          1237.39540	         7.85288e+57
          1238.20170	         8.30091e+57
          1239.00800	         1.36527e+58
          1239.81430	         1.75625e+58
          1240.62060	         1.07203e+58
          1241.42690	         9.13889e+57
          1242.23320	         1.04216e+58
          1243.03950	         8.73376e+57
          1243.84580	         7.57814e+57
          1244.65210	         8.47371e+57
          1245.45840	         1.06326e+58
          1246.26470	         1.07612e+58
          1247.07100	         5.63629e+57
          1247.87730	         4.27322e+57
          1248.68360	         6.75714e+57
          1249.48990	         9.52462e+57
          1250.29620	         1.06168e+58
          1251.10250	         1.02074e+58
          1251.90880	         7.36536e+57
          1252.71510	         4.46751e+57
          1253.52140	         6.06202e+57
          1254.32770	         8.99471e+57
          1255.13400	         1.26724e+58
          1255.94030	         1.14765e+58
          1256.74660	         1.02762e+58
          1257.55290	         1.04822e+58
          1258.35920	         9.15031e+57
          1259.16550	         6.50702e+57
          1259.97180	         6.56310e+57
          1260.77810	         8.93388e+57
          1261.58440	         1.02504e+58
          1262.39070	         9.54947e+57
          1263.19700	         8.72039e+57
          1264.00330	         7.17567e+57
          1264.80960	         9.08660e+57
          1265.61590	         1.42180e+58
          1266.42220	         1.38450e+58
          1267.22850	         1.10146e+58
          1268.03480	         1.41478e+58
          1268.84110	         1.33620e+58
          1269.64740	         1.07437e+58
          1270.45370	         1.24998e+58
          1271.26000	         1.21921e+58
          1272.06630	         1.06462e+58
          1272.87260	         9.94487e+57
          1273.67890	         1.12233e+58
          1274.48520	         1.36280e+58
          1275.29150	         1.61034e+58
          1276.09780	         1.44889e+58
          1276.90410	         1.34345e+58
          1277.71040	         1.17729e+58
          1278.51670	         1.29025e+58
          1279.32300	         1.30574e+58
          1280.12930	         1.18342e+58
          1280.93560	         1.18053e+58
          1281.74190	         1.10975e+58
          1282.54820	         1.35490e+58
          1283.35450	         1.19216e+58
          1284.16080	         1.12175e+58
          1284.96710	         1.39505e+58
          1285.77340	         1.12433e+58
          1286.57970	         1.13124e+58
          1287.38600	         1.55187e+58
          1288.19230	         1.79777e+58
          1288.99860	         1.59315e+58
          1289.80490	         1.30327e+58
          1290.61120	         1.31276e+58
          1291.41750	         1.36959e+58
          1292.22380	         1.15919e+58
          1293.03010	         1.14509e+58
          1293.83640	         1.19165e+58
          1294.64270	         8.57294e+57
          1295.44900	         6.99946e+57
          1296.25530	         6.88058e+57
          1297.06160	         8.93510e+57
          1297.86790	         1.10013e+58
          1298.67420	         9.37028e+57
          1299.48050	         9.09201e+57
          1300.28680	         1.12403e+58
          1301.09310	         7.96336e+57
          1301.89940	         5.03807e+57
          1302.70570	         5.06421e+57
          1303.51200	         6.81937e+57
          1304.31830	         9.52111e+57
          1305.12460	         1.01728e+58
          1305.93090	         1.12691e+58
          1306.73720	         1.40927e+58
          1307.54350	         1.56844e+58
          1308.34980	         1.47834e+58
          1309.15610	         1.52410e+58
          1309.96240	         1.51357e+58
          1310.76870	         1.27395e+58
          1311.57500	         1.16783e+58
          1312.38130	         1.23764e+58
          1313.18760	         1.53792e+58
          1313.99390	         1.72411e+58
          1314.80020	         1.61085e+58
          1315.60650	         1.50946e+58
          1316.41280	         1.38620e+58
          1317.21910	         1.25810e+58
          1318.02540	         1.27281e+58
          1318.83170	         1.28397e+58
          1319.63800	         1.31226e+58
          1320.44430	         1.19413e+58
          1321.25060	         1.29398e+58
          1322.05690	         1.31016e+58
          1322.86320	         1.22918e+58
          1323.66950	         1.16816e+58
          1324.47580	         9.99076e+57
          1325.28210	         9.95386e+57
          1326.08840	         1.12915e+58
          1326.89470	         1.21710e+58
          1327.70100	         1.03133e+58
          1328.50730	         8.75800e+57
          1329.31360	         8.84581e+57
          1330.11990	         9.12820e+57
          1330.92620	         9.41585e+57
          1331.73250	         1.08896e+58
          1332.53880	         1.00726e+58
          1333.34510	         9.07839e+57
          1334.15140	         8.91005e+57
          1334.95770	         9.53034e+57
          1335.76400	         1.03642e+58
          1336.57030	         1.03948e+58
          1337.37660	         1.13067e+58
          1338.18290	         1.07298e+58
          1338.98920	         1.03360e+58
          1339.79550	         1.05741e+58
          1340.60180	         1.16115e+58
          1341.40810	         1.40953e+58
          1342.21440	         1.23356e+58
          1343.02070	         1.17718e+58
          1343.82700	         1.26829e+58
          1344.63330	         1.34976e+58
          1345.43960	         1.42052e+58
          1346.24590	         1.12379e+58
          1347.05220	         1.12198e+58
          1347.85850	         9.78642e+57
          1348.66480	         1.20490e+58
          1349.47110	         1.28236e+58
          1350.27740	         1.21789e+58
          1351.08370	         1.20455e+58
          1351.89000	         1.12990e+58
          1352.69630	         1.20419e+58
          1353.50260	         1.26617e+58
          1354.30890	         1.14646e+58
          1355.11520	         1.11712e+58
          1355.92150	         1.12051e+58
          1356.72780	         1.10079e+58
          1357.53410	         1.06061e+58
          1358.34040	         1.12263e+58
          1359.14670	         1.06564e+58
          1359.95300	         1.09972e+58
          1360.75930	         1.13651e+58
          1361.56560	         1.07636e+58
          1362.37190	         1.31288e+58
          1363.17820	         1.22216e+58
          1363.98450	         1.39819e+58
          1364.79080	         1.51455e+58
          1365.59710	         1.37635e+58
          1366.40340	         1.19445e+58
          1367.20970	         1.09644e+58
          1368.01600	         1.03884e+58
          1368.82230	         8.46603e+57
          1369.62860	         1.02563e+58
          1370.43490	         9.71372e+57
          1371.24120	         8.44568e+57
          1372.04750	         8.92258e+57
          1372.85380	         1.08136e+58
          1373.66010	         1.14214e+58
          1374.46640	         1.21212e+58
          1375.27270	         1.14596e+58
          1376.07900	         9.98289e+57
          1376.88530	         7.92438e+57
          1377.69160	         7.46407e+57
          1378.49790	         6.29865e+57
          1379.30420	         6.38066e+57
          1380.11050	         7.29109e+57
          1380.91680	         6.65291e+57
          1381.72310	         7.77142e+57
          1382.52940	         8.10343e+57
          1383.33570	         7.89192e+57
          1384.14200	         9.32213e+57
          1384.94830	         1.01994e+58
          1385.75460	         1.10228e+58
          1386.56090	         1.16606e+58
          1387.36720	         9.93840e+57
          1388.17350	         1.18800e+58
          1388.97980	         1.27397e+58
          1389.78610	         8.73310e+57
          1390.59240	         7.23319e+57
          1391.39870	         7.57755e+57
          1392.20500	         7.50695e+57
          1393.01130	         7.84527e+57
          1393.81760	         7.86663e+57
          1394.62390	         6.77799e+57
          1395.43020	         6.07118e+57
          1396.23650	         7.74998e+57
          1397.04280	         8.05648e+57
          1397.84910	         8.17625e+57
          1398.65540	         9.29610e+57
          1399.46170	         1.05205e+58
          1400.26800	         8.74654e+57
          1401.07430	         8.34476e+57
          1401.88060	         8.27563e+57
          1402.68690	         7.82227e+57
          1403.49320	         8.81037e+57
          1404.29950	         9.20052e+57
          1405.10580	         1.05051e+58
          1405.91210	         1.12689e+58
          1406.71840	         1.10793e+58
          1407.52470	         1.05854e+58
          1408.33100	         1.03629e+58
          1409.13730	         1.15656e+58
          1409.94360	         1.26466e+58
          1410.74990	         1.24405e+58
          1411.55620	         1.05515e+58
          1412.36250	         7.26244e+57
          1413.16880	         7.90015e+57
          1413.97510	         8.99163e+57
          1414.78140	         8.94239e+57
          1415.58770	         1.12268e+58
          1416.39400	         1.17935e+58
          1417.20030	         1.08039e+58
          1418.00660	         1.01310e+58
          1418.81290	         1.00297e+58
          1419.61920	         9.56576e+57
          1420.42550	         1.24419e+58
          1421.23180	         1.30514e+58
          1422.03810	         1.16277e+58
          1422.84440	         1.16832e+58
          1423.65070	         1.35348e+58
          1424.45700	         1.14267e+58
          1425.26330	         8.61064e+57
          1426.06960	         9.66084e+57
          1426.87590	         1.06500e+58
          1427.68220	         1.04189e+58
          1428.48850	         1.06620e+58
          1429.29480	         1.04800e+58
          1430.10110	         1.04324e+58
          1430.90740	         1.00886e+58
          1431.71370	         9.71913e+57
          1432.52000	         1.06555e+58
          1433.32630	         9.29754e+57
          1434.13260	         8.41170e+57
          1434.93890	         8.30573e+57
          1435.74520	         9.06350e+57
          1436.55150	         9.75703e+57
          1437.35780	         9.96046e+57
          1438.16410	         1.00767e+58
          1438.97040	         9.13339e+57
          1439.77670	         8.72654e+57
          1440.58300	         9.55412e+57
          1441.38930	         9.92420e+57
          1442.19560	         9.32051e+57
          1443.00190	         8.86682e+57
          1443.80820	         1.07520e+58
          1444.61450	         1.10896e+58
          1445.42080	         8.60359e+57
          1446.22710	         9.90825e+57
          1447.03340	         1.04300e+58
          1447.83970	         1.04076e+58
          1448.64600	         1.05426e+58
          1449.45230	         9.75161e+57
          1450.25860	         9.17084e+57
          1451.06490	         8.36516e+57
          1451.87120	         7.01969e+57
          1452.67750	         7.05799e+57
          1453.48380	         8.29193e+57
          1454.29010	         7.67181e+57
          1455.09640	         6.80819e+57
          1455.90270	         7.95351e+57
          1456.70900	         8.79347e+57
          1457.51530	         9.38229e+57
          1458.32160	         1.12109e+58
          1459.12790	         1.05654e+58
          1459.93420	         9.86941e+57
          1460.74050	         8.00909e+57
          1461.54680	         7.81237e+57
          1462.35310	         7.65283e+57
          1463.15940	         8.63839e+57
          1463.96570	         1.11052e+58
          1464.77200	         1.12097e+58
          1465.57830	         1.06725e+58
          1466.38460	         1.00778e+58
          1467.19090	         9.42394e+57
          1467.99720	         8.59926e+57
          1468.80350	         8.38152e+57
          1469.60980	         9.73240e+57
          1470.41610	         1.20717e+58
          1471.22240	         1.00060e+58
          1472.02870	         9.54173e+57
          1472.83500	         1.04967e+58
          1473.64130	         1.11844e+58
          1474.44760	         8.92727e+57
          1475.25390	         8.49828e+57
          1476.06020	         8.24559e+57
          1476.86650	         7.63232e+57
          1477.67280	         8.36619e+57
          1478.47910	         7.40198e+57
          1479.28540	         7.33296e+57
          1480.09170	         7.85058e+57
          1480.89800	         7.90633e+57
          1481.70430	         8.54050e+57
          1482.51060	         8.98414e+57
          1483.31690	         8.02049e+57
          1484.12320	         7.49031e+57
          1484.92950	         8.00215e+57
          1485.73580	         8.35680e+57
          1486.54210	         9.14409e+57
          1487.34840	         8.70031e+57
          1488.15470	         8.32231e+57
          1488.96100	         8.41266e+57
          1489.76730	         8.52434e+57
          1490.57360	         9.14596e+57
          1491.37990	         8.17680e+57
          1492.18620	         8.45722e+57
          1492.99250	         8.27204e+57
          1493.79880	         8.31032e+57
          1494.60510	         8.83046e+57
          1495.41140	         7.06534e+57
          1496.21770	         7.28313e+57
          1497.02400	         1.03065e+58
          1497.83030	         9.42037e+57
          1498.63660	         7.70782e+57
          1499.44290	         7.04087e+57
          1500.24920	         7.08246e+57
          1501.05550	         7.77207e+57
          1501.86180	         8.84822e+57
          1502.66810	         9.03954e+57
          1503.47440	         8.73355e+57
          1504.28070	         7.68700e+57
          1505.08700	         7.36628e+57
          1505.89330	         9.32055e+57
          1506.69960	         8.77211e+57
          1507.50590	         8.41131e+57
          1508.31220	         8.42563e+57
          1509.11850	         7.94014e+57
          1509.92480	         9.39162e+57
          1510.73110	         9.10842e+57
          1511.53740	         7.35258e+57
          1512.34370	         6.83326e+57
          1513.15000	         9.37514e+57
          1513.95630	         1.14058e+58
          1514.76260	         9.71311e+57
          1515.56890	         8.24574e+57
          1516.37520	         8.18271e+57
          1517.18150	         8.44706e+57
          1517.98780	         7.41188e+57
          1518.79410	         7.59669e+57
          1519.60040	         8.73182e+57
          1520.40670	         9.18889e+57
          1521.21300	         8.74077e+57
          1522.01930	         7.96971e+57
          1522.82560	         8.89855e+57
          1523.63190	         1.06045e+58
          1524.43820	         8.41645e+57
          1525.24450	         6.13972e+57
          1526.05080	         6.62497e+57
          1526.85710	         6.72478e+57
          1527.66340	         7.00016e+57
          1528.46970	         8.06647e+57
          1529.27600	         7.96904e+57
          1530.08230	         7.39925e+57
          1530.88860	         7.06465e+57
          1531.69490	         9.03367e+57
          1532.50120	         9.48697e+57
          1533.30750	         9.48657e+57
          1534.11380	         8.80958e+57
          1534.92010	         8.97241e+57
          1535.72640	         9.27517e+57
          1536.53270	         9.01575e+57
          1537.33900	         8.25985e+57
          1538.14530	         8.34693e+57
          1538.95160	         9.36982e+57
          1539.75790	         9.52363e+57
          1540.56420	         9.04789e+57
          1541.37050	         7.69039e+57
          1542.17680	         6.51975e+57
          1542.98310	         6.57284e+57
          1543.78940	         7.91381e+57
          1544.59570	         6.68973e+57
          1545.40200	         7.70890e+57
          1546.20830	         9.10773e+57
          1547.01460	         1.03074e+58
          1547.82090	         1.19338e+58
          1548.62720	         1.28181e+58
          1549.43350	         1.15194e+58
          1550.23980	         9.95817e+57
          1551.04610	         1.20114e+58
          1551.85240	         1.22316e+58
          1552.65870	         1.08918e+58
          1553.46500	         9.87855e+57
          1554.27130	         1.01901e+58
          1555.07760	         9.81975e+57
          1555.88390	         9.22277e+57
          1556.69020	         9.64223e+57
          1557.49650	         8.90075e+57
          1558.30280	         8.16712e+57
          1559.10910	         8.85963e+57
          1559.91540	         8.94560e+57
          1560.72170	         8.70811e+57
          1561.52800	         9.21510e+57
          1562.33430	         8.97128e+57
          1563.14060	         8.43844e+57
          1563.94690	         8.61219e+57
          1564.75320	         8.79256e+57
          1565.55950	         7.65178e+57
          1566.36580	         8.01606e+57
          1567.17210	         8.93172e+57
          1567.97840	         9.11066e+57
          1568.78470	         8.73843e+57
          1569.59100	         8.64848e+57
          1570.39730	         7.92310e+57
          1571.20360	         7.39351e+57
          1572.00990	         8.27381e+57
          1572.81620	         9.11036e+57
          1573.62250	         9.59234e+57
          1574.42880	         9.01308e+57
          1575.23510	         7.89637e+57
          1576.04140	         8.87380e+57
          1576.84770	         9.28490e+57
          1577.65400	         9.95794e+57
          1578.46030	         1.06282e+58
          1579.26660	         1.00719e+58
          1580.07290	         8.57570e+57
          1580.87920	         8.06596e+57
          1581.68550	         7.87722e+57
          1582.49180	         8.41387e+57
          1583.29810	         7.66111e+57
          1584.10440	         8.19976e+57
          1584.91070	         8.33432e+57
          1585.71700	         8.76723e+57
          1586.52330	         9.63450e+57
          1587.32960	         9.69429e+57
          1588.13590	         9.01441e+57
          1588.94220	         9.27486e+57
          1589.74850	         9.68183e+57
          1590.55480	         9.19873e+57
          1591.36110	         7.43605e+57
          1592.16740	         7.89000e+57
          1592.97370	         8.50445e+57
          1593.78000	         9.21911e+57
          1594.58630	         9.73543e+57
          1595.39260	         8.97077e+57
          1596.19890	         9.33087e+57
          1597.00520	         9.37031e+57
          1597.81150	         8.48562e+57
          1598.61780	         8.05988e+57
          1599.42410	         7.81364e+57
          1600.23040	         7.43484e+57
          1601.03670	         7.75016e+57
          1601.84300	         7.41575e+57
          1602.64930	         8.54556e+57
          1603.45560	         8.17543e+57
          1604.26190	         7.23147e+57
          1605.06820	         7.78429e+57
          1605.87450	         8.24712e+57
          1606.68080	         7.85798e+57
          1607.48710	         5.92469e+57
          1608.29340	         5.79593e+57
          1609.09970	         6.97339e+57
          1609.90600	         7.11932e+57
          1610.71230	         5.85711e+57
          1611.51860	         6.79851e+57
          1612.32490	         7.52957e+57
          1613.13120	         7.99810e+57
          1613.93750	         7.82940e+57
          1614.74380	         7.70606e+57
          1615.55010	         8.63455e+57
          1616.35640	         9.93530e+57
          1617.16270	         1.05747e+58
          1617.96900	         1.03048e+58
          1618.77530	         8.78689e+57
          1619.58160	         8.22554e+57
          1620.38790	         8.84005e+57
          1621.19420	         1.02384e+58
          1622.00050	         8.20165e+57
          1622.80680	         8.44311e+57
          1623.61310	         8.09013e+57
          1624.41940	         8.05479e+57
          1625.22570	         9.19519e+57
          1626.03200	         9.10671e+57
          1626.83830	         8.51981e+57
          1627.64460	         7.71553e+57
          1628.45090	         8.11446e+57
          1629.25720	         1.01531e+58
          1630.06350	         8.90959e+57
          1630.86980	         5.41975e+57
          1631.67610	         8.14711e+57
          1632.48240	         9.43200e+57
          1633.28870	         8.57436e+57
          1634.09500	         9.55776e+57
          1634.90130	         9.97350e+57
          1635.70760	         9.01902e+57
          1636.51390	         8.35994e+57
          1637.32020	         8.11285e+57
          1638.12650	         8.72007e+57
          1638.93280	         1.00467e+58
          1639.73910	         1.09233e+58
          1640.54540	         1.07768e+58
          1641.35170	         8.84360e+57
          1642.15800	         9.56110e+57
          1642.96430	         8.12228e+57
          1643.77060	         7.80644e+57
          1644.57690	         8.78200e+57
          1645.38320	         8.20015e+57
          1646.18950	         6.82222e+57
          1646.99580	         8.34785e+57
          1647.80210	         8.16811e+57
          1648.60840	         7.48901e+57
          1649.41470	         7.61900e+57
          1650.22100	         6.43246e+57
          1651.02730	         5.93824e+57
          1651.83360	         7.16342e+57
          1652.63990	         7.88645e+57
          1653.44620	         7.90310e+57
          1654.25250	         7.59685e+57
          1655.05880	         7.52808e+57
          1655.86510	         8.58310e+57
          1656.67140	         8.19111e+57
          1657.47770	         7.83485e+57
          1658.28400	         7.82885e+57
          1659.09030	         8.51841e+57
          1659.89660	         9.31473e+57
          1660.70290	         1.03831e+58
          1661.50920	         9.68022e+57
          1662.31550	         8.67040e+57
          1663.12180	         8.86867e+57
          1663.92810	         9.34020e+57
          1664.73440	         1.05395e+58
          1665.54070	         1.14102e+58
          1666.34700	         1.20162e+58
          1667.15330	         1.09481e+58
          1667.95960	         8.83578e+57
          1668.76590	         6.80755e+57
          1669.57220	         6.90917e+57
          1670.37850	         8.01542e+57
          1671.18480	         8.66006e+57
          1671.99110	         8.01481e+57
          1672.79740	         7.72017e+57
          1673.60370	         7.59506e+57
          1674.41000	         8.52719e+57
          1675.21630	         8.14439e+57
          1676.02260	         6.79658e+57
          1676.82890	         7.33895e+57
          1677.63520	         7.70713e+57
          1678.44150	         8.13732e+57
          1679.24780	         9.58663e+57
          1680.05410	         7.74553e+57
          1680.86040	         6.30221e+57
          1681.66670	         6.78475e+57
          1682.47300	         7.77139e+57
          1683.27930	         8.67645e+57
          1684.08560	         8.58624e+57
          1684.89190	         8.27367e+57
          1685.69820	         5.26465e+57
          1686.50450	         4.67369e+57
          1687.31080	         6.20434e+57
          1688.11710	         7.29482e+57
          1688.92340	         7.77774e+57
          1689.72970	         6.95025e+57
          1690.53600	         6.51881e+57
          1691.34230	         7.42888e+57
          1692.14860	         7.79785e+57
          1692.95490	         7.75911e+57
          1693.76120	         7.47412e+57
          1694.56750	         7.17963e+57
          1695.37380	         8.37679e+57
          1696.18010	         8.93533e+57
          1696.98640	         8.45119e+57
          1697.79270	         7.92696e+57
          1698.59900	         7.78122e+57
          1699.40530	         6.90465e+57
          1700.21160	         7.64142e+57
          1701.01790	         8.78855e+57
          1701.82420	         8.43275e+57
          1702.63050	         7.17559e+57
          1703.43680	         6.67836e+57
          1704.24310	         8.12895e+57
          1705.04940	         7.92326e+57
          1705.85570	         7.09387e+57
          1706.66200	         8.08902e+57
          1707.46830	         8.62578e+57
          1708.27460	         7.43173e+57
          1709.08090	         7.05320e+57
          1709.88720	         6.08902e+57
          1710.69350	         6.04488e+57
          1711.49980	         7.56492e+57
          1712.30610	         7.31976e+57
          1713.11240	         8.56965e+57
          1713.91870	         8.08417e+57
          1714.72500	         7.23502e+57
          1715.53130	         8.02045e+57
          1716.33760	         6.93810e+57
          1717.14390	         6.47246e+57
          1717.95020	         8.98695e+57
          1718.75650	         9.24512e+57
          1719.56280	         8.82375e+57
          1720.36910	         6.61666e+57
          1721.17540	         6.12978e+57
          1721.98170	         6.20538e+57
          1722.78800	         6.75981e+57
          1723.59430	         7.46230e+57
          1724.40060	         7.50336e+57
          1725.20690	         7.89500e+57
          1726.01320	         7.80131e+57
          1726.81950	         8.00392e+57
          1727.62580	         6.97295e+57
          1728.43210	         6.40316e+57
          1729.23840	         7.83292e+57
          1730.04470	         8.37225e+57
          1730.85100	         8.65187e+57
          1731.65730	         7.92059e+57
          1732.46360	         7.18315e+57
          1733.26990	         7.00654e+57
          1734.07620	         7.81046e+57
          1734.88250	         7.38419e+57
          1735.68880	         7.92663e+57
          1736.49510	         8.80806e+57
          1737.30140	         8.59048e+57
          1738.10770	         7.15652e+57
          1738.91400	         6.63752e+57
          1739.72030	         6.60112e+57
          1740.52660	         6.38868e+57
          1741.33290	         6.55738e+57
          1742.13920	         5.89362e+57
          1742.94550	         6.44477e+57
          1743.75180	         7.32560e+57
          1744.55810	         7.69647e+57
          1745.36440	         7.93229e+57
          1746.17070	         6.52357e+57
          1746.97700	         5.07920e+57
          1747.78330	         6.87015e+57
          1748.58960	         7.53281e+57
          1749.39590	         7.65360e+57
          1750.20220	         6.61971e+57
          1751.00850	         6.57630e+57
          1751.81480	         6.85504e+57
          1752.62110	         6.95940e+57
          1753.42740	         8.51004e+57
          1754.23370	         7.67274e+57
          1755.04000	         7.60229e+57
          1755.84630	         8.00801e+57
          1756.65260	         9.13861e+57
          1757.45890	         8.65535e+57
          1758.26520	         6.96564e+57
          1759.07150	         8.13316e+57
          1759.87780	         8.53679e+57
          1760.68410	         8.63127e+57
          1761.49040	         8.82602e+57
          1762.29670	         5.92662e+57
          1763.10300	         7.05869e+57
          1763.90930	         7.83545e+57
          1764.71560	         7.04365e+57
          1765.52190	         7.07576e+57
          1766.32820	         8.14039e+57
          1767.13450	         7.27742e+57
          1767.94080	         7.10206e+57
          1768.74710	         7.19757e+57
          1769.55340	         7.04695e+57
          1770.35970	         5.98838e+57
          1771.16600	         7.46668e+57
          1771.97230	         8.87528e+57
          1772.77860	         8.36940e+57
          1773.58490	         6.13341e+57
          1774.39120	         5.23102e+57
          1775.19750	         5.77061e+57
          1776.00380	         6.79185e+57
          1776.81010	         6.85900e+57
          1777.61640	         6.89259e+57
          1778.42270	         7.63371e+57
          1779.22900	         7.69867e+57
          1780.03530	         7.34526e+57
          1780.84160	         6.44635e+57
          1781.64790	         7.44671e+57
          1782.45420	         7.21749e+57
          1783.26050	         7.28442e+57
          1784.06680	         7.72818e+57
          1784.87310	         7.67066e+57
          1785.67940	         7.77114e+57
          1786.48570	         6.69788e+57
          1787.29200	         6.52695e+57
          1788.09830	         6.37295e+57
          1788.90460	         5.05284e+57
          1789.71090	         5.56551e+57
          1790.51720	         4.66777e+57
          1791.32350	         6.16266e+57
          1792.12980	         7.72149e+57
          1792.93610	         7.48698e+57
          1793.74240	         7.41754e+57
          1794.54870	         7.34905e+57
          1795.35500	         7.84690e+57
          1796.16130	         8.33126e+57
          1796.96760	         7.68438e+57
          1797.77390	         7.71864e+57
          1798.58020	         8.15831e+57
          1799.38650	         7.34782e+57
          1800.19280	         6.63921e+57
          1800.99910	         7.07418e+57
          1801.80540	         7.75847e+57
          1802.61170	         9.17025e+57
          1803.41800	         9.25174e+57
          1804.22430	         7.71045e+57
          1805.03060	         7.19372e+57
          1805.83690	         7.51021e+57
          1806.64320	         7.57772e+57
          1807.44950	         7.97240e+57
          1808.25580	         7.21350e+57
          1809.06210	         8.33535e+57
          1809.86840	         8.48482e+57
          1810.67470	         6.79924e+57
          1811.48100	         7.29148e+57
          1812.28730	         7.87496e+57
          1813.09360	         6.00894e+57
          1813.89990	         6.97468e+57
          1814.70620	         7.57233e+57
          1815.51250	         8.50664e+57
          1816.31880	         9.09971e+57
          1817.12510	         7.35163e+57
          1817.93140	         6.62501e+57
          1818.73770	         7.37313e+57
          1819.54400	         8.47731e+57
          1820.35030	         8.75105e+57
          1821.15660	         7.27551e+57
          1821.96290	         7.04106e+57
          1822.76920	         6.87623e+57
          1823.57550	         7.24954e+57
          1824.38180	         7.15517e+57
          1825.18810	         7.61284e+57
          1825.99440	         8.13439e+57
          1826.80070	         7.82907e+57
          1827.60700	         6.66846e+57
          1828.41330	         5.71390e+57
          1829.21960	         6.74307e+57
          1830.02590	         6.83296e+57
          1830.83220	         7.34034e+57
          1831.63850	         7.70204e+57
          1832.44480	         7.30386e+57
          1833.25110	         7.93090e+57
          1834.05740	         7.84558e+57
          1834.86370	         7.01373e+57
          1835.67000	         5.94207e+57
          1836.47630	         7.03572e+57
          1837.28260	         8.78259e+57
          1838.08890	         7.92583e+57
          1838.89520	         7.86672e+57
          1839.70150	         6.82624e+57
          1840.50780	         7.00809e+57
          1841.31410	         6.37391e+57
          1842.12040	         6.39783e+57
          1842.92670	         6.34460e+57
          1843.73300	         6.70533e+57
          1844.53930	         7.50574e+57
          1845.34560	         7.00011e+57
          1846.15190	         7.26117e+57
          1846.95820	         8.59447e+57
          1847.76450	         7.88380e+57
          1848.57080	         6.52282e+57
          1849.37710	         7.06245e+57
          1850.18340	         8.04780e+57
          1850.98970	         8.06492e+57
          1851.79600	         9.07672e+57
          1852.60230	         9.12134e+57
          1853.40860	         8.07032e+57
          1854.21490	         6.31343e+57
          1855.02120	         6.44037e+57
          1855.82750	         4.81785e+57
          1856.63380	         4.52994e+57
          1857.44010	         6.91386e+57
          1858.24640	         7.08639e+57
          1859.05270	         7.17661e+57
          1859.85900	         6.36645e+57
          1860.66530	         6.63109e+57
          1861.47160	         7.59954e+57
          1862.27790	         7.17653e+57
          1863.08420	         7.67872e+57
          1863.89050	         8.35266e+57
          1864.69680	         7.72254e+57
          1865.50310	         7.53533e+57
          1866.30940	         7.60245e+57
          1867.11570	         6.11017e+57
          1867.92200	         7.38438e+57
          1868.72830	         7.99668e+57
          1869.53460	         6.65710e+57
          1870.34090	         6.59742e+57
          1871.14720	         6.84827e+57
          1871.95350	         6.89658e+57
          1872.75980	         6.94720e+57
          1873.56610	         6.44239e+57
          1874.37240	         5.35665e+57
          1875.17870	         5.66309e+57
          1875.98500	         6.46582e+57
          1876.79130	         7.12945e+57
          1877.59760	         7.00239e+57
          1878.40390	         6.20075e+57
          1879.21020	         6.25228e+57
          1880.01650	         6.88864e+57
          1880.82280	         7.75047e+57
          1881.62910	         8.88201e+57
          1882.43540	         9.42753e+57
          1883.24170	         7.76177e+57
          1884.04800	         6.61034e+57
          1884.85430	         7.00725e+57
          1885.66060	         7.58748e+57
          1886.46690	         8.08591e+57
          1887.27320	         7.16119e+57
          1888.07950	         6.38677e+57
          1888.88580	         7.77306e+57
          1889.69210	         8.37528e+57
          1890.49840	         7.70340e+57
          1891.30470	         7.88417e+57
          1892.11100	         8.94249e+57
          1892.91730	         8.87429e+57
          1893.72360	         7.42040e+57
          1894.52990	         5.96286e+57
          1895.33620	         7.73503e+57
          1896.14250	         6.40559e+57
          1896.94880	         4.78762e+57
          1897.75510	         5.20095e+57
          1898.56140	         5.06219e+57
          1899.36770	         6.98715e+57
          1900.17400	         6.63183e+57
          1900.98030	         6.40601e+57
          1901.78660	         6.72848e+57
          1902.59290	         7.41339e+57
          1903.39920	         8.48491e+57
          1904.20550	         8.83762e+57
          1905.01180	         8.92850e+57
          1905.81810	         9.63574e+57
          1906.62440	         1.31138e+58
          1907.43070	         1.55937e+58
          1908.23700	         1.50736e+58
          1909.04330	         1.34881e+58
          1909.84960	         1.14478e+58
          1910.65590	         9.90233e+57
          1911.46220	         8.80941e+57
          1912.26850	         7.29059e+57
          1913.07480	         6.06257e+57
          1913.88110	         4.89591e+57
          1914.68740	         5.47390e+57
          1915.49370	         5.74344e+57
          1916.30000	         5.74957e+57
          1917.10630	         6.79781e+57
          1917.91260	         7.39383e+57
          1918.71890	         6.56309e+57
          1919.52520	         5.55069e+57
          1920.33150	         5.18823e+57
          1921.13780	         7.35227e+57
          1921.94410	         8.60008e+57
          1922.75040	         7.77427e+57
          1923.55670	         8.38669e+57
          1924.36300	         8.21374e+57
          1925.16930	         7.40674e+57
          1925.97560	         5.70101e+57
          1926.78190	         5.75100e+57
          1927.58820	         6.52513e+57
          1928.39450	         6.16363e+57
          1929.20080	         4.65151e+57
          1930.00710	         5.93854e+57
          1930.81340	         7.91752e+57
          1931.61970	         7.42627e+57
          1932.42600	         7.30402e+57
          1933.23230	         8.28030e+57
          1934.03860	         7.73770e+57
          1934.84490	         6.59307e+57
          1935.65120	         7.86267e+57
          1936.45750	         8.82856e+57
          1937.26380	         7.44346e+57
          1938.07010	         8.36540e+57
          1938.87640	         8.64944e+57
          1939.68270	         7.27876e+57
          1940.48900	         7.49902e+57
          1941.29530	         8.14183e+57
          1942.10160	         7.35943e+57
          1942.90790	         6.88197e+57
          1943.71420	         5.80321e+57
          1944.52050	         5.93348e+57
          1945.32680	         7.35105e+57
          1946.13310	         7.92859e+57
          1946.93940	         8.01572e+57
          1947.74570	         7.33392e+57
          1948.55200	         6.96674e+57
          1949.35830	         5.79884e+57
          1950.16460	         5.03180e+57
          1950.97090	         5.74267e+57
          1951.77720	         7.62584e+57
          1952.58350	         8.39586e+57
          1953.38980	         6.18448e+57
          1954.19610	         4.38532e+57
          1955.00240	         5.10503e+57
          1955.80870	         6.05873e+57
          1956.61500	         6.10028e+57
          1957.42130	         5.82048e+57
          1958.22760	         5.88182e+57
          1959.03390	         5.67126e+57
          1959.84020	         6.68565e+57
          1960.64650	         6.95294e+57
          1961.45280	         6.56192e+57
          1962.25910	         7.24953e+57
          1963.06540	         6.27842e+57
          1963.87170	         7.31817e+57
          1964.67800	         7.57073e+57
          1965.48430	         6.34307e+57
          1966.29060	         6.12615e+57
          1967.09690	         7.42113e+57
          1967.90320	         6.82539e+57
          1968.70950	         6.10478e+57
          1969.51580	         6.79107e+57
          1970.32210	         7.94578e+57
          1971.12840	         8.82579e+57
          1971.93470	         5.89179e+57
          1972.74100	         4.32940e+57
          1973.54730	         5.19978e+57
          1974.35360	         6.49998e+57
          1975.15990	         6.90320e+57
          1975.96620	         6.24302e+57
          1976.77250	         7.59349e+57
          1977.57880	         7.61744e+57
          1978.38510	         5.48913e+57
          1979.19140	         6.13801e+57
          1979.99770	         6.94133e+57
          1980.80400	         7.48253e+57
          1981.61030	         7.46495e+57
          1982.41660	         5.95364e+57
          1983.22290	         5.51022e+57
          1984.02920	         5.78666e+57
          1984.83550	         5.71907e+57
          1985.64180	         6.74958e+57
          1986.44810	         6.92999e+57
          1987.25440	         6.15871e+57
          1988.06070	         5.92835e+57
          1988.86700	         6.83268e+57
          1989.67330	         6.99028e+57
          1990.47960	         6.34478e+57
          1991.28590	         6.17737e+57
          1992.09220	         6.64318e+57
          1992.89850	         5.47270e+57
          1993.70480	         5.24164e+57
          1994.51110	         4.63993e+57
          1995.31740	         4.22981e+57
          1996.12370	         4.28068e+57
          1996.93000	         5.33004e+57
          1997.73630	         7.95566e+57
          1998.54260	         8.02002e+57
          1999.34890	         7.02039e+57
          2000.15520	         7.02014e+57
          2000.96150	         6.75353e+57
          2001.76780	         6.52459e+57
          2002.57410	         4.09453e+57
          2003.38040	         5.06411e+57
          2004.18670	         6.17018e+57
          2004.99300	         6.02458e+57
          2005.79930	         6.56707e+57
          2006.60560	         6.39510e+57
          2007.41190	         6.54073e+57
          2008.21820	         6.75658e+57
          2009.02450	         5.64875e+57
          2009.83080	         5.86912e+57
          2010.63710	         6.29026e+57
          2011.44340	         6.04550e+57
          2012.24970	         7.28628e+57
          2013.05600	         6.38847e+57
          2013.86230	         6.27518e+57
          2014.66860	         6.25726e+57
          2015.47490	         5.54927e+57
          2016.28120	         5.34095e+57
          2017.08750	         6.20185e+57
          2017.89380	         6.29809e+57
          2018.70010	         6.51547e+57
          2019.50640	         5.84737e+57
          2020.31270	         6.42009e+57
          2021.11900	         8.03844e+57
          2021.92530	         7.46042e+57
          2022.73160	         7.47091e+57
          2023.53790	         7.51327e+57
          2024.34420	         6.39971e+57
          2025.15050	         5.76451e+57
          2025.95680	         5.56209e+57
          2026.76310	         6.51423e+57
          2027.56940	         6.47348e+57
          2028.37570	         6.43122e+57
          2029.18200	         6.31324e+57
          2029.98830	         6.45008e+57
          2030.79460	         5.34104e+57
          2031.60090	         5.21663e+57
          2032.40720	         5.11541e+57
          2033.21350	         5.06974e+57
          2034.01980	         4.62555e+57
          2034.82610	         3.99492e+57
          2035.63240	         5.54451e+57
          2036.43870	         5.94854e+57
          2037.24500	         5.94437e+57
          2038.05130	         6.29454e+57
          2038.85760	         7.04213e+57
          2039.66390	         6.58464e+57
          2040.47020	         5.11042e+57
          2041.27650	         6.54550e+57
          2042.08280	         6.24262e+57
          2042.88910	         5.95730e+57
          2043.69540	         5.45636e+57
          2044.50170	         6.40285e+57
          2045.30800	         5.62904e+57
          2046.11430	         4.70276e+57
          2046.92060	         5.53038e+57
          2047.72690	         5.78826e+57
          2048.53320	         5.54049e+57
          2049.33950	         5.21523e+57
          2050.14580	         6.25065e+57
          2050.95210	         7.31060e+57
          2051.75840	         7.14646e+57
          2052.56470	         6.25642e+57
          2053.37100	         4.51223e+57
          2054.17730	         5.26709e+57
          2054.98360	         5.86908e+57
          2055.78990	         3.32064e+57
          2056.59620	         2.89062e+57
          2057.40250	         5.28878e+57
          2058.20880	         6.38635e+57
          2059.01510	         5.57306e+57
          2059.82140	         6.12499e+57
          2060.62770	         1.03951e+58
          2061.43400	         1.61702e+58
          2062.24030	         1.03661e+58
          2063.04660	         3.03727e+57
          2063.85290	         3.90841e+56
          2064.65920	        -2.52627e+57
          2065.46550	        -9.12467e+57
          2066.27180	        -7.74029e+57
          2067.07810	         4.02997e+57
          2067.88440	         6.43397e+57
          2068.69070	         6.85785e+57
          2069.49700	         7.14452e+57
          2070.30330	         5.19793e+57
          2071.10960	         6.53974e+57
          2071.91590	         6.54686e+57
          2072.72220	         4.64825e+57
          2073.52850	         4.88229e+57
          2074.33480	         4.82271e+57
          2075.14110	         5.29721e+57
          2075.94740	         5.22830e+57
          2076.75370	         4.22053e+57
          2077.56000	         4.52986e+57
          2078.36630	         5.18723e+57
          2079.17260	         5.51269e+57
          2079.97890	         6.11069e+57
          2080.78520	         6.04146e+57
          2081.59150	         4.91688e+57
          2082.39780	         4.54838e+57
          2083.20410	         3.02656e+57
          2084.01040	         2.38576e+57
          2084.81670	         4.52968e+57
          2085.62300	         4.49054e+57
          2086.42930	         4.11436e+57
          2087.23560	         3.71706e+57
          2088.04190	         3.71056e+57
          2088.84820	         4.73722e+57
          2089.65450	         3.20012e+57
          2090.46080	         2.30786e+57
          2091.26710	         1.25436e+57
          2092.07340	         1.77143e+57
          2092.87970	         3.41875e+57
          2093.68600	         6.78386e+56
          2094.49230	        -8.38989e+56
          2095.29860	         2.70084e+57
          2096.10490	         4.54532e+57
          2096.91120	         1.27910e+57
          2097.71750	        -2.30022e+57
          2098.52380	        -6.47971e+56
          2099.33010	         2.22725e+56
          2100.13640	         7.51377e+56
          2100.94270	         1.61943e+57
          2101.74900	         4.43233e+57
          2102.55530	         2.77902e+57
          2103.36160	         2.00685e+57
          2104.16790	         3.79086e+57
          2104.97420	         3.78721e+57
          2105.78050	         1.33902e+57
          2106.58680	         1.32757e+57
          2107.39310	         3.65355e+56
          2108.19940	         3.11010e+57
          2109.00570	         1.68530e+57
          2109.81200	        -1.00312e+57
          2110.61830	         8.24547e+56
          2111.42460	        -7.35050e+56
          2112.23090	         2.63088e+57
          2113.03720	         8.61605e+56
          2113.84350	         1.73752e+57
          2114.64980	         4.59825e+57
          2115.45610	        -2.35018e+57
          2116.26240	        -6.84342e+57
          2117.06870	        -2.17291e+57
          2117.87500	        -5.99402e+57
          2118.68130	        -2.60815e+57
          2119.48760	         4.37941e+57
          2120.29390	        -1.02936e+57
          2121.10020	        -1.50762e+57
          2121.90650	        -1.89661e+57
          2122.71280	         2.45616e+57
          2123.51910	         5.33062e+57
          2124.32540	         2.62278e+57
          2125.13170	        -1.33959e+57
          2125.93800	        -1.97680e+57
          2126.74430	         2.19313e+56
          2127.55060	        -6.63615e+57
          2128.35690	        -1.40031e+57
          2129.16320	        -1.80225e+57
          2129.96950	        -1.60552e+57
          2130.77580	         3.82031e+57
          2131.58210	         7.32677e+57
          2132.38840	        -1.73509e+57
          2133.19470	        -5.06284e+57
          2134.00100	         1.81061e+57
          2134.80730	        -4.51261e+57
          2135.61360	         6.16858e+57
          2136.41990	         1.28207e+57
          2137.22620	         1.86018e+57
          2138.03250	         3.06792e+57
          2138.83880	        -8.63928e+55
          2139.64510	         1.02277e+57
          2140.45140	         1.17812e+57
          2141.25770	        -1.19728e+58
          2142.06400	        -1.29824e+58
          2142.87030	        -3.33875e+57
          2143.67660	         5.86496e+57
          2144.48290	         1.22790e+58
          2145.28920	         1.53777e+58
          2146.09550	        -7.19980e+57
          2146.90180	        -9.37315e+57
          2147.70810	        -2.77836e+57
          2148.51440	        -4.59570e+57
          2149.32070	        -2.18546e+57
          2150.12700	        -1.20777e+58
          2150.93330	        -6.04817e+57
          2151.73960	         8.17020e+57
          2152.54590	         4.62945e+57
          2153.35220	        -3.23102e+57
          2154.15850	        -3.74330e+57
          2154.96480	         2.44813e+57
          2155.77110	         2.09810e+56
          2156.57740	        -4.42784e+57
          2157.38370	         1.76612e+57
          2158.19000	        -3.02685e+57
          2158.99630	        -6.92201e+57
          2159.80260	        -1.74201e+58
          2160.60890	        -1.07861e+58
          2161.41520	        -7.93433e+57
          2162.22150	        -6.58775e+57
          2163.02780	        -4.26916e+56
          2163.83410	        -8.06115e+57
          2164.64040	        -8.59960e+57
          2165.44670	        -2.00630e+58
          2166.25300	        -9.48039e+57
          2167.05930	         2.22952e+57
          2167.86560	        -1.37866e+58
          2168.67190	        -1.55968e+58
          2169.47820	        -1.23070e+58
          2170.28450	        -2.26664e+57
          2171.09080	         2.28178e+57
          2171.89710	        -2.14569e+57
          2172.70340	         1.26157e+57
          2173.50970	        -1.11383e+58
          2174.31600	        -1.03558e+58
          2175.12230	        -4.53326e+57
          2175.92860	        -3.54638e+57
          2176.73490	        -5.05744e+57
          2177.54120	        -7.79754e+57
          2178.34750	        -5.10671e+57
          2179.15380	                 nan
          2179.96010	                 nan
          2180.76640	                 nan
          2181.57270	                 nan
          2182.37900	                 nan
          2183.18530	                 nan
          2183.99160	                 nan
          2184.79790	                 nan
          2185.60420	                 nan
          2186.41050	                 nan
          2187.21680	                 nan
          2188.02310	                 nan
          2188.82940	                 nan
          2189.63570	                 nan
          2190.44200	                 nan
          2191.24830	                 nan
          2192.05460	                 nan
          2192.86090	                 nan
          2193.66720	                 nan
          2194.47350	                 nan
          2195.27980	                 nan
          2196.08610	                 nan
          2196.89240	                 nan
          2197.69870	                 nan
          2198.50500	                 nan
          2199.31130	                 nan
          2200.11760	                 nan
          2200.92390	                 nan
          2201.73020	                 nan
          2202.53650	                 nan
          2203.34280	                 nan
          2204.14910	                 nan
          2204.95540	                 nan
          2205.76170	                 nan
          2206.56800	                 nan
          2207.37430	                 nan
          2208.18060	                 nan
          2208.98690	                 nan
          2209.79320	                 nan
          2210.59950	                 nan
          2211.40580	                 nan
          2212.21210	                 nan
          2213.01840	                 nan
          2213.82470	                 nan
          2214.63100	                 nan
          2215.43730	         0.00000e+00
