#sample_422_stacked_spectrum_rest_UV-bands_median_H-alpha_noDC.txt
#median Lum: 1.68433e+42
#Rest-frame wavelength (A) | Luminosity (erg/s/A)
#
          1110.00000	         0.00000e+00
          1110.80630	        -2.92502e+59
          1111.61260	        -2.57779e+59
          1112.41890	        -4.63968e+58
          1113.22520	         2.50150e+58
          1114.03150	        -3.69742e+58
          1114.83780	         2.44434e+59
          1115.64410	         2.33201e+59
          1116.45040	         2.77653e+59
          1117.25670	         5.84978e+58
          1118.06300	         1.30832e+59
          1118.86930	        -1.04643e+59
          1119.67560	         7.13495e+58
          1120.48190	        -2.54244e+58
          1121.28820	        -6.82531e+58
          1122.09450	        -7.41264e+58
          1122.90080	         5.63823e+57
          1123.70710	         1.05220e+59
          1124.51340	         1.42191e+59
          1125.31970	         9.52216e+57
          1126.12600	         5.46918e+58
          1126.93230	        -4.93904e+58
          1127.73860	         3.48989e+57
          1128.54490	         3.13571e+58
          1129.35120	         2.52941e+58
          1130.15750	        -4.14565e+58
          1130.96380	        -8.19467e+58
          1131.77010	        -7.29746e+57
          1132.57640	         4.55904e+58
          1133.38270	         3.15544e+58
          1134.18900	         1.27100e+58
          1134.99530	         3.16438e+58
          1135.80160	         3.14482e+58
          1136.60790	         1.79725e+58
          1137.41420	        -9.03611e+57
          1138.22050	         4.98992e+58
          1139.02680	         4.53969e+58
          1139.83310	         2.55336e+58
          1140.63940	         3.32674e+58
          1141.44570	        -2.58377e+57
          1142.25200	         2.60175e+56
          1143.05830	         2.01848e+58
          1143.86460	         1.79254e+58
          1144.67090	         9.93832e+57
          1145.47720	         1.21063e+58
          1146.28350	         1.71805e+58
          1147.08980	         1.68345e+58
          1147.89610	         1.34030e+58
          1148.70240	         2.13573e+58
          1149.50870	         2.60532e+58
          1150.31500	         5.42065e+57
          1151.12130	         9.46464e+57
          1151.92760	         9.41520e+57
          1152.73390	         6.54575e+57
          1153.54020	         9.93164e+57
          1154.34650	         2.25101e+58
          1155.15280	         2.52871e+58
          1155.95910	         3.77997e+57
          1156.76540	         1.10211e+58
          1157.57170	        -4.33824e+57
          1158.37800	        -9.12056e+56
          1159.18430	        -3.71325e+57
          1159.99060	         4.93869e+57
          1160.79690	         7.13332e+57
          1161.60320	         1.66246e+58
          1162.40950	         1.97208e+58
          1163.21580	         1.93814e+58
          1164.02210	         1.16909e+58
          1164.82840	         9.85160e+57
          1165.63470	         1.80186e+58
          1166.44100	         3.04612e+58
          1167.24730	         2.66617e+58
          1168.05360	         1.63897e+58
          1168.85990	         9.36593e+57
          1169.66620	         1.74195e+58
          1170.47250	         1.02308e+58
          1171.27880	         5.29754e+57
          1172.08510	         1.27406e+58
          1172.89140	         8.81442e+57
          1173.69770	         6.83709e+57
          1174.50400	         1.01819e+58
          1175.31030	         1.53597e+58
          1176.11660	         1.40969e+58
          1176.92290	         1.30185e+58
          1177.72920	         1.05428e+58
          1178.53550	         5.34567e+57
          1179.34180	        -2.80694e+57
          1180.14810	         8.00399e+57
          1180.95440	         1.29811e+58
          1181.76070	         1.22433e+58
          1182.56700	         1.17615e+58
          1183.37330	         1.00427e+58
          1184.17960	         1.09072e+58
          1184.98590	         8.63939e+57
          1185.79220	         4.25671e+57
          1186.59850	         7.10378e+57
          1187.40480	         8.24616e+57
          1188.21110	         1.30103e+58
          1189.01740	         1.32656e+58
          1189.82370	         1.16504e+58
          1190.63000	         9.45195e+57
          1191.43630	         1.33285e+58
          1192.24260	         1.41112e+58
          1193.04890	         1.36972e+58
          1193.85520	         1.22014e+58
          1194.66150	         6.43735e+57
          1195.46780	         9.57568e+57
          1196.27410	         1.32944e+58
          1197.08040	         8.81592e+57
          1197.88670	         1.14211e+58
          1198.69300	         1.19974e+58
          1199.49930	         1.29709e+58
          1200.30560	         1.33647e+58
          1201.11190	         1.35279e+58
          1201.91820	         1.25756e+58
          1202.72450	         9.88338e+57
          1203.53080	         9.54343e+57
          1204.33710	         5.68085e+57
          1205.14340	         4.01121e+57
          1205.94970	         3.61579e+57
          1206.75600	         6.76291e+57
          1207.56230	         7.73893e+57
          1208.36860	         1.11578e+58
          1209.17490	         7.35355e+57
          1209.98120	         7.22661e+57
          1210.78750	         7.45157e+57
          1211.59380	         1.08855e+58
          1212.40010	         1.98240e+58
          1213.20640	         2.02254e+58
          1214.01270	         1.99128e+58
          1214.81900	         2.81289e+58
          1215.62530	         4.71386e+58
          1216.43160	         9.08793e+58
          1217.23790	         1.52463e+59
          1218.04420	         1.16357e+59
          1218.85050	         8.24959e+58
          1219.65680	         5.31794e+58
          1220.46310	         3.54470e+58
          1221.26940	         2.32167e+58
          1222.07570	         1.77300e+58
          1222.88200	         1.54334e+58
          1223.68830	         9.13537e+57
          1224.49460	         7.00175e+57
          1225.30090	         6.48814e+57
          1226.10720	         5.18479e+57
          1226.91350	         8.49667e+57
          1227.71980	         9.44337e+57
          1228.52610	         1.30865e+58
          1229.33240	         8.42127e+57
          1230.13870	         8.31717e+57
          1230.94500	         1.21764e+58
          1231.75130	         9.72139e+57
          1232.55760	         1.10781e+58
          1233.36390	         9.17609e+57
          1234.17020	         8.01836e+57
          1234.97650	         8.13020e+57
          1235.78280	         5.53285e+57
          1236.58910	         5.59247e+57
          1237.39540	         8.61503e+57
          1238.20170	         1.09945e+58
          1239.00800	         1.51418e+58
          1239.81430	         1.62643e+58
          1240.62060	         1.04218e+58
          1241.42690	         7.86978e+57
          1242.23320	         9.70099e+57
          1243.03950	         8.18579e+57
          1243.84580	         6.83351e+57
          1244.65210	         8.54042e+57
          1245.45840	         1.07834e+58
          1246.26470	         1.09413e+58
          1247.07100	         6.98542e+57
          1247.87730	         4.95435e+57
          1248.68360	         4.00316e+57
          1249.48990	         8.56862e+57
          1250.29620	         1.01251e+58
          1251.10250	         1.03251e+58
          1251.90880	         5.80867e+57
          1252.71510	         5.61119e+57
          1253.52140	         8.80011e+57
          1254.32770	         1.09747e+58
          1255.13400	         1.21555e+58
          1255.94030	         1.32906e+58
          1256.74660	         9.77097e+57
          1257.55290	         9.86665e+57
          1258.35920	         1.05768e+58
          1259.16550	         6.39003e+57
          1259.97180	         5.61114e+57
          1260.77810	         8.84876e+57
          1261.58440	         9.99133e+57
          1262.39070	         8.39897e+57
          1263.19700	         8.62913e+57
          1264.00330	         7.88884e+57
          1264.80960	         9.09973e+57
          1265.61590	         1.36552e+58
          1266.42220	         1.44916e+58
          1267.22850	         1.17602e+58
          1268.03480	         1.46037e+58
          1268.84110	         1.48434e+58
          1269.64740	         1.06206e+58
          1270.45370	         1.11158e+58
          1271.26000	         1.13984e+58
          1272.06630	         1.31865e+58
          1272.87260	         1.36624e+58
          1273.67890	         1.07411e+58
          1274.48520	         1.00276e+58
          1275.29150	         9.87365e+57
          1276.09780	         1.00676e+58
          1276.90410	         1.51722e+58
          1277.71040	         1.39794e+58
          1278.51670	         1.27481e+58
          1279.32300	         1.50094e+58
          1280.12930	         1.35992e+58
          1280.93560	         1.26691e+58
          1281.74190	         1.32824e+58
          1282.54820	         1.12839e+58
          1283.35450	         1.03462e+58
          1284.16080	         1.13138e+58
          1284.96710	         1.24028e+58
          1285.77340	         1.33914e+58
          1286.57970	         1.35662e+58
          1287.38600	         1.41287e+58
          1288.19230	         1.69687e+58
          1288.99860	         1.56379e+58
          1289.80490	         1.23083e+58
          1290.61120	         1.34331e+58
          1291.41750	         1.44700e+58
          1292.22380	         1.21004e+58
          1293.03010	         1.16183e+58
          1293.83640	         1.30015e+58
          1294.64270	         1.05755e+58
          1295.44900	         6.74521e+57
          1296.25530	         5.30906e+57
          1297.06160	         7.72167e+57
          1297.86790	         9.54869e+57
          1298.67420	         8.26616e+57
          1299.48050	         8.95140e+57
          1300.28680	         1.06636e+58
          1301.09310	         8.05379e+57
          1301.89940	         3.74874e+57
          1302.70570	         6.16176e+57
          1303.51200	         8.42822e+57
          1304.31830	         1.02180e+58
          1305.12460	         1.01908e+58
          1305.93090	         1.14359e+58
          1306.73720	         1.28924e+58
          1307.54350	         1.45555e+58
          1308.34980	         1.56940e+58
          1309.15610	         1.60179e+58
          1309.96240	         1.52406e+58
          1310.76870	         1.18716e+58
          1311.57500	         1.07584e+58
          1312.38130	         1.07202e+58
          1313.18760	         1.29392e+58
          1313.99390	         1.49004e+58
          1314.80020	         1.60361e+58
          1315.60650	         1.57652e+58
          1316.41280	         1.39885e+58
          1317.21910	         1.11230e+58
          1318.02540	         1.06638e+58
          1318.83170	         1.29857e+58
          1319.63800	         1.30612e+58
          1320.44430	         1.10513e+58
          1321.25060	         1.12038e+58
          1322.05690	         1.24586e+58
          1322.86320	         1.18412e+58
          1323.66950	         1.03322e+58
          1324.47580	         7.84450e+57
          1325.28210	         9.28052e+57
          1326.08840	         1.17131e+58
          1326.89470	         1.09766e+58
          1327.70100	         9.93585e+57
          1328.50730	         7.78233e+57
          1329.31360	         7.81696e+57
          1330.11990	         9.37813e+57
          1330.92620	         8.16185e+57
          1331.73250	         8.41159e+57
          1332.53880	         8.94212e+57
          1333.34510	         9.70805e+57
          1334.15140	         8.49110e+57
          1334.95770	         9.24985e+57
          1335.76400	         1.23204e+58
          1336.57030	         1.21731e+58
          1337.37660	         1.16548e+58
          1338.18290	         1.21194e+58
          1338.98920	         1.23489e+58
          1339.79550	         1.13707e+58
          1340.60180	         1.30229e+58
          1341.40810	         1.48852e+58
          1342.21440	         1.34952e+58
          1343.02070	         1.37928e+58
          1343.82700	         1.19442e+58
          1344.63330	         1.10873e+58
          1345.43960	         1.23133e+58
          1346.24590	         1.07261e+58
          1347.05220	         1.11354e+58
          1347.85850	         9.23513e+57
          1348.66480	         1.17898e+58
          1349.47110	         1.30135e+58
          1350.27740	         1.32746e+58
          1351.08370	         1.18793e+58
          1351.89000	         1.10429e+58
          1352.69630	         1.10039e+58
          1353.50260	         9.90427e+57
          1354.30890	         1.18680e+58
          1355.11520	         1.34282e+58
          1355.92150	         1.06034e+58
          1356.72780	         8.92268e+57
          1357.53410	         1.09656e+58
          1358.34040	         1.14851e+58
          1359.14670	         1.10611e+58
          1359.95300	         1.08422e+58
          1360.75930	         1.13618e+58
          1361.56560	         1.15132e+58
          1362.37190	         1.10399e+58
          1363.17820	         1.20716e+58
          1363.98450	         1.43398e+58
          1364.79080	         1.48780e+58
          1365.59710	         1.43922e+58
          1366.40340	         1.09679e+58
          1367.20970	         9.68274e+57
          1368.01600	         9.28234e+57
          1368.82230	         8.22089e+57
          1369.62860	         1.05674e+58
          1370.43490	         9.34037e+57
          1371.24120	         9.38374e+57
          1372.04750	         1.07726e+58
          1372.85380	         1.17775e+58
          1373.66010	         1.15079e+58
          1374.46640	         1.06727e+58
          1375.27270	         1.04910e+58
          1376.07900	         9.06190e+57
          1376.88530	         8.39421e+57
          1377.69160	         8.76376e+57
          1378.49790	         7.68669e+57
          1379.30420	         7.81345e+57
          1380.11050	         7.58246e+57
          1380.91680	         7.17669e+57
          1381.72310	         7.57084e+57
          1382.52940	         8.56928e+57
          1383.33570	         9.60179e+57
          1384.14200	         8.79592e+57
          1384.94830	         9.23084e+57
          1385.75460	         1.20982e+58
          1386.56090	         1.23462e+58
          1387.36720	         1.02378e+58
          1388.17350	         1.24121e+58
          1388.97980	         1.16229e+58
          1389.78610	         9.26233e+57
          1390.59240	         7.85526e+57
          1391.39870	         7.24664e+57
          1392.20500	         8.13227e+57
          1393.01130	         8.29126e+57
          1393.81760	         7.76305e+57
          1394.62390	         8.08005e+57
          1395.43020	         7.66777e+57
          1396.23650	         6.90642e+57
          1397.04280	         7.75481e+57
          1397.84910	         9.06051e+57
          1398.65540	         9.38601e+57
          1399.46170	         1.08361e+58
          1400.26800	         8.49537e+57
          1401.07430	         6.46422e+57
          1401.88060	         7.95327e+57
          1402.68690	         8.34040e+57
          1403.49320	         8.37695e+57
          1404.29950	         9.36438e+57
          1405.10580	         1.05894e+58
          1405.91210	         1.16649e+58
          1406.71840	         1.21067e+58
          1407.52470	         1.19923e+58
          1408.33100	         1.07497e+58
          1409.13730	         1.10441e+58
          1409.94360	         1.16573e+58
          1410.74990	         1.05909e+58
          1411.55620	         9.13893e+57
          1412.36250	         9.72006e+57
          1413.16880	         9.74037e+57
          1413.97510	         9.33440e+57
          1414.78140	         9.33778e+57
          1415.58770	         1.00115e+58
          1416.39400	         1.02790e+58
          1417.20030	         1.15149e+58
          1418.00660	         1.08176e+58
          1418.81290	         9.97025e+57
          1419.61920	         9.78131e+57
          1420.42550	         1.22305e+58
          1421.23180	         1.34393e+58
          1422.03810	         1.13617e+58
          1422.84440	         1.17038e+58
          1423.65070	         1.36964e+58
          1424.45700	         1.17040e+58
          1425.26330	         1.00083e+58
          1426.06960	         1.00794e+58
          1426.87590	         1.06357e+58
          1427.68220	         9.74314e+57
          1428.48850	         1.04013e+58
          1429.29480	         1.12272e+58
          1430.10110	         1.16828e+58
          1430.90740	         9.99550e+57
          1431.71370	         9.57242e+57
          1432.52000	         9.02964e+57
          1433.32630	         6.99372e+57
          1434.13260	         7.03732e+57
          1434.93890	         8.22206e+57
          1435.74520	         8.96098e+57
          1436.55150	         1.03022e+58
          1437.35780	         9.98239e+57
          1438.16410	         8.89775e+57
          1438.97040	         9.15936e+57
          1439.77670	         9.37602e+57
          1440.58300	         9.27639e+57
          1441.38930	         9.67211e+57
          1442.19560	         9.77150e+57
          1443.00190	         9.64354e+57
          1443.80820	         1.06565e+58
          1444.61450	         9.40518e+57
          1445.42080	         7.96906e+57
          1446.22710	         9.78082e+57
          1447.03340	         9.65961e+57
          1447.83970	         1.05138e+58
          1448.64600	         1.06121e+58
          1449.45230	         9.94611e+57
          1450.25860	         9.89293e+57
          1451.06490	         9.65410e+57
          1451.87120	         8.39128e+57
          1452.67750	         8.15996e+57
          1453.48380	         8.04654e+57
          1454.29010	         7.58844e+57
          1455.09640	         8.12542e+57
          1455.90270	         8.68994e+57
          1456.70900	         8.48777e+57
          1457.51530	         9.77750e+57
          1458.32160	         1.16934e+58
          1459.12790	         1.12207e+58
          1459.93420	         9.47253e+57
          1460.74050	         8.25898e+57
          1461.54680	         9.08032e+57
          1462.35310	         8.93996e+57
          1463.15940	         1.03661e+58
          1463.96570	         1.07431e+58
          1464.77200	         1.09268e+58
          1465.57830	         1.10981e+58
          1466.38460	         1.04325e+58
          1467.19090	         9.28441e+57
          1467.99720	         9.07149e+57
          1468.80350	         1.04295e+58
          1469.60980	         1.13695e+58
          1470.41610	         1.09363e+58
          1471.22240	         9.24360e+57
          1472.02870	         9.47469e+57
          1472.83500	         1.06744e+58
          1473.64130	         9.58490e+57
          1474.44760	         9.97004e+57
          1475.25390	         1.00592e+58
          1476.06020	         9.37716e+57
          1476.86650	         9.15714e+57
          1477.67280	         8.02710e+57
          1478.47910	         7.94615e+57
          1479.28540	         7.67549e+57
          1480.09170	         8.37312e+57
          1480.89800	         8.87658e+57
          1481.70430	         8.36013e+57
          1482.51060	         8.63001e+57
          1483.31690	         8.68773e+57
          1484.12320	         8.66394e+57
          1484.92950	         7.78723e+57
          1485.73580	         7.98291e+57
          1486.54210	         9.27457e+57
          1487.34840	         9.53049e+57
          1488.15470	         8.49530e+57
          1488.96100	         8.13674e+57
          1489.76730	         9.64417e+57
          1490.57360	         8.67302e+57
          1491.37990	         6.82661e+57
          1492.18620	         7.51619e+57
          1492.99250	         7.67360e+57
          1493.79880	         8.89593e+57
          1494.60510	         8.28822e+57
          1495.41140	         6.54097e+57
          1496.21770	         8.53302e+57
          1497.02400	         1.03955e+58
          1497.83030	         9.16586e+57
          1498.63660	         7.85720e+57
          1499.44290	         7.51355e+57
          1500.24920	         7.85611e+57
          1501.05550	         7.31183e+57
          1501.86180	         7.57047e+57
          1502.66810	         9.43734e+57
          1503.47440	         1.01623e+58
          1504.28070	         9.86706e+57
          1505.08700	         9.74656e+57
          1505.89330	         9.06356e+57
          1506.69960	         8.64437e+57
          1507.50590	         8.72498e+57
          1508.31220	         8.00316e+57
          1509.11850	         8.68908e+57
          1509.92480	         9.83355e+57
          1510.73110	         9.43176e+57
          1511.53740	         7.32986e+57
          1512.34370	         7.34265e+57
          1513.15000	         9.21949e+57
          1513.95630	         1.04296e+58
          1514.76260	         9.44064e+57
          1515.56890	         8.46043e+57
          1516.37520	         8.38341e+57
          1517.18150	         8.73916e+57
          1517.98780	         8.33751e+57
          1518.79410	         7.00362e+57
          1519.60040	         7.76720e+57
          1520.40670	         9.40556e+57
          1521.21300	         9.40327e+57
          1522.01930	         8.36275e+57
          1522.82560	         9.78141e+57
          1523.63190	         1.06475e+58
          1524.43820	         7.86979e+57
          1525.24450	         5.28615e+57
          1526.05080	         5.34674e+57
          1526.85710	         6.64486e+57
          1527.66340	         7.48737e+57
          1528.46970	         8.55735e+57
          1529.27600	         8.54461e+57
          1530.08230	         7.88560e+57
          1530.88860	         8.29806e+57
          1531.69490	         8.41040e+57
          1532.50120	         9.21989e+57
          1533.30750	         1.00924e+58
          1534.11380	         1.01318e+58
          1534.92010	         9.12032e+57
          1535.72640	         9.70679e+57
          1536.53270	         1.01995e+58
          1537.33900	         9.23259e+57
          1538.14530	         8.74580e+57
          1538.95160	         9.15896e+57
          1539.75790	         9.13832e+57
          1540.56420	         8.05735e+57
          1541.37050	         8.05763e+57
          1542.17680	         8.30431e+57
          1542.98310	         8.14532e+57
          1543.78940	         8.09955e+57
          1544.59570	         7.20575e+57
          1545.40200	         8.22024e+57
          1546.20830	         9.92466e+57
          1547.01460	         1.14546e+58
          1547.82090	         1.14215e+58
          1548.62720	         1.19702e+58
          1549.43350	         1.18751e+58
          1550.23980	         1.16596e+58
          1551.04610	         1.24582e+58
          1551.85240	         1.25876e+58
          1552.65870	         1.15574e+58
          1553.46500	         9.98095e+57
          1554.27130	         8.91502e+57
          1555.07760	         9.35629e+57
          1555.88390	         9.08196e+57
          1556.69020	         9.06881e+57
          1557.49650	         9.48032e+57
          1558.30280	         8.78826e+57
          1559.10910	         9.45018e+57
          1559.91540	         9.40109e+57
          1560.72170	         8.94339e+57
          1561.52800	         8.93397e+57
          1562.33430	         8.70217e+57
          1563.14060	         7.84129e+57
          1563.94690	         7.81186e+57
          1564.75320	         8.28765e+57
          1565.55950	         7.31884e+57
          1566.36580	         7.11657e+57
          1567.17210	         8.53667e+57
          1567.97840	         9.36217e+57
          1568.78470	         8.96018e+57
          1569.59100	         9.43318e+57
          1570.39730	         9.11528e+57
          1571.20360	         8.32574e+57
          1572.00990	         8.03603e+57
          1572.81620	         8.29953e+57
          1573.62250	         1.00930e+58
          1574.42880	         9.60038e+57
          1575.23510	         7.03476e+57
          1576.04140	         8.21794e+57
          1576.84770	         8.64478e+57
          1577.65400	         8.24970e+57
          1578.46030	         9.50550e+57
          1579.26660	         9.95777e+57
          1580.07290	         9.53136e+57
          1580.87920	         7.62679e+57
          1581.68550	         7.52722e+57
          1582.49180	         8.43087e+57
          1583.29810	         7.35927e+57
          1584.10440	         7.15778e+57
          1584.91070	         7.48269e+57
          1585.71700	         8.81001e+57
          1586.52330	         9.61869e+57
          1587.32960	         9.05544e+57
          1588.13590	         8.80797e+57
          1588.94220	         8.60023e+57
          1589.74850	         8.30639e+57
          1590.55480	         9.13103e+57
          1591.36110	         8.74234e+57
          1592.16740	         8.62419e+57
          1592.97370	         7.59995e+57
          1593.78000	         8.34852e+57
          1594.58630	         8.80578e+57
          1595.39260	         8.71463e+57
          1596.19890	         9.58237e+57
          1597.00520	         9.37099e+57
          1597.81150	         8.31922e+57
          1598.61780	         7.32108e+57
          1599.42410	         6.50297e+57
          1600.23040	         6.22675e+57
          1601.03670	         7.51933e+57
          1601.84300	         7.21401e+57
          1602.64930	         7.59350e+57
          1603.45560	         8.61532e+57
          1604.26190	         9.23977e+57
          1605.06820	         8.17392e+57
          1605.87450	         7.07429e+57
          1606.68080	         7.34562e+57
          1607.48710	         5.64983e+57
          1608.29340	         5.07547e+57
          1609.09970	         6.49618e+57
          1609.90600	         7.78343e+57
          1610.71230	         6.70162e+57
          1611.51860	         6.73344e+57
          1612.32490	         6.87847e+57
          1613.13120	         7.43717e+57
          1613.93750	         7.35017e+57
          1614.74380	         7.56384e+57
          1615.55010	         8.79295e+57
          1616.35640	         9.36076e+57
          1617.16270	         1.00244e+58
          1617.96900	         1.03135e+58
          1618.77530	         9.08116e+57
          1619.58160	         8.59996e+57
          1620.38790	         8.17931e+57
          1621.19420	         8.61826e+57
          1622.00050	         8.05960e+57
          1622.80680	         8.48767e+57
          1623.61310	         7.59345e+57
          1624.41940	         7.26908e+57
          1625.22570	         9.17812e+57
          1626.03200	         8.84108e+57
          1626.83830	         8.56383e+57
          1627.64460	         7.80354e+57
          1628.45090	         6.44079e+57
          1629.25720	         8.72512e+57
          1630.06350	         9.57008e+57
          1630.86980	         6.76310e+57
          1631.67610	         7.61274e+57
          1632.48240	         8.81002e+57
          1633.28870	         8.60966e+57
          1634.09500	         9.40744e+57
          1634.90130	         1.17345e+58
          1635.70760	         9.62414e+57
          1636.51390	         7.62691e+57
          1637.32020	         8.26990e+57
          1638.12650	         9.69146e+57
          1638.93280	         8.85698e+57
          1639.73910	         1.01373e+58
          1640.54540	         1.02349e+58
          1641.35170	         8.59964e+57
          1642.15800	         9.12489e+57
          1642.96430	         8.81488e+57
          1643.77060	         8.60731e+57
          1644.57690	         8.19504e+57
          1645.38320	         8.02443e+57
          1646.18950	         7.75504e+57
          1646.99580	         8.40725e+57
          1647.80210	         8.88608e+57
          1648.60840	         8.50879e+57
          1649.41470	         8.13930e+57
          1650.22100	         6.32523e+57
          1651.02730	         6.89263e+57
          1651.83360	         7.37992e+57
          1652.63990	         7.94312e+57
          1653.44620	         8.29919e+57
          1654.25250	         8.86310e+57
          1655.05880	         7.91730e+57
          1655.86510	         7.89446e+57
          1656.67140	         8.47937e+57
          1657.47770	         8.40671e+57
          1658.28400	         8.81707e+57
          1659.09030	         9.53169e+57
          1659.89660	         1.00329e+58
          1660.70290	         1.03854e+58
          1661.50920	         9.97084e+57
          1662.31550	         8.42260e+57
          1663.12180	         9.14297e+57
          1663.92810	         9.85300e+57
          1664.73440	         1.12186e+58
          1665.54070	         1.26407e+58
          1666.34700	         1.21431e+58
          1667.15330	         1.09077e+58
          1667.95960	         9.41050e+57
          1668.76590	         7.73465e+57
          1669.57220	         6.53177e+57
          1670.37850	         6.67085e+57
          1671.18480	         7.48187e+57
          1671.99110	         7.79598e+57
          1672.79740	         7.16693e+57
          1673.60370	         6.54695e+57
          1674.41000	         7.71542e+57
          1675.21630	         8.58108e+57
          1676.02260	         7.39144e+57
          1676.82890	         6.19355e+57
          1677.63520	         6.66995e+57
          1678.44150	         7.14057e+57
          1679.24780	         9.17279e+57
          1680.05410	         8.09816e+57
          1680.86040	         5.76663e+57
          1681.66670	         6.92530e+57
          1682.47300	         8.18718e+57
          1683.27930	         8.51143e+57
          1684.08560	         8.90472e+57
          1684.89190	         8.12557e+57
          1685.69820	         6.12623e+57
          1686.50450	         5.61816e+57
          1687.31080	         5.86464e+57
          1688.11710	         7.47185e+57
          1688.92340	         7.71948e+57
          1689.72970	         7.05681e+57
          1690.53600	         7.42396e+57
          1691.34230	         7.83593e+57
          1692.14860	         8.49438e+57
          1692.95490	         7.57115e+57
          1693.76120	         7.08327e+57
          1694.56750	         7.19119e+57
          1695.37380	         9.48870e+57
          1696.18010	         9.82105e+57
          1696.98640	         8.79052e+57
          1697.79270	         9.05232e+57
          1698.59900	         8.75158e+57
          1699.40530	         7.63044e+57
          1700.21160	         6.92963e+57
          1701.01790	         8.53144e+57
          1701.82420	         7.43411e+57
          1702.63050	         7.95321e+57
          1703.43680	         8.55150e+57
          1704.24310	         8.52428e+57
          1705.04940	         8.39239e+57
          1705.85570	         8.34733e+57
          1706.66200	         8.75343e+57
          1707.46830	         7.63362e+57
          1708.27460	         7.23600e+57
          1709.08090	         5.61899e+57
          1709.88720	         5.24679e+57
          1710.69350	         5.90663e+57
          1711.49980	         6.25785e+57
          1712.30610	         6.90955e+57
          1713.11240	         9.40226e+57
          1713.91870	         8.44994e+57
          1714.72500	         7.91796e+57
          1715.53130	         7.68726e+57
          1716.33760	         5.99189e+57
          1717.14390	         6.70271e+57
          1717.95020	         8.00605e+57
          1718.75650	         8.44879e+57
          1719.56280	         8.35303e+57
          1720.36910	         7.03285e+57
          1721.17540	         7.19078e+57
          1721.98170	         6.59973e+57
          1722.78800	         5.61113e+57
          1723.59430	         6.68839e+57
          1724.40060	         8.35380e+57
          1725.20690	         8.57675e+57
          1726.01320	         7.36754e+57
          1726.81950	         6.75422e+57
          1727.62580	         8.09066e+57
          1728.43210	         7.56289e+57
          1729.23840	         7.74320e+57
          1730.04470	         8.75930e+57
          1730.85100	         8.74019e+57
          1731.65730	         7.48137e+57
          1732.46360	         7.39156e+57
          1733.26990	         7.17238e+57
          1734.07620	         6.53526e+57
          1734.88250	         6.96967e+57
          1735.68880	         7.34482e+57
          1736.49510	         7.91454e+57
          1737.30140	         8.11171e+57
          1738.10770	         7.20712e+57
          1738.91400	         7.20279e+57
          1739.72030	         7.05343e+57
          1740.52660	         5.53409e+57
          1741.33290	         6.00455e+57
          1742.13920	         6.71250e+57
          1742.94550	         7.30934e+57
          1743.75180	         7.60644e+57
          1744.55810	         8.03168e+57
          1745.36440	         8.15486e+57
          1746.17070	         6.32520e+57
          1746.97700	         5.63777e+57
          1747.78330	         7.05536e+57
          1748.58960	         6.50240e+57
          1749.39590	         6.46506e+57
          1750.20220	         6.98001e+57
          1751.00850	         5.98701e+57
          1751.81480	         5.19360e+57
          1752.62110	         6.80737e+57
          1753.42740	         8.06962e+57
          1754.23370	         7.03309e+57
          1755.04000	         7.38978e+57
          1755.84630	         9.23703e+57
          1756.65260	         9.20689e+57
          1757.45890	         8.78524e+57
          1758.26520	         7.87578e+57
          1759.07150	         9.23425e+57
          1759.87780	         8.74171e+57
          1760.68410	         8.62017e+57
          1761.49040	         8.18825e+57
          1762.29670	         6.65753e+57
          1763.10300	         7.97942e+57
          1763.90930	         7.85733e+57
          1764.71560	         7.89866e+57
          1765.52190	         7.85344e+57
          1766.32820	         8.54310e+57
          1767.13450	         7.79141e+57
          1767.94080	         6.57079e+57
          1768.74710	         6.58636e+57
          1769.55340	         7.65750e+57
          1770.35970	         6.96660e+57
          1771.16600	         7.39553e+57
          1771.97230	         8.22502e+57
          1772.77860	         8.28690e+57
          1773.58490	         6.95747e+57
          1774.39120	         5.86912e+57
          1775.19750	         6.80661e+57
          1776.00380	         6.68353e+57
          1776.81010	         6.61692e+57
          1777.61640	         7.17824e+57
          1778.42270	         6.92879e+57
          1779.22900	         6.33719e+57
          1780.03530	         6.13283e+57
          1780.84160	         7.74050e+57
          1781.64790	         9.10843e+57
          1782.45420	         8.15127e+57
          1783.26050	         7.70527e+57
          1784.06680	         7.92317e+57
          1784.87310	         7.22147e+57
          1785.67940	         6.34822e+57
          1786.48570	         6.63155e+57
          1787.29200	         6.50610e+57
          1788.09830	         7.00222e+57
          1788.90460	         5.80277e+57
          1789.71090	         5.29554e+57
          1790.51720	         5.66160e+57
          1791.32350	         7.64530e+57
          1792.12980	         8.34937e+57
          1792.93610	         7.97580e+57
          1793.74240	         7.66002e+57
          1794.54870	         8.01386e+57
          1795.35500	         7.12244e+57
          1796.16130	         6.84788e+57
          1796.96760	         7.17800e+57
          1797.77390	         7.42044e+57
          1798.58020	         7.75168e+57
          1799.38650	         7.31285e+57
          1800.19280	         6.81667e+57
          1800.99910	         7.33850e+57
          1801.80540	         7.04850e+57
          1802.61170	         7.84963e+57
          1803.41800	         8.26038e+57
          1804.22430	         7.77095e+57
          1805.03060	         7.38467e+57
          1805.83690	         7.57504e+57
          1806.64320	         7.84818e+57
          1807.44950	         7.42736e+57
          1808.25580	         5.72326e+57
          1809.06210	         7.03892e+57
          1809.86840	         7.11264e+57
          1810.67470	         6.94945e+57
          1811.48100	         8.02601e+57
          1812.28730	         7.82700e+57
          1813.09360	         7.49883e+57
          1813.89990	         8.16916e+57
          1814.70620	         7.44078e+57
          1815.51250	         7.40269e+57
          1816.31880	         8.12388e+57
          1817.12510	         7.73986e+57
          1817.93140	         7.26931e+57
          1818.73770	         7.08124e+57
          1819.54400	         8.55181e+57
          1820.35030	         8.79172e+57
          1821.15660	         6.69100e+57
          1821.96290	         5.66417e+57
          1822.76920	         7.37230e+57
          1823.57550	         8.27906e+57
          1824.38180	         8.34514e+57
          1825.18810	         7.86346e+57
          1825.99440	         8.48823e+57
          1826.80070	         7.50308e+57
          1827.60700	         6.07558e+57
          1828.41330	         5.93705e+57
          1829.21960	         6.88307e+57
          1830.02590	         7.60545e+57
          1830.83220	         7.41292e+57
          1831.63850	         7.60583e+57
          1832.44480	         7.65424e+57
          1833.25110	         7.65346e+57
          1834.05740	         8.32855e+57
          1834.86370	         7.77108e+57
          1835.67000	         6.31851e+57
          1836.47630	         7.61637e+57
          1837.28260	         8.79214e+57
          1838.08890	         7.66162e+57
          1838.89520	         8.08923e+57
          1839.70150	         8.05579e+57
          1840.50780	         8.17063e+57
          1841.31410	         7.49199e+57
          1842.12040	         7.04434e+57
          1842.92670	         7.65755e+57
          1843.73300	         6.31779e+57
          1844.53930	         7.34011e+57
          1845.34560	         7.17147e+57
          1846.15190	         7.54227e+57
          1846.95820	         7.74354e+57
          1847.76450	         7.39782e+57
          1848.57080	         6.24094e+57
          1849.37710	         6.44953e+57
          1850.18340	         7.78912e+57
          1850.98970	         9.19383e+57
          1851.79600	         7.63178e+57
          1852.60230	         6.39042e+57
          1853.40860	         6.38074e+57
          1854.21490	         7.01253e+57
          1855.02120	         6.03203e+57
          1855.82750	         5.07390e+57
          1856.63380	         5.72956e+57
          1857.44010	         5.59852e+57
          1858.24640	         7.49746e+57
          1859.05270	         8.17000e+57
          1859.85900	         6.07442e+57
          1860.66530	         5.49056e+57
          1861.47160	         7.65217e+57
          1862.27790	         7.52572e+57
          1863.08420	         6.61344e+57
          1863.89050	         7.40145e+57
          1864.69680	         7.57351e+57
          1865.50310	         7.10553e+57
          1866.30940	         6.92478e+57
          1867.11570	         6.79420e+57
          1867.92200	         7.78516e+57
          1868.72830	         7.52806e+57
          1869.53460	         7.16311e+57
          1870.34090	         7.33350e+57
          1871.14720	         7.12327e+57
          1871.95350	         6.91595e+57
          1872.75980	         6.89154e+57
          1873.56610	         6.84356e+57
          1874.37240	         6.23937e+57
          1875.17870	         6.57434e+57
          1875.98500	         6.29124e+57
          1876.79130	         7.64371e+57
          1877.59760	         7.41778e+57
          1878.40390	         5.62530e+57
          1879.21020	         5.98411e+57
          1880.01650	         7.54376e+57
          1880.82280	         9.00609e+57
          1881.62910	         8.79489e+57
          1882.43540	         9.79156e+57
          1883.24170	         8.08485e+57
          1884.04800	         6.37723e+57
          1884.85430	         6.95158e+57
          1885.66060	         8.52372e+57
          1886.46690	         8.36185e+57
          1887.27320	         6.78589e+57
          1888.07950	         5.98884e+57
          1888.88580	         6.79700e+57
          1889.69210	         8.98685e+57
          1890.49840	         7.90002e+57
          1891.30470	         7.18392e+57
          1892.11100	         8.49017e+57
          1892.91730	         8.65480e+57
          1893.72360	         7.55619e+57
          1894.52990	         7.80362e+57
          1895.33620	         8.35766e+57
          1896.14250	         6.93869e+57
          1896.94880	         5.52778e+57
          1897.75510	         4.53844e+57
          1898.56140	         5.91367e+57
          1899.36770	         6.74919e+57
          1900.17400	         6.16378e+57
          1900.98030	         6.42990e+57
          1901.78660	         7.16255e+57
          1902.59290	         7.76534e+57
          1903.39920	         8.58354e+57
          1904.20550	         9.51997e+57
          1905.01180	         9.34346e+57
          1905.81810	         9.46551e+57
          1906.62440	         1.17199e+58
          1907.43070	         1.52064e+58
          1908.23700	         1.59865e+58
          1909.04330	         1.29377e+58
          1909.84960	         1.14674e+58
          1910.65590	         1.00420e+58
          1911.46220	         8.82655e+57
          1912.26850	         6.89069e+57
          1913.07480	         5.19908e+57
          1913.88110	         5.13229e+57
          1914.68740	         6.20761e+57
          1915.49370	         6.98354e+57
          1916.30000	         6.73554e+57
          1917.10630	         6.84749e+57
          1917.91260	         6.93401e+57
          1918.71890	         5.99444e+57
          1919.52520	         6.04784e+57
          1920.33150	         6.02526e+57
          1921.13780	         6.73244e+57
          1921.94410	         8.29219e+57
          1922.75040	         8.07430e+57
          1923.55670	         8.46289e+57
          1924.36300	         7.98760e+57
          1925.16930	         6.38009e+57
          1925.97560	         5.75217e+57
          1926.78190	         5.55720e+57
          1927.58820	         5.65760e+57
          1928.39450	         5.76335e+57
          1929.20080	         5.21665e+57
          1930.00710	         6.79561e+57
          1930.81340	         7.89431e+57
          1931.61970	         6.43936e+57
          1932.42600	         6.58831e+57
          1933.23230	         7.98091e+57
          1934.03860	         6.92177e+57
          1934.84490	         5.28524e+57
          1935.65120	         7.53473e+57
          1936.45750	         9.29103e+57
          1937.26380	         6.75965e+57
          1938.07010	         6.52810e+57
          1938.87640	         7.89833e+57
          1939.68270	         8.62724e+57
          1940.48900	         8.24531e+57
          1941.29530	         9.06960e+57
          1942.10160	         8.46330e+57
          1942.90790	         6.97398e+57
          1943.71420	         5.91176e+57
          1944.52050	         5.98164e+57
          1945.32680	         6.93657e+57
          1946.13310	         6.92616e+57
          1946.93940	         8.11462e+57
          1947.74570	         7.68755e+57
          1948.55200	         6.42613e+57
          1949.35830	         6.70901e+57
          1950.16460	         5.41926e+57
          1950.97090	         5.78519e+57
          1951.77720	         6.94984e+57
          1952.58350	         7.35935e+57
          1953.38980	         6.85148e+57
          1954.19610	         5.25545e+57
          1955.00240	         4.95986e+57
          1955.80870	         6.14180e+57
          1956.61500	         6.13811e+57
          1957.42130	         6.31307e+57
          1958.22760	         7.13444e+57
          1959.03390	         8.04121e+57
          1959.84020	         8.02535e+57
          1960.64650	         7.26879e+57
          1961.45280	         6.09596e+57
          1962.25910	         6.81431e+57
          1963.06540	         7.16989e+57
          1963.87170	         6.68051e+57
          1964.67800	         7.14642e+57
          1965.48430	         7.15854e+57
          1966.29060	         7.20916e+57
          1967.09690	         6.67914e+57
          1967.90320	         6.55830e+57
          1968.70950	         5.85201e+57
          1969.51580	         5.66417e+57
          1970.32210	         6.58630e+57
          1971.12840	         6.33555e+57
          1971.93470	         5.12593e+57
          1972.74100	         5.69680e+57
          1973.54730	         7.11324e+57
          1974.35360	         7.30360e+57
          1975.15990	         8.58501e+57
          1975.96620	         7.68546e+57
          1976.77250	         7.59088e+57
          1977.57880	         8.40549e+57
          1978.38510	         6.51639e+57
          1979.19140	         6.38753e+57
          1979.99770	         8.32938e+57
          1980.80400	         7.35951e+57
          1981.61030	         7.06320e+57
          1982.41660	         5.68882e+57
          1983.22290	         5.51168e+57
          1984.02920	         5.03578e+57
          1984.83550	         5.08841e+57
          1985.64180	         6.39606e+57
          1986.44810	         6.96940e+57
          1987.25440	         5.95598e+57
          1988.06070	         6.38093e+57
          1988.86700	         6.93035e+57
          1989.67330	         7.50060e+57
          1990.47960	         6.84837e+57
          1991.28590	         6.59692e+57
          1992.09220	         6.61961e+57
          1992.89850	         5.73550e+57
          1993.70480	         5.70565e+57
          1994.51110	         4.88531e+57
          1995.31740	         3.25678e+57
          1996.12370	         4.10652e+57
          1996.93000	         6.25713e+57
          1997.73630	         7.89729e+57
          1998.54260	         6.41702e+57
          1999.34890	         6.37195e+57
          2000.15520	         6.62337e+57
          2000.96150	         6.14429e+57
          2001.76780	         6.36019e+57
          2002.57410	         6.35196e+57
          2003.38040	         6.63127e+57
          2004.18670	         6.69448e+57
          2004.99300	         6.83665e+57
          2005.79930	         8.29977e+57
          2006.60560	         7.15574e+57
          2007.41190	         6.53228e+57
          2008.21820	         7.79405e+57
          2009.02450	         6.88218e+57
          2009.83080	         6.42553e+57
          2010.63710	         6.83445e+57
          2011.44340	         5.90028e+57
          2012.24970	         6.64940e+57
          2013.05600	         6.49925e+57
          2013.86230	         6.91872e+57
          2014.66860	         5.59073e+57
          2015.47490	         6.92572e+57
          2016.28120	         5.97430e+57
          2017.08750	         6.51472e+57
          2017.89380	         6.76497e+57
          2018.70010	         5.28735e+57
          2019.50640	         5.91650e+57
          2020.31270	         6.14281e+57
          2021.11900	         6.21392e+57
          2021.92530	         6.34282e+57
          2022.73160	         6.72269e+57
          2023.53790	         6.09578e+57
          2024.34420	         6.39141e+57
          2025.15050	         5.62428e+57
          2025.95680	         5.24770e+57
          2026.76310	         5.94692e+57
          2027.56940	         5.44217e+57
          2028.37570	         6.23685e+57
          2029.18200	         6.48960e+57
          2029.98830	         7.09703e+57
          2030.79460	         7.02902e+57
          2031.60090	         6.41871e+57
          2032.40720	         6.30637e+57
          2033.21350	         6.76737e+57
          2034.01980	         6.60993e+57
          2034.82610	         3.90626e+57
          2035.63240	         4.12084e+57
          2036.43870	         5.81913e+57
          2037.24500	         5.33590e+57
          2038.05130	         5.64499e+57
          2038.85760	         5.39586e+57
          2039.66390	         7.07601e+57
          2040.47020	         5.60499e+57
          2041.27650	         6.39673e+57
          2042.08280	         6.05897e+57
          2042.88910	         6.36695e+57
          2043.69540	         5.66686e+57
          2044.50170	         5.75905e+57
          2045.30800	         4.89277e+57
          2046.11430	         3.70190e+57
          2046.92060	         5.11785e+57
          2047.72690	         6.71789e+57
          2048.53320	         6.88378e+57
          2049.33950	         5.62232e+57
          2050.14580	         5.34050e+57
          2050.95210	         6.63263e+57
          2051.75840	         7.09315e+57
          2052.56470	         4.06163e+57
          2053.37100	         3.05497e+57
          2054.17730	         4.38456e+57
          2054.98360	         5.46585e+57
          2055.78990	         2.98177e+57
          2056.59620	         2.22092e+57
          2057.40250	         5.11356e+57
          2058.20880	         5.98745e+57
          2059.01510	         6.28406e+57
          2059.82140	         6.44010e+57
          2060.62770	         9.81195e+57
          2061.43400	         1.66580e+58
          2062.24030	         1.12789e+58
          2063.04660	         5.98441e+57
          2063.85290	         2.34552e+57
          2064.65920	        -3.13024e+57
          2065.46550	        -9.19557e+57
          2066.27180	        -8.43361e+57
          2067.07810	         2.52123e+57
          2067.88440	         6.23870e+57
          2068.69070	         7.01411e+57
          2069.49700	         5.76050e+57
          2070.30330	         3.04834e+57
          2071.10960	         5.92565e+57
          2071.91590	         5.04205e+57
          2072.72220	         2.83062e+57
          2073.52850	         4.50385e+57
          2074.33480	         4.96676e+57
          2075.14110	         4.67761e+57
          2075.94740	         4.41475e+57
          2076.75370	         5.44850e+57
          2077.56000	         4.63710e+57
          2078.36630	         6.21441e+57
          2079.17260	         5.15898e+57
          2079.97890	         5.47056e+57
          2080.78520	         4.34594e+57
          2081.59150	         3.73875e+57
          2082.39780	         3.79286e+57
          2083.20410	         3.11505e+57
          2084.01040	         2.77467e+57
          2084.81670	         3.87182e+57
          2085.62300	         4.32315e+57
          2086.42930	         3.57774e+57
          2087.23560	         3.77519e+57
          2088.04190	         3.92880e+57
          2088.84820	         3.64078e+57
          2089.65450	         4.27586e+57
          2090.46080	         3.67190e+57
          2091.26710	         3.83794e+57
          2092.07340	         3.09762e+57
          2092.87970	         2.65160e+57
          2093.68600	         4.08973e+56
          2094.49230	         1.18856e+57
          2095.29860	         5.36220e+57
          2096.10490	         2.08979e+57
          2096.91120	         2.64260e+57
          2097.71750	         2.71055e+57
          2098.52380	         5.12861e+56
          2099.33010	         1.60441e+56
          2100.13640	         3.42314e+57
          2100.94270	         2.67611e+57
          2101.74900	         3.46470e+57
          2102.55530	         3.85629e+57
          2103.36160	         3.13646e+57
          2104.16790	         2.08782e+57
          2104.97420	         1.68051e+56
          2105.78050	        -8.88032e+56
          2106.58680	        -1.43754e+57
          2107.39310	        -2.09397e+57
          2108.19940	         1.37591e+57
          2109.00570	         3.87494e+56
          2109.81200	         2.32873e+57
          2110.61830	         2.87804e+57
          2111.42460	         3.30001e+57
          2112.23090	         1.67900e+57
          2113.03720	         6.00502e+56
          2113.84350	         1.06146e+57
          2114.64980	         4.05839e+57
          2115.45610	         3.93189e+56
          2116.26240	        -5.06028e+57
          2117.06870	         2.04689e+56
          2117.87500	        -2.26429e+57
          2118.68130	        -1.56195e+57
          2119.48760	         1.24415e+57
          2120.29390	         8.34285e+56
          2121.10020	        -5.83587e+57
          2121.90650	        -4.50384e+57
          2122.71280	         1.23936e+57
          2123.51910	         3.73559e+57
          2124.32540	         1.06439e+57
          2125.13170	         4.94962e+57
          2125.93800	         7.14704e+57
          2126.74430	        -5.72126e+57
          2127.55060	        -7.43976e+57
          2128.35690	        -5.27865e+57
          2129.16320	         2.08993e+56
          2129.96950	         1.74490e+57
          2130.77580	         2.09179e+57
          2131.58210	         2.32826e+57
          2132.38840	        -2.46837e+57
          2133.19470	        -5.37041e+56
          2134.00100	        -2.19502e+57
          2134.80730	        -4.21198e+57
          2135.61360	        -1.47336e+57
          2136.41990	        -9.56958e+56
          2137.22620	        -5.89225e+57
          2138.03250	        -3.12950e+57
          2138.83880	        -6.37499e+57
          2139.64510	        -2.21948e+57
          2140.45140	        -4.64564e+57
          2141.25770	        -1.30324e+58
          2142.06400	        -1.35998e+58
          2142.87030	        -7.03369e+56
          2143.67660	         2.35116e+57
          2144.48290	         1.07829e+58
          2145.28920	         1.28106e+58
          2146.09550	        -7.37612e+57
          2146.90180	        -1.08198e+58
          2147.70810	        -4.22760e+57
          2148.51440	        -3.39969e+57
          2149.32070	        -6.94469e+57
          2150.12700	        -9.82016e+57
          2150.93330	        -7.86100e+57
          2151.73960	         3.71589e+57
          2152.54590	        -3.42754e+57
          2153.35220	        -3.96089e+57
          2154.15850	         3.73157e+57
          2154.96480	         7.79008e+56
          2155.77110	         4.80668e+57
          2156.57740	         6.00006e+56
          2157.38370	         3.81505e+57
          2158.19000	        -4.61818e+57
          2158.99630	        -4.91486e+57
          2159.80260	        -1.22500e+58
          2160.60890	        -2.91194e+57
          2161.41520	        -5.42489e+57
          2162.22150	         2.49453e+57
          2163.02780	        -8.56032e+57
          2163.83410	        -2.87303e+57
          2164.64040	        -7.93850e+57
          2165.44670	        -9.75383e+57
          2166.25300	        -1.17543e+58
          2167.05930	        -1.40298e+57
          2167.86560	        -5.08720e+57
          2168.67190	        -4.83999e+57
          2169.47820	        -2.20657e+58
          2170.28450	        -1.46580e+58
          2171.09080	        -1.30674e+57
          2171.89710	        -1.00214e+57
          2172.70340	         3.75253e+57
          2173.50970	        -4.68973e+57
          2174.31600	        -4.67425e+57
          2175.12230	        -2.57744e+57
          2175.92860	        -4.63643e+57
          2176.73490	        -2.54500e+57
          2177.54120	        -3.55161e+57
          2178.34750	        -5.31947e+57
          2179.15380	                 nan
          2179.96010	                 nan
          2180.76640	                 nan
          2181.57270	                 nan
          2182.37900	                 nan
          2183.18530	                 nan
          2183.99160	                 nan
          2184.79790	                 nan
          2185.60420	                 nan
          2186.41050	                 nan
          2187.21680	                 nan
          2188.02310	                 nan
          2188.82940	                 nan
          2189.63570	                 nan
          2190.44200	                 nan
          2191.24830	                 nan
          2192.05460	                 nan
          2192.86090	                 nan
          2193.66720	                 nan
          2194.47350	                 nan
          2195.27980	                 nan
          2196.08610	                 nan
          2196.89240	                 nan
          2197.69870	                 nan
          2198.50500	                 nan
          2199.31130	                 nan
          2200.11760	                 nan
          2200.92390	                 nan
          2201.73020	                 nan
          2202.53650	                 nan
          2203.34280	                 nan
          2204.14910	                 nan
          2204.95540	                 nan
          2205.76170	                 nan
          2206.56800	                 nan
          2207.37430	                 nan
          2208.18060	                 nan
          2208.98690	                 nan
          2209.79320	                 nan
          2210.59950	                 nan
          2211.40580	                 nan
          2212.21210	                 nan
          2213.01840	                 nan
          2213.82470	                 nan
          2214.63100	                 nan
          2215.43730	         0.00000e+00
