#sample_389_stacked_spectrum_rest_UV-bands_median_H-alpha_noDC.txt
#median Lum: 1.72577e+42
#Rest-frame wavelength (A) | Luminosity (erg/s/A)
#
          1110.00000	         0.00000e+00
          1110.80630	        -1.54891e+59
          1111.61260	         4.59901e+59
          1112.41890	         1.70221e+59
          1113.22520	         1.14620e+59
          1114.03150	        -3.40578e+58
          1114.83780	         3.33904e+59
          1115.64410	         7.34147e+58
          1116.45040	         1.06517e+59
          1117.25670	        -5.88338e+58
          1118.06300	         2.09068e+59
          1118.86930	        -4.67928e+58
          1119.67560	         1.14420e+59
          1120.48190	        -6.35650e+58
          1121.28820	        -1.06868e+59
          1122.09450	         1.08266e+58
          1122.90080	         4.06797e+58
          1123.70710	         6.59728e+58
          1124.51340	         2.89180e+58
          1125.31970	         2.85959e+56
          1126.12600	        -3.16205e+57
          1126.93230	        -7.01948e+58
          1127.73860	        -7.64334e+58
          1128.54490	        -1.41122e+58
          1129.35120	         1.03504e+58
          1130.15750	         1.13634e+58
          1130.96380	        -4.11208e+58
          1131.77010	         7.85886e+57
          1132.57640	         2.30628e+58
          1133.38270	         1.65211e+58
          1134.18900	         1.99448e+58
          1134.99530	         2.21180e+58
          1135.80160	         2.54370e+58
          1136.60790	         1.47792e+58
          1137.41420	        -3.45039e+58
          1138.22050	         2.21746e+58
          1139.02680	         2.47548e+58
          1139.83310	         1.25321e+58
          1140.63940	         5.38111e+57
          1141.44570	        -2.46190e+58
          1142.25200	         2.35166e+58
          1143.05830	         3.32563e+58
          1143.86460	         3.45921e+58
          1144.67090	         2.34996e+58
          1145.47720	         1.85967e+58
          1146.28350	         9.52997e+57
          1147.08980	         1.62439e+58
          1147.89610	         2.42542e+58
          1148.70240	         1.71265e+58
          1149.50870	         2.30731e+58
          1150.31500	         1.09762e+58
          1151.12130	         1.14957e+58
          1151.92760	         9.99760e+57
          1152.73390	         7.05544e+57
          1153.54020	         1.37596e+58
          1154.34650	         1.52912e+58
          1155.15280	         1.60209e+58
          1155.95910	         1.47776e+58
          1156.76540	         1.62364e+58
          1157.57170	         4.15867e+57
          1158.37800	        -9.13605e+55
          1159.18430	         1.32653e+56
          1159.99060	        -4.03329e+57
          1160.79690	         5.79611e+57
          1161.60320	         1.50315e+58
          1162.40950	         1.09334e+58
          1163.21580	         5.50612e+57
          1164.02210	         7.62507e+57
          1164.82840	         7.28823e+57
          1165.63470	         1.46342e+58
          1166.44100	         2.75417e+58
          1167.24730	         1.38962e+58
          1168.05360	         3.65593e+57
          1168.85990	         9.34012e+57
          1169.66620	         8.47216e+57
          1170.47250	         8.84949e+57
          1171.27880	         8.97038e+57
          1172.08510	         1.25853e+58
          1172.89140	         1.00549e+58
          1173.69770	         7.62433e+57
          1174.50400	         8.85126e+57
          1175.31030	         1.22614e+58
          1176.11660	         1.77202e+58
          1176.92290	         1.76877e+58
          1177.72920	         1.40071e+58
          1178.53550	         5.19608e+57
          1179.34180	         3.57201e+57
          1180.14810	         9.32792e+57
          1180.95440	         8.92155e+57
          1181.76070	         6.12996e+57
          1182.56700	         9.66747e+57
          1183.37330	         6.91388e+57
          1184.17960	         1.14388e+58
          1184.98590	         1.73589e+58
          1185.79220	         1.16544e+58
          1186.59850	         8.07572e+57
          1187.40480	         6.22823e+57
          1188.21110	         1.58017e+58
          1189.01740	         8.93320e+57
          1189.82370	         1.46640e+58
          1190.63000	         1.15794e+58
          1191.43630	         1.33712e+58
          1192.24260	         1.08014e+58
          1193.04890	         1.38234e+58
          1193.85520	         1.20979e+58
          1194.66150	         7.07935e+57
          1195.46780	         1.35953e+58
          1196.27410	         1.44348e+58
          1197.08040	         9.16127e+57
          1197.88670	         1.23576e+58
          1198.69300	         1.62539e+58
          1199.49930	         1.70705e+58
          1200.30560	         1.24196e+58
          1201.11190	         8.00948e+57
          1201.91820	         1.00514e+58
          1202.72450	         9.45495e+57
          1203.53080	         1.58803e+58
          1204.33710	         1.01233e+58
          1205.14340	         8.22526e+57
          1205.94970	         5.33866e+57
          1206.75600	         6.05737e+57
          1207.56230	         7.43305e+57
          1208.36860	         5.01116e+57
          1209.17490	         3.59574e+57
          1209.98120	         5.89813e+57
          1210.78750	         8.03531e+57
          1211.59380	         1.16628e+58
          1212.40010	         1.75649e+58
          1213.20640	         1.96177e+58
          1214.01270	         2.21811e+58
          1214.81900	         2.65206e+58
          1215.62530	         4.53279e+58
          1216.43160	         8.99294e+58
          1217.23790	         1.47255e+59
          1218.04420	         1.12002e+59
          1218.85050	         8.11161e+58
          1219.65680	         5.18867e+58
          1220.46310	         2.86903e+58
          1221.26940	         1.97954e+58
          1222.07570	         1.47641e+58
          1222.88200	         1.12817e+58
          1223.68830	         9.82637e+57
          1224.49460	         5.65674e+57
          1225.30090	         4.59554e+57
          1226.10720	         6.80541e+57
          1226.91350	         6.56530e+57
          1227.71980	         5.30711e+57
          1228.52610	         1.06157e+58
          1229.33240	         1.10982e+58
          1230.13870	         9.28273e+57
          1230.94500	         9.24320e+57
          1231.75130	         5.22932e+57
          1232.55760	         8.88522e+57
          1233.36390	         9.64812e+57
          1234.17020	         9.63167e+57
          1234.97650	         7.46341e+57
          1235.78280	         6.76344e+57
          1236.58910	         1.04986e+58
          1237.39540	         9.66983e+57
          1238.20170	         8.93852e+57
          1239.00800	         1.30656e+58
          1239.81430	         1.42826e+58
          1240.62060	         9.65101e+57
          1241.42690	         8.95462e+57
          1242.23320	         1.18179e+58
          1243.03950	         8.48141e+57
          1243.84580	         6.73524e+57
          1244.65210	         8.35013e+57
          1245.45840	         9.03186e+57
          1246.26470	         9.78434e+57
          1247.07100	         9.45901e+57
          1247.87730	         6.83883e+57
          1248.68360	         3.34504e+57
          1249.48990	         4.81245e+57
          1250.29620	         8.06486e+57
          1251.10250	         7.45603e+57
          1251.90880	         4.07840e+57
          1252.71510	         6.73734e+57
          1253.52140	         7.68330e+57
          1254.32770	         9.66089e+57
          1255.13400	         1.26770e+58
          1255.94030	         1.30229e+58
          1256.74660	         1.13642e+58
          1257.55290	         1.05496e+58
          1258.35920	         9.90444e+57
          1259.16550	         7.35187e+57
          1259.97180	         7.09731e+57
          1260.77810	         8.25971e+57
          1261.58440	         1.11138e+58
          1262.39070	         9.38431e+57
          1263.19700	         8.91217e+57
          1264.00330	         9.06074e+57
          1264.80960	         1.03669e+58
          1265.61590	         1.30972e+58
          1266.42220	         1.20197e+58
          1267.22850	         1.05342e+58
          1268.03480	         1.34755e+58
          1268.84110	         1.41515e+58
          1269.64740	         1.09322e+58
          1270.45370	         1.25471e+58
          1271.26000	         1.46469e+58
          1272.06630	         1.31367e+58
          1272.87260	         1.03573e+58
          1273.67890	         1.18435e+58
          1274.48520	         1.44611e+58
          1275.29150	         1.46334e+58
          1276.09780	         1.43130e+58
          1276.90410	         1.53328e+58
          1277.71040	         1.31994e+58
          1278.51670	         1.21790e+58
          1279.32300	         1.41965e+58
          1280.12930	         1.28418e+58
          1280.93560	         9.91135e+57
          1281.74190	         1.27730e+58
          1282.54820	         1.40217e+58
          1283.35450	         9.59456e+57
          1284.16080	         1.15559e+58
          1284.96710	         1.63132e+58
          1285.77340	         1.31187e+58
          1286.57970	         1.23471e+58
          1287.38600	         1.58862e+58
          1288.19230	         1.57813e+58
          1288.99860	         1.21932e+58
          1289.80490	         1.02585e+58
          1290.61120	         1.08150e+58
          1291.41750	         1.22610e+58
          1292.22380	         1.13352e+58
          1293.03010	         1.01372e+58
          1293.83640	         1.18183e+58
          1294.64270	         1.02057e+58
          1295.44900	         6.50813e+57
          1296.25530	         6.77912e+57
          1297.06160	         1.07243e+58
          1297.86790	         1.15217e+58
          1298.67420	         1.02434e+58
          1299.48050	         1.06313e+58
          1300.28680	         9.07741e+57
          1301.09310	         6.71332e+57
          1301.89940	         5.01144e+57
          1302.70570	         6.84890e+57
          1303.51200	         8.66665e+57
          1304.31830	         1.15196e+58
          1305.12460	         1.14143e+58
          1305.93090	         1.10381e+58
          1306.73720	         1.26095e+58
          1307.54350	         1.41821e+58
          1308.34980	         1.22528e+58
          1309.15610	         1.49055e+58
          1309.96240	         1.50991e+58
          1310.76870	         1.04133e+58
          1311.57500	         9.14266e+57
          1312.38130	         8.88644e+57
          1313.18760	         1.22922e+58
          1313.99390	         1.51328e+58
          1314.80020	         1.70814e+58
          1315.60650	         1.51848e+58
          1316.41280	         1.31745e+58
          1317.21910	         1.01654e+58
          1318.02540	         9.87846e+57
          1318.83170	         1.30595e+58
          1319.63800	         1.17426e+58
          1320.44430	         9.85429e+57
          1321.25060	         1.10203e+58
          1322.05690	         1.14096e+58
          1322.86320	         1.24091e+58
          1323.66950	         1.17201e+58
          1324.47580	         1.02821e+58
          1325.28210	         1.10707e+58
          1326.08840	         1.24486e+58
          1326.89470	         1.27357e+58
          1327.70100	         9.85739e+57
          1328.50730	         7.99979e+57
          1329.31360	         9.59174e+57
          1330.11990	         1.09242e+58
          1330.92620	         1.00323e+58
          1331.73250	         1.20719e+58
          1332.53880	         1.12173e+58
          1333.34510	         8.93272e+57
          1334.15140	         8.91116e+57
          1334.95770	         1.04299e+58
          1335.76400	         1.13120e+58
          1336.57030	         1.04901e+58
          1337.37660	         9.73911e+57
          1338.18290	         9.72792e+57
          1338.98920	         1.14993e+58
          1339.79550	         1.09637e+58
          1340.60180	         1.01580e+58
          1341.40810	         1.33294e+58
          1342.21440	         1.33778e+58
          1343.02070	         1.27286e+58
          1343.82700	         1.24316e+58
          1344.63330	         1.31356e+58
          1345.43960	         1.37555e+58
          1346.24590	         1.19384e+58
          1347.05220	         1.28102e+58
          1347.85850	         1.05364e+58
          1348.66480	         1.00256e+58
          1349.47110	         1.11736e+58
          1350.27740	         1.13551e+58
          1351.08370	         1.06048e+58
          1351.89000	         1.09612e+58
          1352.69630	         1.10398e+58
          1353.50260	         1.21829e+58
          1354.30890	         1.30727e+58
          1355.11520	         1.17778e+58
          1355.92150	         1.09479e+58
          1356.72780	         1.11860e+58
          1357.53410	         1.10246e+58
          1358.34040	         1.11623e+58
          1359.14670	         9.88551e+57
          1359.95300	         1.07760e+58
          1360.75930	         1.20364e+58
          1361.56560	         1.16322e+58
          1362.37190	         1.10587e+58
          1363.17820	         1.04163e+58
          1363.98450	         1.07648e+58
          1364.79080	         1.27172e+58
          1365.59710	         1.35844e+58
          1366.40340	         1.24670e+58
          1367.20970	         1.14257e+58
          1368.01600	         1.10475e+58
          1368.82230	         9.57660e+57
          1369.62860	         1.16476e+58
          1370.43490	         1.00576e+58
          1371.24120	         9.26334e+57
          1372.04750	         8.55983e+57
          1372.85380	         9.71941e+57
          1373.66010	         1.22337e+58
          1374.46640	         1.06316e+58
          1375.27270	         9.33756e+57
          1376.07900	         8.75054e+57
          1376.88530	         9.18290e+57
          1377.69160	         9.48498e+57
          1378.49790	         7.50915e+57
          1379.30420	         7.14017e+57
          1380.11050	         8.76612e+57
          1380.91680	         7.94429e+57
          1381.72310	         6.73199e+57
          1382.52940	         7.37471e+57
          1383.33570	         8.68089e+57
          1384.14200	         9.93856e+57
          1384.94830	         1.03980e+58
          1385.75460	         9.10645e+57
          1386.56090	         1.05067e+58
          1387.36720	         1.19244e+58
          1388.17350	         1.39683e+58
          1388.97980	         1.40114e+58
          1389.78610	         1.07219e+58
          1390.59240	         7.99078e+57
          1391.39870	         6.34857e+57
          1392.20500	         7.37380e+57
          1393.01130	         6.58067e+57
          1393.81760	         6.44266e+57
          1394.62390	         7.44749e+57
          1395.43020	         6.93543e+57
          1396.23650	         6.24115e+57
          1397.04280	         5.93609e+57
          1397.84910	         8.12449e+57
          1398.65540	         9.19545e+57
          1399.46170	         9.17158e+57
          1400.26800	         7.26606e+57
          1401.07430	         6.99751e+57
          1401.88060	         7.83962e+57
          1402.68690	         8.04755e+57
          1403.49320	         8.33746e+57
          1404.29950	         8.65881e+57
          1405.10580	         1.01883e+58
          1405.91210	         1.06663e+58
          1406.71840	         1.06290e+58
          1407.52470	         9.56667e+57
          1408.33100	         9.94789e+57
          1409.13730	         1.17288e+58
          1409.94360	         1.11795e+58
          1410.74990	         1.12326e+58
          1411.55620	         9.76164e+57
          1412.36250	         8.35484e+57
          1413.16880	         8.34766e+57
          1413.97510	         8.47628e+57
          1414.78140	         8.00397e+57
          1415.58770	         9.81354e+57
          1416.39400	         1.13835e+58
          1417.20030	         1.10361e+58
          1418.00660	         9.38157e+57
          1418.81290	         9.22289e+57
          1419.61920	         9.51468e+57
          1420.42550	         1.12407e+58
          1421.23180	         1.35280e+58
          1422.03810	         1.28691e+58
          1422.84440	         1.16658e+58
          1423.65070	         1.30714e+58
          1424.45700	         1.16958e+58
          1425.26330	         9.46652e+57
          1426.06960	         8.17196e+57
          1426.87590	         8.71731e+57
          1427.68220	         1.01490e+58
          1428.48850	         1.15823e+58
          1429.29480	         1.03512e+58
          1430.10110	         9.59537e+57
          1430.90740	         9.83188e+57
          1431.71370	         9.64128e+57
          1432.52000	         8.84325e+57
          1433.32630	         8.37003e+57
          1434.13260	         7.56483e+57
          1434.93890	         8.49723e+57
          1435.74520	         8.74266e+57
          1436.55150	         9.32339e+57
          1437.35780	         1.01699e+58
          1438.16410	         1.04360e+58
          1438.97040	         8.96269e+57
          1439.77670	         8.26609e+57
          1440.58300	         9.37749e+57
          1441.38930	         9.93761e+57
          1442.19560	         9.74845e+57
          1443.00190	         9.18411e+57
          1443.80820	         1.05640e+58
          1444.61450	         9.17100e+57
          1445.42080	         7.77085e+57
          1446.22710	         9.86955e+57
          1447.03340	         9.99137e+57
          1447.83970	         9.97519e+57
          1448.64600	         1.09715e+58
          1449.45230	         1.01761e+58
          1450.25860	         9.41543e+57
          1451.06490	         8.65206e+57
          1451.87120	         7.48349e+57
          1452.67750	         6.85804e+57
          1453.48380	         8.48456e+57
          1454.29010	         8.37503e+57
          1455.09640	         7.70596e+57
          1455.90270	         9.31655e+57
          1456.70900	         8.32362e+57
          1457.51530	         9.09271e+57
          1458.32160	         1.16764e+58
          1459.12790	         1.10044e+58
          1459.93420	         9.86676e+57
          1460.74050	         8.59976e+57
          1461.54680	         8.27860e+57
          1462.35310	         7.75649e+57
          1463.15940	         8.98640e+57
          1463.96570	         1.00285e+58
          1464.77200	         1.06757e+58
          1465.57830	         1.02144e+58
          1466.38460	         8.57004e+57
          1467.19090	         9.27628e+57
          1467.99720	         8.99729e+57
          1468.80350	         8.83795e+57
          1469.60980	         9.33144e+57
          1470.41610	         8.97040e+57
          1471.22240	         8.93626e+57
          1472.02870	         9.88359e+57
          1472.83500	         9.58586e+57
          1473.64130	         9.91423e+57
          1474.44760	         9.67059e+57
          1475.25390	         9.50074e+57
          1476.06020	         9.76853e+57
          1476.86650	         8.84409e+57
          1477.67280	         7.36199e+57
          1478.47910	         6.80637e+57
          1479.28540	         6.94342e+57
          1480.09170	         7.62029e+57
          1480.89800	         8.29693e+57
          1481.70430	         7.85553e+57
          1482.51060	         7.71430e+57
          1483.31690	         7.85125e+57
          1484.12320	         7.34063e+57
          1484.92950	         8.16743e+57
          1485.73580	         8.83455e+57
          1486.54210	         8.75304e+57
          1487.34840	         8.38613e+57
          1488.15470	         9.00690e+57
          1488.96100	         9.72517e+57
          1489.76730	         9.19298e+57
          1490.57360	         8.40030e+57
          1491.37990	         8.08303e+57
          1492.18620	         7.46926e+57
          1492.99250	         8.50771e+57
          1493.79880	         8.63385e+57
          1494.60510	         8.44766e+57
          1495.41140	         8.11799e+57
          1496.21770	         8.45360e+57
          1497.02400	         1.05169e+58
          1497.83030	         9.30917e+57
          1498.63660	         7.28824e+57
          1499.44290	         7.21757e+57
          1500.24920	         8.18928e+57
          1501.05550	         8.43118e+57
          1501.86180	         7.54629e+57
          1502.66810	         7.57045e+57
          1503.47440	         8.49581e+57
          1504.28070	         8.99686e+57
          1505.08700	         8.77436e+57
          1505.89330	         8.20348e+57
          1506.69960	         7.31746e+57
          1507.50590	         7.39044e+57
          1508.31220	         7.80530e+57
          1509.11850	         7.79164e+57
          1509.92480	         9.21057e+57
          1510.73110	         8.98495e+57
          1511.53740	         7.25830e+57
          1512.34370	         6.90205e+57
          1513.15000	         8.99881e+57
          1513.95630	         9.57861e+57
          1514.76260	         9.23799e+57
          1515.56890	         8.88989e+57
          1516.37520	         8.69833e+57
          1517.18150	         8.07770e+57
          1517.98780	         7.72086e+57
          1518.79410	         6.83089e+57
          1519.60040	         8.66889e+57
          1520.40670	         9.98320e+57
          1521.21300	         8.63756e+57
          1522.01930	         7.73642e+57
          1522.82560	         9.46609e+57
          1523.63190	         1.03805e+58
          1524.43820	         8.20995e+57
          1525.24450	         5.86974e+57
          1526.05080	         5.59286e+57
          1526.85710	         5.59130e+57
          1527.66340	         6.31117e+57
          1528.46970	         8.22486e+57
          1529.27600	         7.83589e+57
          1530.08230	         7.59935e+57
          1530.88860	         7.88725e+57
          1531.69490	         8.97666e+57
          1532.50120	         9.48461e+57
          1533.30750	         9.72450e+57
          1534.11380	         9.97892e+57
          1534.92010	         9.65276e+57
          1535.72640	         9.17576e+57
          1536.53270	         8.99082e+57
          1537.33900	         9.39474e+57
          1538.14530	         9.18832e+57
          1538.95160	         8.65794e+57
          1539.75790	         8.81898e+57
          1540.56420	         8.06749e+57
          1541.37050	         8.09238e+57
          1542.17680	         8.47336e+57
          1542.98310	         8.16543e+57
          1543.78940	         7.83673e+57
          1544.59570	         7.54399e+57
          1545.40200	         7.39740e+57
          1546.20830	         8.68720e+57
          1547.01460	         1.06014e+58
          1547.82090	         1.10594e+58
          1548.62720	         1.10081e+58
          1549.43350	         1.24381e+58
          1550.23980	         1.14960e+58
          1551.04610	         1.24612e+58
          1551.85240	         1.24409e+58
          1552.65870	         1.17258e+58
          1553.46500	         1.08346e+58
          1554.27130	         1.00272e+58
          1555.07760	         9.33531e+57
          1555.88390	         9.85440e+57
          1556.69020	         9.75536e+57
          1557.49650	         9.01159e+57
          1558.30280	         8.36917e+57
          1559.10910	         8.51720e+57
          1559.91540	         9.88548e+57
          1560.72170	         9.01654e+57
          1561.52800	         8.50415e+57
          1562.33430	         9.01444e+57
          1563.14060	         8.25498e+57
          1563.94690	         7.97489e+57
          1564.75320	         8.20142e+57
          1565.55950	         6.44777e+57
          1566.36580	         6.41982e+57
          1567.17210	         8.81662e+57
          1567.97840	         9.47314e+57
          1568.78470	         8.75414e+57
          1569.59100	         9.42817e+57
          1570.39730	         9.17711e+57
          1571.20360	         7.71847e+57
          1572.00990	         7.21424e+57
          1572.81620	         7.98592e+57
          1573.62250	         9.26346e+57
          1574.42880	         8.75566e+57
          1575.23510	         7.18703e+57
          1576.04140	         7.87693e+57
          1576.84770	         8.86632e+57
          1577.65400	         8.36031e+57
          1578.46030	         9.55947e+57
          1579.26660	         9.90055e+57
          1580.07290	         8.96370e+57
          1580.87920	         8.05174e+57
          1581.68550	         8.01636e+57
          1582.49180	         7.46180e+57
          1583.29810	         6.57869e+57
          1584.10440	         8.26214e+57
          1584.91070	         9.03907e+57
          1585.71700	         8.47545e+57
          1586.52330	         8.26406e+57
          1587.32960	         8.37479e+57
          1588.13590	         8.27339e+57
          1588.94220	         8.38418e+57
          1589.74850	         8.79172e+57
          1590.55480	         9.43410e+57
          1591.36110	         8.38640e+57
          1592.16740	         8.14838e+57
          1592.97370	         7.95457e+57
          1593.78000	         8.24826e+57
          1594.58630	         8.63655e+57
          1595.39260	         8.52251e+57
          1596.19890	         9.28399e+57
          1597.00520	         9.73332e+57
          1597.81150	         8.45705e+57
          1598.61780	         7.15490e+57
          1599.42410	         6.57252e+57
          1600.23040	         6.68058e+57
          1601.03670	         8.04628e+57
          1601.84300	         8.12176e+57
          1602.64930	         9.00320e+57
          1603.45560	         8.98679e+57
          1604.26190	         8.28289e+57
          1605.06820	         8.64715e+57
          1605.87450	         7.43686e+57
          1606.68080	         6.78350e+57
          1607.48710	         6.40470e+57
          1608.29340	         5.09146e+57
          1609.09970	         6.43986e+57
          1609.90600	         7.33505e+57
          1610.71230	         7.48190e+57
          1611.51860	         6.70401e+57
          1612.32490	         6.49499e+57
          1613.13120	         7.71437e+57
          1613.93750	         7.82435e+57
          1614.74380	         7.78179e+57
          1615.55010	         8.50684e+57
          1616.35640	         1.01535e+58
          1617.16270	         1.05362e+58
          1617.96900	         9.82627e+57
          1618.77530	         7.79594e+57
          1619.58160	         6.91373e+57
          1620.38790	         7.50105e+57
          1621.19420	         9.32537e+57
          1622.00050	         8.31919e+57
          1622.80680	         8.07589e+57
          1623.61310	         8.62954e+57
          1624.41940	         8.35675e+57
          1625.22570	         8.71314e+57
          1626.03200	         8.31318e+57
          1626.83830	         7.25713e+57
          1627.64460	         6.94522e+57
          1628.45090	         7.86909e+57
          1629.25720	         8.82568e+57
          1630.06350	         9.73270e+57
          1630.86980	         7.44076e+57
          1631.67610	         8.32052e+57
          1632.48240	         9.09959e+57
          1633.28870	         8.70291e+57
          1634.09500	         8.76425e+57
          1634.90130	         1.07166e+58
          1635.70760	         8.49390e+57
          1636.51390	         5.93841e+57
          1637.32020	         7.36812e+57
          1638.12650	         9.21208e+57
          1638.93280	         1.08872e+58
          1639.73910	         1.11002e+58
          1640.54540	         1.00538e+58
          1641.35170	         9.20530e+57
          1642.15800	         9.10519e+57
          1642.96430	         8.65410e+57
          1643.77060	         8.51769e+57
          1644.57690	         8.68936e+57
          1645.38320	         8.99259e+57
          1646.18950	         6.79096e+57
          1646.99580	         7.39485e+57
          1647.80210	         8.45012e+57
          1648.60840	         8.42595e+57
          1649.41470	         8.01383e+57
          1650.22100	         6.28597e+57
          1651.02730	         6.65735e+57
          1651.83360	         7.20581e+57
          1652.63990	         8.22992e+57
          1653.44620	         8.92211e+57
          1654.25250	         8.08974e+57
          1655.05880	         7.55797e+57
          1655.86510	         7.76566e+57
          1656.67140	         7.73051e+57
          1657.47770	         7.48059e+57
          1658.28400	         7.79063e+57
          1659.09030	         8.26954e+57
          1659.89660	         8.94872e+57
          1660.70290	         9.77095e+57
          1661.50920	         9.95197e+57
          1662.31550	         9.16933e+57
          1663.12180	         8.18400e+57
          1663.92810	         8.82241e+57
          1664.73440	         1.07729e+58
          1665.54070	         1.19676e+58
          1666.34700	         1.19777e+58
          1667.15330	         1.03192e+58
          1667.95960	         8.57124e+57
          1668.76590	         6.96599e+57
          1669.57220	         6.79132e+57
          1670.37850	         7.55538e+57
          1671.18480	         7.25367e+57
          1671.99110	         6.97241e+57
          1672.79740	         6.93365e+57
          1673.60370	         6.25235e+57
          1674.41000	         7.10545e+57
          1675.21630	         8.00613e+57
          1676.02260	         7.38943e+57
          1676.82890	         6.58972e+57
          1677.63520	         6.22931e+57
          1678.44150	         7.03615e+57
          1679.24780	         9.19294e+57
          1680.05410	         7.59020e+57
          1680.86040	         6.70785e+57
          1681.66670	         7.58378e+57
          1682.47300	         8.68817e+57
          1683.27930	         7.77359e+57
          1684.08560	         7.41332e+57
          1684.89190	         7.44702e+57
          1685.69820	         5.33284e+57
          1686.50450	         5.19701e+57
          1687.31080	         6.41298e+57
          1688.11710	         7.70040e+57
          1688.92340	         6.94940e+57
          1689.72970	         5.98442e+57
          1690.53600	         6.10094e+57
          1691.34230	         6.19412e+57
          1692.14860	         7.43460e+57
          1692.95490	         8.21354e+57
          1693.76120	         8.07452e+57
          1694.56750	         8.02017e+57
          1695.37380	         9.15465e+57
          1696.18010	         9.79558e+57
          1696.98640	         9.11880e+57
          1697.79270	         8.29508e+57
          1698.59900	         8.14098e+57
          1699.40530	         7.70108e+57
          1700.21160	         7.94939e+57
          1701.01790	         8.30267e+57
          1701.82420	         8.21003e+57
          1702.63050	         8.69612e+57
          1703.43680	         8.36765e+57
          1704.24310	         7.99055e+57
          1705.04940	         8.35859e+57
          1705.85570	         7.85174e+57
          1706.66200	         8.03181e+57
          1707.46830	         8.10023e+57
          1708.27460	         7.89028e+57
          1709.08090	         8.07647e+57
          1709.88720	         7.66737e+57
          1710.69350	         6.72461e+57
          1711.49980	         6.16801e+57
          1712.30610	         7.35988e+57
          1713.11240	         8.55953e+57
          1713.91870	         7.68776e+57
          1714.72500	         7.88303e+57
          1715.53130	         8.08825e+57
          1716.33760	         7.47274e+57
          1717.14390	         6.66193e+57
          1717.95020	         8.35253e+57
          1718.75650	         9.13778e+57
          1719.56280	         8.63155e+57
          1720.36910	         7.35581e+57
          1721.17540	         7.43107e+57
          1721.98170	         6.73212e+57
          1722.78800	         5.66899e+57
          1723.59430	         7.11632e+57
          1724.40060	         8.53238e+57
          1725.20690	         8.37127e+57
          1726.01320	         8.26343e+57
          1726.81950	         7.30415e+57
          1727.62580	         6.98789e+57
          1728.43210	         6.97026e+57
          1729.23840	         6.38543e+57
          1730.04470	         6.86885e+57
          1730.85100	         7.28821e+57
          1731.65730	         7.67394e+57
          1732.46360	         7.75901e+57
          1733.26990	         7.42796e+57
          1734.07620	         6.71573e+57
          1734.88250	         7.16163e+57
          1735.68880	         7.54417e+57
          1736.49510	         7.69013e+57
          1737.30140	         7.90396e+57
          1738.10770	         6.79728e+57
          1738.91400	         6.97127e+57
          1739.72030	         6.70996e+57
          1740.52660	         6.60691e+57
          1741.33290	         6.21723e+57
          1742.13920	         6.08489e+57
          1742.94550	         7.15414e+57
          1743.75180	         7.23902e+57
          1744.55810	         6.94978e+57
          1745.36440	         6.22490e+57
          1746.17070	         4.87663e+57
          1746.97700	         5.26980e+57
          1747.78330	         7.80002e+57
          1748.58960	         8.18875e+57
          1749.39590	         6.97569e+57
          1750.20220	         5.31654e+57
          1751.00850	         4.26309e+57
          1751.81480	         4.97302e+57
          1752.62110	         6.64446e+57
          1753.42740	         8.66874e+57
          1754.23370	         7.07991e+57
          1755.04000	         6.05764e+57
          1755.84630	         6.97821e+57
          1756.65260	         8.02179e+57
          1757.45890	         9.73923e+57
          1758.26520	         7.08953e+57
          1759.07150	         7.37259e+57
          1759.87780	         8.38338e+57
          1760.68410	         7.14420e+57
          1761.49040	         7.38308e+57
          1762.29670	         5.40178e+57
          1763.10300	         6.63490e+57
          1763.90930	         7.36705e+57
          1764.71560	         6.88279e+57
          1765.52190	         7.51043e+57
          1766.32820	         8.94540e+57
          1767.13450	         8.71609e+57
          1767.94080	         7.71510e+57
          1768.74710	         7.58481e+57
          1769.55340	         7.00372e+57
          1770.35970	         6.54339e+57
          1771.16600	         7.92345e+57
          1771.97230	         8.17970e+57
          1772.77860	         8.29937e+57
          1773.58490	         7.04955e+57
          1774.39120	         5.95156e+57
          1775.19750	         6.01322e+57
          1776.00380	         6.74943e+57
          1776.81010	         7.04649e+57
          1777.61640	         6.74045e+57
          1778.42270	         6.44791e+57
          1779.22900	         6.91374e+57
          1780.03530	         6.53885e+57
          1780.84160	         7.20803e+57
          1781.64790	         8.44983e+57
          1782.45420	         7.59927e+57
          1783.26050	         5.86364e+57
          1784.06680	         6.02453e+57
          1784.87310	         6.44502e+57
          1785.67940	         7.10883e+57
          1786.48570	         7.15752e+57
          1787.29200	         6.76096e+57
          1788.09830	         7.18903e+57
          1788.90460	         6.56542e+57
          1789.71090	         5.07273e+57
          1790.51720	         5.24549e+57
          1791.32350	         6.69498e+57
          1792.12980	         7.32490e+57
          1792.93610	         6.69827e+57
          1793.74240	         6.90750e+57
          1794.54870	         8.61524e+57
          1795.35500	         9.04787e+57
          1796.16130	         8.10596e+57
          1796.96760	         7.00310e+57
          1797.77390	         7.06809e+57
          1798.58020	         7.30305e+57
          1799.38650	         6.85064e+57
          1800.19280	         6.84134e+57
          1800.99910	         7.63679e+57
          1801.80540	         7.15414e+57
          1802.61170	         7.76803e+57
          1803.41800	         8.33829e+57
          1804.22430	         9.01720e+57
          1805.03060	         8.96646e+57
          1805.83690	         7.94336e+57
          1806.64320	         8.57946e+57
          1807.44950	         8.72998e+57
          1808.25580	         7.26951e+57
          1809.06210	         7.80640e+57
          1809.86840	         7.17599e+57
          1810.67470	         7.30011e+57
          1811.48100	         7.99224e+57
          1812.28730	         8.00734e+57
          1813.09360	         8.21692e+57
          1813.89990	         8.01180e+57
          1814.70620	         7.47003e+57
          1815.51250	         8.75510e+57
          1816.31880	         8.39923e+57
          1817.12510	         7.18206e+57
          1817.93140	         6.83646e+57
          1818.73770	         7.57378e+57
          1819.54400	         8.53578e+57
          1820.35030	         7.71776e+57
          1821.15660	         6.24924e+57
          1821.96290	         5.76322e+57
          1822.76920	         6.60829e+57
          1823.57550	         6.82578e+57
          1824.38180	         7.17214e+57
          1825.18810	         7.71190e+57
          1825.99440	         8.52870e+57
          1826.80070	         8.75988e+57
          1827.60700	         7.37610e+57
          1828.41330	         6.30977e+57
          1829.21960	         6.34402e+57
          1830.02590	         6.79673e+57
          1830.83220	         7.69323e+57
          1831.63850	         8.16710e+57
          1832.44480	         7.24454e+57
          1833.25110	         8.09695e+57
          1834.05740	         8.15636e+57
          1834.86370	         6.72968e+57
          1835.67000	         6.47653e+57
          1836.47630	         7.46878e+57
          1837.28260	         8.46876e+57
          1838.08890	         8.29911e+57
          1838.89520	         8.75644e+57
          1839.70150	         8.60577e+57
          1840.50780	         7.36061e+57
          1841.31410	         6.67167e+57
          1842.12040	         7.37684e+57
          1842.92670	         7.93515e+57
          1843.73300	         6.64120e+57
          1844.53930	         6.56784e+57
          1845.34560	         8.33444e+57
          1846.15190	         8.57933e+57
          1846.95820	         7.76465e+57
          1847.76450	         7.04282e+57
          1848.57080	         6.65731e+57
          1849.37710	         6.03648e+57
          1850.18340	         6.30095e+57
          1850.98970	         7.26705e+57
          1851.79600	         7.63893e+57
          1852.60230	         7.66321e+57
          1853.40860	         6.18123e+57
          1854.21490	         5.89182e+57
          1855.02120	         5.45907e+57
          1855.82750	         5.52063e+57
          1856.63380	         6.16183e+57
          1857.44010	         7.39712e+57
          1858.24640	         6.84760e+57
          1859.05270	         6.59164e+57
          1859.85900	         5.88137e+57
          1860.66530	         6.43143e+57
          1861.47160	         6.82414e+57
          1862.27790	         7.04064e+57
          1863.08420	         6.71236e+57
          1863.89050	         7.26656e+57
          1864.69680	         7.46153e+57
          1865.50310	         7.18662e+57
          1866.30940	         6.51299e+57
          1867.11570	         6.88411e+57
          1867.92200	         7.98258e+57
          1868.72830	         7.41687e+57
          1869.53460	         6.56988e+57
          1870.34090	         7.12198e+57
          1871.14720	         7.53474e+57
          1871.95350	         6.38929e+57
          1872.75980	         6.50451e+57
          1873.56610	         6.95738e+57
          1874.37240	         5.81336e+57
          1875.17870	         5.51573e+57
          1875.98500	         6.54108e+57
          1876.79130	         6.61287e+57
          1877.59760	         6.49875e+57
          1878.40390	         6.06750e+57
          1879.21020	         6.01034e+57
          1880.01650	         7.67966e+57
          1880.82280	         8.35237e+57
          1881.62910	         9.15059e+57
          1882.43540	         9.91122e+57
          1883.24170	         8.18822e+57
          1884.04800	         6.74232e+57
          1884.85430	         7.75134e+57
          1885.66060	         9.30682e+57
          1886.46690	         9.12613e+57
          1887.27320	         7.94771e+57
          1888.07950	         7.12733e+57
          1888.88580	         6.89220e+57
          1889.69210	         7.93743e+57
          1890.49840	         8.45800e+57
          1891.30470	         8.05185e+57
          1892.11100	         8.12487e+57
          1892.91730	         7.53952e+57
          1893.72360	         7.74026e+57
          1894.52990	         7.85988e+57
          1895.33620	         7.89958e+57
          1896.14250	         5.81812e+57
          1896.94880	         4.10602e+57
          1897.75510	         4.34907e+57
          1898.56140	         6.17862e+57
          1899.36770	         8.16212e+57
          1900.17400	         6.42801e+57
          1900.98030	         5.33248e+57
          1901.78660	         7.79966e+57
          1902.59290	         7.05471e+57
          1903.39920	         8.49971e+57
          1904.20550	         9.49282e+57
          1905.01180	         9.30070e+57
          1905.81810	         9.19403e+57
          1906.62440	         1.15568e+58
          1907.43070	         1.49701e+58
          1908.23700	         1.48060e+58
          1909.04330	         1.26584e+58
          1909.84960	         1.20338e+58
          1910.65590	         1.13828e+58
          1911.46220	         9.79882e+57
          1912.26850	         7.67878e+57
          1913.07480	         5.77606e+57
          1913.88110	         5.10645e+57
          1914.68740	         5.58733e+57
          1915.49370	         5.98800e+57
          1916.30000	         6.46486e+57
          1917.10630	         7.52374e+57
          1917.91260	         6.47516e+57
          1918.71890	         5.91405e+57
          1919.52520	         5.90905e+57
          1920.33150	         6.17677e+57
          1921.13780	         7.15367e+57
          1921.94410	         8.09741e+57
          1922.75040	         7.87211e+57
          1923.55670	         7.51302e+57
          1924.36300	         7.72320e+57
          1925.16930	         6.57277e+57
          1925.97560	         4.95800e+57
          1926.78190	         4.86781e+57
          1927.58820	         4.95615e+57
          1928.39450	         5.10966e+57
          1929.20080	         4.68845e+57
          1930.00710	         6.67442e+57
          1930.81340	         6.92921e+57
          1931.61970	         6.73905e+57
          1932.42600	         8.03436e+57
          1933.23230	         8.77023e+57
          1934.03860	         7.33054e+57
          1934.84490	         5.34635e+57
          1935.65120	         5.71536e+57
          1936.45750	         7.19772e+57
          1937.26380	         6.29818e+57
          1938.07010	         7.47461e+57
          1938.87640	         8.00603e+57
          1939.68270	         8.81947e+57
          1940.48900	         9.29877e+57
          1941.29530	         8.74197e+57
          1942.10160	         7.74832e+57
          1942.90790	         5.88761e+57
          1943.71420	         5.75258e+57
          1944.52050	         5.70680e+57
          1945.32680	         5.57771e+57
          1946.13310	         6.78875e+57
          1946.93940	         8.56638e+57
          1947.74570	         7.90853e+57
          1948.55200	         6.83314e+57
          1949.35830	         6.48043e+57
          1950.16460	         5.64413e+57
          1950.97090	         6.28827e+57
          1951.77720	         7.58004e+57
          1952.58350	         8.49255e+57
          1953.38980	         7.74496e+57
          1954.19610	         4.90879e+57
          1955.00240	         5.29298e+57
          1955.80870	         5.91201e+57
          1956.61500	         6.31939e+57
          1957.42130	         6.50050e+57
          1958.22760	         7.12633e+57
          1959.03390	         6.73259e+57
          1959.84020	         7.03940e+57
          1960.64650	         7.39267e+57
          1961.45280	         6.69638e+57
          1962.25910	         6.46953e+57
          1963.06540	         6.49332e+57
          1963.87170	         5.55562e+57
          1964.67800	         7.81048e+57
          1965.48430	         6.76999e+57
          1966.29060	         6.69997e+57
          1967.09690	         7.80534e+57
          1967.90320	         6.47553e+57
          1968.70950	         7.50211e+57
          1969.51580	         6.18314e+57
          1970.32210	         6.15720e+57
          1971.12840	         7.18963e+57
          1971.93470	         4.91587e+57
          1972.74100	         4.83614e+57
          1973.54730	         6.35932e+57
          1974.35360	         7.09710e+57
          1975.15990	         6.81552e+57
          1975.96620	         7.25649e+57
          1976.77250	         8.75545e+57
          1977.57880	         7.68795e+57
          1978.38510	         6.62888e+57
          1979.19140	         7.60553e+57
          1979.99770	         8.82103e+57
          1980.80400	         8.76019e+57
          1981.61030	         7.01177e+57
          1982.41660	         5.47571e+57
          1983.22290	         5.78815e+57
          1984.02920	         5.41246e+57
          1984.83550	         5.70036e+57
          1985.64180	         6.18273e+57
          1986.44810	         6.03044e+57
          1987.25440	         5.29900e+57
          1988.06070	         5.22985e+57
          1988.86700	         5.78978e+57
          1989.67330	         6.05681e+57
          1990.47960	         5.65428e+57
          1991.28590	         6.06625e+57
          1992.09220	         6.37976e+57
          1992.89850	         5.74359e+57
          1993.70480	         5.03960e+57
          1994.51110	         5.15961e+57
          1995.31740	         4.23247e+57
          1996.12370	         4.25353e+57
          1996.93000	         5.91495e+57
          1997.73630	         7.90929e+57
          1998.54260	         8.54676e+57
          1999.34890	         7.48535e+57
          2000.15520	         7.56875e+57
          2000.96150	         7.01461e+57
          2001.76780	         5.35643e+57
          2002.57410	         4.36528e+57
          2003.38040	         6.87244e+57
          2004.18670	         6.94389e+57
          2004.99300	         5.77429e+57
          2005.79930	         7.66525e+57
          2006.60560	         7.03732e+57
          2007.41190	         5.70444e+57
          2008.21820	         6.33195e+57
          2009.02450	         7.24731e+57
          2009.83080	         7.45212e+57
          2010.63710	         6.52348e+57
          2011.44340	         6.32718e+57
          2012.24970	         6.50555e+57
          2013.05600	         6.38946e+57
          2013.86230	         5.39669e+57
          2014.66860	         5.58421e+57
          2015.47490	         6.02545e+57
          2016.28120	         4.83130e+57
          2017.08750	         4.99264e+57
          2017.89380	         6.10800e+57
          2018.70010	         5.62402e+57
          2019.50640	         6.08381e+57
          2020.31270	         6.76304e+57
          2021.11900	         7.49994e+57
          2021.92530	         8.23363e+57
          2022.73160	         7.31294e+57
          2023.53790	         6.94486e+57
          2024.34420	         6.05603e+57
          2025.15050	         5.24805e+57
          2025.95680	         5.75951e+57
          2026.76310	         6.26677e+57
          2027.56940	         5.86748e+57
          2028.37570	         6.34524e+57
          2029.18200	         5.36830e+57
          2029.98830	         4.95287e+57
          2030.79460	         4.28553e+57
          2031.60090	         4.79111e+57
          2032.40720	         4.89814e+57
          2033.21350	         5.38331e+57
          2034.01980	         4.63412e+57
          2034.82610	         3.68140e+57
          2035.63240	         5.18297e+57
          2036.43870	         5.77585e+57
          2037.24500	         6.66019e+57
          2038.05130	         6.12046e+57
          2038.85760	         5.59463e+57
          2039.66390	         7.18990e+57
          2040.47020	         6.55868e+57
          2041.27650	         5.87487e+57
          2042.08280	         5.85585e+57
          2042.88910	         5.91906e+57
          2043.69540	         5.70858e+57
          2044.50170	         6.99613e+57
          2045.30800	         4.64482e+57
          2046.11430	         3.90693e+57
          2046.92060	         6.41560e+57
          2047.72690	         6.99330e+57
          2048.53320	         6.61518e+57
          2049.33950	         5.39194e+57
          2050.14580	         4.37635e+57
          2050.95210	         5.82486e+57
          2051.75840	         7.80077e+57
          2052.56470	         6.15477e+57
          2053.37100	         4.65757e+57
          2054.17730	         5.29462e+57
          2054.98360	         5.51464e+57
          2055.78990	         3.88547e+57
          2056.59620	         2.86417e+57
          2057.40250	         5.05817e+57
          2058.20880	         6.76211e+57
          2059.01510	         5.76462e+57
          2059.82140	         6.07476e+57
          2060.62770	         1.05789e+58
          2061.43400	         1.51425e+58
          2062.24030	         1.24972e+58
          2063.04660	         3.65462e+57
          2063.85290	        -7.79651e+56
          2064.65920	        -4.14657e+57
          2065.46550	        -8.56350e+57
          2066.27180	        -7.90372e+57
          2067.07810	         5.08198e+57
          2067.88440	         6.49236e+57
          2068.69070	         6.53743e+57
          2069.49700	         5.65613e+57
          2070.30330	         4.43972e+57
          2071.10960	         6.26318e+57
          2071.91590	         6.44400e+57
          2072.72220	         5.12204e+57
          2073.52850	         5.82163e+57
          2074.33480	         5.89287e+57
          2075.14110	         4.66543e+57
          2075.94740	         1.77137e+57
          2076.75370	         3.33293e+57
          2077.56000	         4.88666e+57
          2078.36630	         6.37792e+57
          2079.17260	         4.78207e+57
          2079.97890	         5.08189e+57
          2080.78520	         4.97961e+57
          2081.59150	         3.85077e+57
          2082.39780	         4.68561e+57
          2083.20410	         4.29705e+57
          2084.01040	         2.85075e+57
          2084.81670	         4.67524e+57
          2085.62300	         4.78300e+57
          2086.42930	         3.73856e+57
          2087.23560	         2.39623e+57
          2088.04190	         3.22130e+57
          2088.84820	         4.16449e+57
          2089.65450	         2.90124e+57
          2090.46080	         2.76590e+57
          2091.26710	         2.02380e+57
          2092.07340	         1.03376e+57
          2092.87970	         2.16845e+57
          2093.68600	         1.01419e+56
          2094.49230	         3.39223e+57
          2095.29860	         6.74690e+57
          2096.10490	         5.85088e+57
          2096.91120	         4.77873e+57
          2097.71750	         3.38854e+56
          2098.52380	         5.44824e+56
          2099.33010	         6.53895e+56
          2100.13640	         5.32919e+56
          2100.94270	         2.30148e+57
          2101.74900	         3.68167e+57
          2102.55530	         1.62449e+57
          2103.36160	         1.42947e+57
          2104.16790	         1.88453e+57
          2104.97420	         1.62129e+57
          2105.78050	         1.14044e+57
          2106.58680	         9.66840e+56
          2107.39310	         1.52539e+57
          2108.19940	         8.93013e+56
          2109.00570	        -8.31907e+56
          2109.81200	        -9.69242e+56
          2110.61830	         1.73651e+57
          2111.42460	         4.05956e+57
          2112.23090	         1.55697e+57
          2113.03720	         2.97021e+57
          2113.84350	         1.44371e+57
          2114.64980	         9.71121e+57
          2115.45610	        -9.78382e+56
          2116.26240	        -5.68332e+57
          2117.06870	         3.98888e+56
          2117.87500	        -3.73040e+57
          2118.68130	        -2.81178e+57
          2119.48760	         5.12690e+56
          2120.29390	        -1.42502e+56
          2121.10020	        -7.90660e+56
          2121.90650	         1.13023e+57
          2122.71280	         2.75204e+57
          2123.51910	         6.78691e+57
          2124.32540	         1.86112e+57
          2125.13170	        -1.87501e+57
          2125.93800	         3.70948e+56
          2126.74430	         2.65036e+57
          2127.55060	        -2.34894e+57
          2128.35690	        -1.79091e+57
          2129.16320	        -3.11499e+57
          2129.96950	        -6.22581e+57
          2130.77580	        -5.21753e+57
          2131.58210	        -1.05446e+57
          2132.38840	        -6.36539e+57
          2133.19470	        -2.53864e+57
          2134.00100	        -1.96972e+57
          2134.80730	        -3.65678e+56
          2135.61360	         2.51302e+57
          2136.41990	         1.81268e+56
          2137.22620	        -1.06329e+57
          2138.03250	         8.11361e+56
          2138.83880	        -2.06427e+57
          2139.64510	        -2.99068e+57
          2140.45140	        -1.52172e+57
          2141.25770	        -1.37336e+58
          2142.06400	        -1.52919e+58
          2142.87030	        -4.52678e+57
          2143.67660	         1.79674e+57
          2144.48290	         1.16239e+58
          2145.28920	         1.15301e+58
          2146.09550	        -5.45862e+57
          2146.90180	        -8.35083e+57
          2147.70810	        -5.17959e+57
          2148.51440	        -2.11137e+57
          2149.32070	        -9.55628e+57
          2150.12700	        -1.28511e+58
          2150.93330	        -5.44498e+57
          2151.73960	         4.42462e+57
          2152.54590	        -6.80557e+57
          2153.35220	         3.98451e+57
          2154.15850	        -8.88509e+57
          2154.96480	        -3.22169e+56
          2155.77110	         1.50229e+57
          2156.57740	        -6.26257e+57
          2157.38370	        -5.32445e+57
          2158.19000	        -1.17293e+57
          2158.99630	        -5.05257e+57
          2159.80260	        -5.49361e+57
          2160.60890	        -1.53510e+58
          2161.41520	        -4.69547e+56
          2162.22150	        -4.06739e+57
          2163.02780	        -1.22897e+57
          2163.83410	         3.73297e+57
          2164.64040	        -2.70535e+57
          2165.44670	        -5.23601e+57
          2166.25300	        -5.49950e+57
          2167.05930	        -4.95081e+56
          2167.86560	         3.31316e+57
          2168.67190	        -5.95505e+56
          2169.47820	        -3.50305e+57
          2170.28450	        -2.98785e+57
          2171.09080	        -5.57606e+57
          2171.89710	        -7.09482e+57
          2172.70340	         1.82682e+56
          2173.50970	        -8.07222e+57
          2174.31600	        -5.14017e+57
          2175.12230	        -3.58288e+57
          2175.92860	        -1.90028e+57
          2176.73490	        -9.72802e+57
          2177.54120	        -1.38994e+55
          2178.34750	         8.03570e+56
          2179.15380	                 nan
          2179.96010	                 nan
          2180.76640	                 nan
          2181.57270	                 nan
          2182.37900	                 nan
          2183.18530	                 nan
          2183.99160	                 nan
          2184.79790	                 nan
          2185.60420	                 nan
          2186.41050	                 nan
          2187.21680	                 nan
          2188.02310	                 nan
          2188.82940	                 nan
          2189.63570	                 nan
          2190.44200	                 nan
          2191.24830	                 nan
          2192.05460	                 nan
          2192.86090	                 nan
          2193.66720	                 nan
          2194.47350	                 nan
          2195.27980	                 nan
          2196.08610	                 nan
          2196.89240	                 nan
          2197.69870	                 nan
          2198.50500	                 nan
          2199.31130	                 nan
          2200.11760	                 nan
          2200.92390	                 nan
          2201.73020	                 nan
          2202.53650	                 nan
          2203.34280	                 nan
          2204.14910	                 nan
          2204.95540	                 nan
          2205.76170	                 nan
          2206.56800	                 nan
          2207.37430	                 nan
          2208.18060	                 nan
          2208.98690	                 nan
          2209.79320	                 nan
          2210.59950	                 nan
          2211.40580	                 nan
          2212.21210	                 nan
          2213.01840	                 nan
          2213.82470	                 nan
          2214.63100	                 nan
          2215.43730	         0.00000e+00
