#sample_489_stacked_spectrum_rest_UV-bands_median_H-alpha_noDC.txt
#median Lum: 1.68143e+42
#Rest-frame wavelength (A) | Luminosity (erg/s/A)
#
          1110.00000	         0.00000e+00
          1110.80630	         9.40634e+58
          1111.61260	        -1.17959e+58
          1112.41890	         1.13804e+59
          1113.22520	        -1.81163e+59
          1114.03150	        -6.44612e+58
          1114.83780	         1.67539e+59
          1115.64410	         6.01051e+58
          1116.45040	         3.33634e+58
          1117.25670	         4.77651e+58
          1118.06300	         1.37341e+59
          1118.86930	         3.45452e+58
          1119.67560	        -5.27188e+56
          1120.48190	        -6.01375e+58
          1121.28820	        -1.02072e+59
          1122.09450	         2.84615e+58
          1122.90080	        -6.86811e+57
          1123.70710	         1.89005e+58
          1124.51340	         1.01855e+59
          1125.31970	         4.55699e+56
          1126.12600	        -3.32346e+57
          1126.93230	        -2.16838e+58
          1127.73860	        -3.30070e+58
          1128.54490	        -5.23134e+56
          1129.35120	         1.36127e+58
          1130.15750	        -5.06972e+56
          1130.96380	        -1.09758e+58
          1131.77010	         3.70699e+58
          1132.57640	         3.41017e+58
          1133.38270	         5.10150e+58
          1134.18900	         2.47901e+58
          1134.99530	         1.82107e+57
          1135.80160	         3.30536e+58
          1136.60790	         1.93505e+58
          1137.41420	         3.37026e+57
          1138.22050	         6.35405e+58
          1139.02680	         3.01430e+58
          1139.83310	         2.09402e+58
          1140.63940	         1.18731e+58
          1141.44570	        -2.45186e+58
          1142.25200	        -7.84259e+57
          1143.05830	         2.90380e+58
          1143.86460	         3.29614e+58
          1144.67090	         1.88585e+58
          1145.47720	         2.57452e+58
          1146.28350	         2.21018e+58
          1147.08980	         1.99388e+58
          1147.89610	         3.24192e+58
          1148.70240	         2.25772e+58
          1149.50870	         2.59512e+58
          1150.31500	         1.47401e+58
          1151.12130	        -8.47047e+56
          1151.92760	        -4.43792e+57
          1152.73390	        -2.13020e+57
          1153.54020	         1.23544e+57
          1154.34650	         1.95907e+58
          1155.15280	         1.37696e+58
          1155.95910	         2.02736e+58
          1156.76540	         1.79068e+58
          1157.57170	        -3.19592e+57
          1158.37800	         6.04882e+57
          1159.18430	        -2.80779e+57
          1159.99060	         4.15930e+57
          1160.79690	         1.92301e+56
          1161.60320	         1.63197e+58
          1162.40950	         1.57934e+58
          1163.21580	         1.86237e+58
          1164.02210	         1.69679e+58
          1164.82840	         1.02675e+58
          1165.63470	         1.78998e+58
          1166.44100	         2.20409e+58
          1167.24730	         9.97895e+57
          1168.05360	         7.80483e+57
          1168.85990	         5.47653e+57
          1169.66620	         1.18755e+58
          1170.47250	         1.39729e+58
          1171.27880	         5.41923e+57
          1172.08510	         1.45104e+58
          1172.89140	         1.50248e+58
          1173.69770	         4.09470e+57
          1174.50400	         1.04064e+58
          1175.31030	         8.78288e+57
          1176.11660	         1.53793e+58
          1176.92290	         1.36966e+58
          1177.72920	         9.25428e+57
          1178.53550	         6.77881e+57
          1179.34180	         5.09828e+57
          1180.14810	         7.34005e+57
          1180.95440	         1.18043e+58
          1181.76070	         5.89698e+57
          1182.56700	         7.93682e+57
          1183.37330	         8.23753e+57
          1184.17960	         8.54843e+57
          1184.98590	         8.31366e+57
          1185.79220	         6.86147e+57
          1186.59850	         6.06892e+57
          1187.40480	         7.34983e+57
          1188.21110	         1.83480e+58
          1189.01740	         1.12150e+58
          1189.82370	         1.07397e+58
          1190.63000	         1.23551e+58
          1191.43630	         1.20790e+58
          1192.24260	         9.16412e+57
          1193.04890	         1.23757e+58
          1193.85520	         1.38462e+58
          1194.66150	         9.52522e+57
          1195.46780	         1.28215e+58
          1196.27410	         1.17946e+58
          1197.08040	         9.10944e+57
          1197.88670	         9.54846e+57
          1198.69300	         1.61514e+58
          1199.49930	         1.98526e+58
          1200.30560	         1.15392e+58
          1201.11190	         1.28988e+58
          1201.91820	         1.26122e+58
          1202.72450	         1.04837e+58
          1203.53080	         1.44619e+58
          1204.33710	         8.31510e+57
          1205.14340	         9.02947e+57
          1205.94970	         6.26901e+57
          1206.75600	         9.34967e+57
          1207.56230	         7.32251e+57
          1208.36860	         1.16123e+58
          1209.17490	         6.90947e+57
          1209.98120	         4.83564e+57
          1210.78750	         6.49830e+57
          1211.59380	         7.90780e+57
          1212.40010	         1.57763e+58
          1213.20640	         1.93928e+58
          1214.01270	         2.13512e+58
          1214.81900	         2.59459e+58
          1215.62530	         4.34077e+58
          1216.43160	         8.99705e+58
          1217.23790	         1.52733e+59
          1218.04420	         1.15711e+59
          1218.85050	         8.99057e+58
          1219.65680	         6.26535e+58
          1220.46310	         3.49724e+58
          1221.26940	         2.36441e+58
          1222.07570	         1.48551e+58
          1222.88200	         1.34454e+58
          1223.68830	         1.04257e+58
          1224.49460	         9.67157e+57
          1225.30090	         7.37024e+57
          1226.10720	         6.27182e+57
          1226.91350	         6.51648e+57
          1227.71980	         7.62527e+57
          1228.52610	         1.03918e+58
          1229.33240	         8.53410e+57
          1230.13870	         6.05271e+57
          1230.94500	         6.49746e+57
          1231.75130	         7.59546e+57
          1232.55760	         1.08382e+58
          1233.36390	         7.74664e+57
          1234.17020	         9.76650e+57
          1234.97650	         9.52923e+57
          1235.78280	         6.93002e+57
          1236.58910	         6.11823e+57
          1237.39540	         8.31191e+57
          1238.20170	         8.06005e+57
          1239.00800	         1.11495e+58
          1239.81430	         1.45952e+58
          1240.62060	         1.10275e+58
          1241.42690	         8.87842e+57
          1242.23320	         1.07431e+58
          1243.03950	         7.52391e+57
          1243.84580	         8.53255e+57
          1244.65210	         9.28854e+57
          1245.45840	         9.10288e+57
          1246.26470	         7.93530e+57
          1247.07100	         6.74174e+57
          1247.87730	         6.45227e+57
          1248.68360	         7.01992e+57
          1249.48990	         8.21758e+57
          1250.29620	         7.16943e+57
          1251.10250	         6.41348e+57
          1251.90880	         4.08361e+57
          1252.71510	         5.84052e+57
          1253.52140	         7.50160e+57
          1254.32770	         8.67009e+57
          1255.13400	         1.24833e+58
          1255.94030	         1.10543e+58
          1256.74660	         9.50950e+57
          1257.55290	         1.22764e+58
          1258.35920	         9.12227e+57
          1259.16550	         5.26171e+57
          1259.97180	         4.45283e+57
          1260.77810	         9.88804e+57
          1261.58440	         1.17765e+58
          1262.39070	         8.35699e+57
          1263.19700	         9.33795e+57
          1264.00330	         9.51937e+57
          1264.80960	         1.14161e+58
          1265.61590	         1.33359e+58
          1266.42220	         1.08577e+58
          1267.22850	         9.73064e+57
          1268.03480	         1.28514e+58
          1268.84110	         1.38660e+58
          1269.64740	         1.20867e+58
          1270.45370	         1.13795e+58
          1271.26000	         1.09546e+58
          1272.06630	         1.07613e+58
          1272.87260	         1.15482e+58
          1273.67890	         1.48510e+58
          1274.48520	         1.42325e+58
          1275.29150	         1.17647e+58
          1276.09780	         1.04231e+58
          1276.90410	         1.50792e+58
          1277.71040	         1.43517e+58
          1278.51670	         1.20787e+58
          1279.32300	         1.32788e+58
          1280.12930	         1.32721e+58
          1280.93560	         1.11137e+58
          1281.74190	         1.04791e+58
          1282.54820	         1.30191e+58
          1283.35450	         1.10263e+58
          1284.16080	         1.19936e+58
          1284.96710	         1.56046e+58
          1285.77340	         1.16489e+58
          1286.57970	         9.78859e+57
          1287.38600	         1.28449e+58
          1288.19230	         1.58609e+58
          1288.99860	         1.38283e+58
          1289.80490	         8.84183e+57
          1290.61120	         1.13921e+58
          1291.41750	         1.63661e+58
          1292.22380	         1.28673e+58
          1293.03010	         9.45056e+57
          1293.83640	         1.07731e+58
          1294.64270	         8.95461e+57
          1295.44900	         5.77203e+57
          1296.25530	         7.20436e+57
          1297.06160	         1.02090e+58
          1297.86790	         1.31515e+58
          1298.67420	         1.30653e+58
          1299.48050	         1.17220e+58
          1300.28680	         1.17399e+58
          1301.09310	         7.15664e+57
          1301.89940	         3.98411e+57
          1302.70570	         7.79469e+57
          1303.51200	         9.01650e+57
          1304.31830	         1.08967e+58
          1305.12460	         1.27749e+58
          1305.93090	         1.21248e+58
          1306.73720	         1.28375e+58
          1307.54350	         1.36665e+58
          1308.34980	         1.34398e+58
          1309.15610	         1.53420e+58
          1309.96240	         1.61824e+58
          1310.76870	         1.37674e+58
          1311.57500	         1.38267e+58
          1312.38130	         1.29639e+58
          1313.18760	         1.50581e+58
          1313.99390	         1.59471e+58
          1314.80020	         1.54382e+58
          1315.60650	         1.58202e+58
          1316.41280	         1.31957e+58
          1317.21910	         1.13159e+58
          1318.02540	         1.28524e+58
          1318.83170	         1.23080e+58
          1319.63800	         1.19483e+58
          1320.44430	         1.21195e+58
          1321.25060	         1.23224e+58
          1322.05690	         1.18915e+58
          1322.86320	         1.19300e+58
          1323.66950	         1.17689e+58
          1324.47580	         1.11038e+58
          1325.28210	         1.03469e+58
          1326.08840	         1.06172e+58
          1326.89470	         1.04615e+58
          1327.70100	         9.12922e+57
          1328.50730	         8.68294e+57
          1329.31360	         1.02514e+58
          1330.11990	         1.06656e+58
          1330.92620	         9.81030e+57
          1331.73250	         1.11419e+58
          1332.53880	         9.03966e+57
          1333.34510	         9.48316e+57
          1334.15140	         9.04719e+57
          1334.95770	         7.96243e+57
          1335.76400	         9.86681e+57
          1336.57030	         1.18047e+58
          1337.37660	         1.26588e+58
          1338.18290	         1.23442e+58
          1338.98920	         1.17245e+58
          1339.79550	         1.17780e+58
          1340.60180	         1.26969e+58
          1341.40810	         1.39522e+58
          1342.21440	         1.20821e+58
          1343.02070	         1.32348e+58
          1343.82700	         1.58571e+58
          1344.63330	         1.39969e+58
          1345.43960	         1.36712e+58
          1346.24590	         1.06404e+58
          1347.05220	         1.03057e+58
          1347.85850	         1.03456e+58
          1348.66480	         1.13574e+58
          1349.47110	         1.27119e+58
          1350.27740	         1.10524e+58
          1351.08370	         1.08101e+58
          1351.89000	         1.10992e+58
          1352.69630	         1.01278e+58
          1353.50260	         1.05809e+58
          1354.30890	         1.17788e+58
          1355.11520	         1.19825e+58
          1355.92150	         1.10757e+58
          1356.72780	         1.02102e+58
          1357.53410	         1.02310e+58
          1358.34040	         1.14734e+58
          1359.14670	         1.04553e+58
          1359.95300	         1.07245e+58
          1360.75930	         1.15716e+58
          1361.56560	         1.02762e+58
          1362.37190	         1.16488e+58
          1363.17820	         1.22454e+58
          1363.98450	         1.23315e+58
          1364.79080	         1.22512e+58
          1365.59710	         1.17841e+58
          1366.40340	         1.11868e+58
          1367.20970	         1.01733e+58
          1368.01600	         1.02451e+58
          1368.82230	         1.16690e+58
          1369.62860	         1.20833e+58
          1370.43490	         9.84436e+57
          1371.24120	         9.72727e+57
          1372.04750	         8.86707e+57
          1372.85380	         9.22854e+57
          1373.66010	         1.08225e+58
          1374.46640	         1.03169e+58
          1375.27270	         1.01734e+58
          1376.07900	         8.58362e+57
          1376.88530	         9.01778e+57
          1377.69160	         1.03420e+58
          1378.49790	         7.35573e+57
          1379.30420	         6.56398e+57
          1380.11050	         8.75600e+57
          1380.91680	         8.56654e+57
          1381.72310	         8.11637e+57
          1382.52940	         9.10514e+57
          1383.33570	         8.83848e+57
          1384.14200	         9.61423e+57
          1384.94830	         1.04516e+58
          1385.75460	         1.02629e+58
          1386.56090	         1.25748e+58
          1387.36720	         1.20223e+58
          1388.17350	         1.34043e+58
          1388.97980	         1.32451e+58
          1389.78610	         1.09369e+58
          1390.59240	         7.76662e+57
          1391.39870	         6.15541e+57
          1392.20500	         8.20936e+57
          1393.01130	         7.69503e+57
          1393.81760	         6.75839e+57
          1394.62390	         7.20046e+57
          1395.43020	         5.61411e+57
          1396.23650	         6.99799e+57
          1397.04280	         7.60081e+57
          1397.84910	         8.46570e+57
          1398.65540	         9.46766e+57
          1399.46170	         9.41329e+57
          1400.26800	         8.00095e+57
          1401.07430	         6.65783e+57
          1401.88060	         7.50042e+57
          1402.68690	         8.79793e+57
          1403.49320	         9.96627e+57
          1404.29950	         8.90324e+57
          1405.10580	         9.99652e+57
          1405.91210	         1.13759e+58
          1406.71840	         1.03498e+58
          1407.52470	         1.03595e+58
          1408.33100	         1.07277e+58
          1409.13730	         1.11383e+58
          1409.94360	         1.13100e+58
          1410.74990	         1.11862e+58
          1411.55620	         1.00854e+58
          1412.36250	         9.87633e+57
          1413.16880	         9.91467e+57
          1413.97510	         9.65223e+57
          1414.78140	         9.33311e+57
          1415.58770	         1.13745e+58
          1416.39400	         1.18879e+58
          1417.20030	         1.07481e+58
          1418.00660	         9.51902e+57
          1418.81290	         1.07704e+58
          1419.61920	         1.06056e+58
          1420.42550	         1.29177e+58
          1421.23180	         1.39821e+58
          1422.03810	         1.19971e+58
          1422.84440	         1.15618e+58
          1423.65070	         1.25852e+58
          1424.45700	         9.80530e+57
          1425.26330	         7.99236e+57
          1426.06960	         8.49072e+57
          1426.87590	         9.30830e+57
          1427.68220	         1.18667e+58
          1428.48850	         1.18571e+58
          1429.29480	         1.02160e+58
          1430.10110	         9.56710e+57
          1430.90740	         8.80079e+57
          1431.71370	         8.25612e+57
          1432.52000	         8.23458e+57
          1433.32630	         7.89441e+57
          1434.13260	         7.97477e+57
          1434.93890	         9.26913e+57
          1435.74520	         9.78713e+57
          1436.55150	         9.69029e+57
          1437.35780	         8.69201e+57
          1438.16410	         8.54865e+57
          1438.97040	         8.55927e+57
          1439.77670	         8.59072e+57
          1440.58300	         9.37439e+57
          1441.38930	         9.24941e+57
          1442.19560	         9.27570e+57
          1443.00190	         9.51606e+57
          1443.80820	         1.05504e+58
          1444.61450	         9.78066e+57
          1445.42080	         9.68611e+57
          1446.22710	         1.07828e+58
          1447.03340	         1.03632e+58
          1447.83970	         1.08853e+58
          1448.64600	         1.13750e+58
          1449.45230	         9.73068e+57
          1450.25860	         1.03406e+58
          1451.06490	         9.46689e+57
          1451.87120	         7.79158e+57
          1452.67750	         7.10732e+57
          1453.48380	         8.57668e+57
          1454.29010	         8.20512e+57
          1455.09640	         7.86249e+57
          1455.90270	         9.22351e+57
          1456.70900	         9.17478e+57
          1457.51530	         9.84382e+57
          1458.32160	         1.09225e+58
          1459.12790	         1.09768e+58
          1459.93420	         8.89462e+57
          1460.74050	         6.67752e+57
          1461.54680	         7.94819e+57
          1462.35310	         8.08081e+57
          1463.15940	         9.34631e+57
          1463.96570	         1.14344e+58
          1464.77200	         1.11823e+58
          1465.57830	         9.99844e+57
          1466.38460	         9.71142e+57
          1467.19090	         8.99451e+57
          1467.99720	         8.44365e+57
          1468.80350	         9.50971e+57
          1469.60980	         9.76356e+57
          1470.41610	         9.86730e+57
          1471.22240	         8.16187e+57
          1472.02870	         7.95366e+57
          1472.83500	         1.01612e+58
          1473.64130	         1.11484e+58
          1474.44760	         9.04997e+57
          1475.25390	         9.12375e+57
          1476.06020	         1.01593e+58
          1476.86650	         9.27563e+57
          1477.67280	         8.46858e+57
          1478.47910	         7.07381e+57
          1479.28540	         6.86810e+57
          1480.09170	         8.73887e+57
          1480.89800	         9.30817e+57
          1481.70430	         8.04214e+57
          1482.51060	         7.59973e+57
          1483.31690	         8.00369e+57
          1484.12320	         7.61560e+57
          1484.92950	         7.07515e+57
          1485.73580	         7.41077e+57
          1486.54210	         7.81395e+57
          1487.34840	         9.14471e+57
          1488.15470	         1.00471e+58
          1488.96100	         8.83920e+57
          1489.76730	         9.19712e+57
          1490.57360	         9.20821e+57
          1491.37990	         7.16522e+57
          1492.18620	         7.91741e+57
          1492.99250	         8.78063e+57
          1493.79880	         8.05067e+57
          1494.60510	         8.26588e+57
          1495.41140	         7.95367e+57
          1496.21770	         9.10045e+57
          1497.02400	         1.10787e+58
          1497.83030	         8.19671e+57
          1498.63660	         6.94672e+57
          1499.44290	         7.53853e+57
          1500.24920	         6.76774e+57
          1501.05550	         7.39185e+57
          1501.86180	         7.26470e+57
          1502.66810	         8.89675e+57
          1503.47440	         9.76703e+57
          1504.28070	         9.50333e+57
          1505.08700	         1.01506e+58
          1505.89330	         9.74576e+57
          1506.69960	         8.42587e+57
          1507.50590	         7.72764e+57
          1508.31220	         8.69457e+57
          1509.11850	         9.44800e+57
          1509.92480	         1.00485e+58
          1510.73110	         1.02796e+58
          1511.53740	         8.33491e+57
          1512.34370	         6.72774e+57
          1513.15000	         8.55889e+57
          1513.95630	         1.06487e+58
          1514.76260	         9.90652e+57
          1515.56890	         8.55282e+57
          1516.37520	         8.90727e+57
          1517.18150	         8.48332e+57
          1517.98780	         7.71024e+57
          1518.79410	         6.82400e+57
          1519.60040	         6.96959e+57
          1520.40670	         8.65714e+57
          1521.21300	         8.85506e+57
          1522.01930	         8.69247e+57
          1522.82560	         9.37843e+57
          1523.63190	         1.03898e+58
          1524.43820	         8.30142e+57
          1525.24450	         6.06143e+57
          1526.05080	         6.52477e+57
          1526.85710	         6.95410e+57
          1527.66340	         6.70626e+57
          1528.46970	         7.48196e+57
          1529.27600	         7.87529e+57
          1530.08230	         7.62444e+57
          1530.88860	         7.90498e+57
          1531.69490	         8.56686e+57
          1532.50120	         8.87753e+57
          1533.30750	         8.56128e+57
          1534.11380	         8.90750e+57
          1534.92010	         9.32372e+57
          1535.72640	         9.43755e+57
          1536.53270	         9.49454e+57
          1537.33900	         7.93986e+57
          1538.14530	         9.02905e+57
          1538.95160	         9.94832e+57
          1539.75790	         8.97890e+57
          1540.56420	         7.97725e+57
          1541.37050	         7.87139e+57
          1542.17680	         6.88929e+57
          1542.98310	         6.97774e+57
          1543.78940	         7.23884e+57
          1544.59570	         6.83539e+57
          1545.40200	         8.36665e+57
          1546.20830	         9.34639e+57
          1547.01460	         1.06672e+58
          1547.82090	         1.15824e+58
          1548.62720	         1.20994e+58
          1549.43350	         1.16758e+58
          1550.23980	         1.11190e+58
          1551.04610	         1.24893e+58
          1551.85240	         1.18741e+58
          1552.65870	         1.19974e+58
          1553.46500	         1.07897e+58
          1554.27130	         9.89588e+57
          1555.07760	         1.03939e+58
          1555.88390	         9.19516e+57
          1556.69020	         8.81180e+57
          1557.49650	         8.63205e+57
          1558.30280	         8.75879e+57
          1559.10910	         8.80294e+57
          1559.91540	         9.23099e+57
          1560.72170	         8.90539e+57
          1561.52800	         8.58986e+57
          1562.33430	         8.97797e+57
          1563.14060	         9.06587e+57
          1563.94690	         7.94090e+57
          1564.75320	         7.61350e+57
          1565.55950	         7.33567e+57
          1566.36580	         8.00448e+57
          1567.17210	         9.33035e+57
          1567.97840	         9.32139e+57
          1568.78470	         8.65931e+57
          1569.59100	         9.44955e+57
          1570.39730	         8.79491e+57
          1571.20360	         7.99720e+57
          1572.00990	         7.59856e+57
          1572.81620	         9.00210e+57
          1573.62250	         1.01545e+58
          1574.42880	         8.61719e+57
          1575.23510	         7.29786e+57
          1576.04140	         8.29310e+57
          1576.84770	         9.28771e+57
          1577.65400	         8.46581e+57
          1578.46030	         9.04423e+57
          1579.26660	         9.40389e+57
          1580.07290	         8.71385e+57
          1580.87920	         6.81902e+57
          1581.68550	         6.98247e+57
          1582.49180	         8.50172e+57
          1583.29810	         8.23368e+57
          1584.10440	         8.61744e+57
          1584.91070	         7.78063e+57
          1585.71700	         7.98990e+57
          1586.52330	         9.54637e+57
          1587.32960	         9.60078e+57
          1588.13590	         9.01939e+57
          1588.94220	         8.62966e+57
          1589.74850	         8.70172e+57
          1590.55480	         9.21289e+57
          1591.36110	         8.63234e+57
          1592.16740	         7.87003e+57
          1592.97370	         8.27523e+57
          1593.78000	         9.05880e+57
          1594.58630	         1.00957e+58
          1595.39260	         9.28336e+57
          1596.19890	         9.30604e+57
          1597.00520	         9.41988e+57
          1597.81150	         8.63745e+57
          1598.61780	         6.83949e+57
          1599.42410	         6.16670e+57
          1600.23040	         7.25149e+57
          1601.03670	         8.14309e+57
          1601.84300	         7.37715e+57
          1602.64930	         8.08977e+57
          1603.45560	         8.06765e+57
          1604.26190	         7.76081e+57
          1605.06820	         8.03098e+57
          1605.87450	         8.62344e+57
          1606.68080	         7.63237e+57
          1607.48710	         6.10061e+57
          1608.29340	         6.17031e+57
          1609.09970	         7.65672e+57
          1609.90600	         7.86933e+57
          1610.71230	         7.13072e+57
          1611.51860	         7.11911e+57
          1612.32490	         6.84455e+57
          1613.13120	         8.04281e+57
          1613.93750	         7.81919e+57
          1614.74380	         7.71872e+57
          1615.55010	         7.82666e+57
          1616.35640	         8.42384e+57
          1617.16270	         9.59549e+57
          1617.96900	         9.78305e+57
          1618.77530	         8.72094e+57
          1619.58160	         8.62748e+57
          1620.38790	         8.41019e+57
          1621.19420	         8.62910e+57
          1622.00050	         8.07525e+57
          1622.80680	         7.69438e+57
          1623.61310	         8.42127e+57
          1624.41940	         7.61221e+57
          1625.22570	         8.38395e+57
          1626.03200	         8.58921e+57
          1626.83830	         6.96932e+57
          1627.64460	         6.43364e+57
          1628.45090	         6.17449e+57
          1629.25720	         8.71811e+57
          1630.06350	         9.77985e+57
          1630.86980	         6.74496e+57
          1631.67610	         7.67720e+57
          1632.48240	         7.92123e+57
          1633.28870	         8.04754e+57
          1634.09500	         1.00867e+58
          1634.90130	         1.09208e+58
          1635.70760	         8.89867e+57
          1636.51390	         7.51969e+57
          1637.32020	         6.99109e+57
          1638.12650	         8.55082e+57
          1638.93280	         9.76969e+57
          1639.73910	         1.08527e+58
          1640.54540	         1.11759e+58
          1641.35170	         8.14509e+57
          1642.15800	         8.08826e+57
          1642.96430	         8.80748e+57
          1643.77060	         9.06272e+57
          1644.57690	         8.51037e+57
          1645.38320	         8.29094e+57
          1646.18950	         6.72035e+57
          1646.99580	         8.14600e+57
          1647.80210	         8.72497e+57
          1648.60840	         8.69870e+57
          1649.41470	         8.45685e+57
          1650.22100	         7.04242e+57
          1651.02730	         6.89416e+57
          1651.83360	         7.10304e+57
          1652.63990	         7.18793e+57
          1653.44620	         8.80218e+57
          1654.25250	         7.97239e+57
          1655.05880	         6.55774e+57
          1655.86510	         7.17092e+57
          1656.67140	         7.80905e+57
          1657.47770	         7.62351e+57
          1658.28400	         7.56598e+57
          1659.09030	         8.11425e+57
          1659.89660	         9.53732e+57
          1660.70290	         1.05982e+58
          1661.50920	         9.92221e+57
          1662.31550	         8.08341e+57
          1663.12180	         8.20245e+57
          1663.92810	         1.02894e+58
          1664.73440	         1.18990e+58
          1665.54070	         1.17898e+58
          1666.34700	         1.23520e+58
          1667.15330	         1.19144e+58
          1667.95960	         9.41383e+57
          1668.76590	         6.95332e+57
          1669.57220	         6.21775e+57
          1670.37850	         7.03893e+57
          1671.18480	         7.68409e+57
          1671.99110	         7.73363e+57
          1672.79740	         7.18996e+57
          1673.60370	         6.99235e+57
          1674.41000	         6.67788e+57
          1675.21630	         7.23617e+57
          1676.02260	         7.20531e+57
          1676.82890	         6.80044e+57
          1677.63520	         6.91255e+57
          1678.44150	         7.65912e+57
          1679.24780	         8.48988e+57
          1680.05410	         8.11065e+57
          1680.86040	         6.23180e+57
          1681.66670	         6.41048e+57
          1682.47300	         7.62273e+57
          1683.27930	         8.70057e+57
          1684.08560	         9.46211e+57
          1684.89190	         8.63828e+57
          1685.69820	         5.98174e+57
          1686.50450	         4.97659e+57
          1687.31080	         6.48046e+57
          1688.11710	         7.11101e+57
          1688.92340	         5.94411e+57
          1689.72970	         4.84835e+57
          1690.53600	         5.08641e+57
          1691.34230	         8.46935e+57
          1692.14860	         9.70812e+57
          1692.95490	         7.59286e+57
          1693.76120	         6.68679e+57
          1694.56750	         6.79175e+57
          1695.37380	         7.31190e+57
          1696.18010	         7.92923e+57
          1696.98640	         9.44387e+57
          1697.79270	         9.01045e+57
          1698.59900	         8.05905e+57
          1699.40530	         7.25795e+57
          1700.21160	         6.84748e+57
          1701.01790	         8.25245e+57
          1701.82420	         8.09032e+57
          1702.63050	         6.91818e+57
          1703.43680	         7.04150e+57
          1704.24310	         7.49423e+57
          1705.04940	         7.88523e+57
          1705.85570	         8.23734e+57
          1706.66200	         8.12716e+57
          1707.46830	         7.34846e+57
          1708.27460	         7.32320e+57
          1709.08090	         7.78806e+57
          1709.88720	         5.90625e+57
          1710.69350	         5.08992e+57
          1711.49980	         6.02571e+57
          1712.30610	         6.88781e+57
          1713.11240	         8.25719e+57
          1713.91870	         7.98937e+57
          1714.72500	         9.60111e+57
          1715.53130	         9.95227e+57
          1716.33760	         8.71713e+57
          1717.14390	         8.00613e+57
          1717.95020	         8.92710e+57
          1718.75650	         9.49186e+57
          1719.56280	         8.76364e+57
          1720.36910	         7.61355e+57
          1721.17540	         7.58572e+57
          1721.98170	         5.81085e+57
          1722.78800	         5.27772e+57
          1723.59430	         6.01904e+57
          1724.40060	         7.12378e+57
          1725.20690	         7.19847e+57
          1726.01320	         6.36765e+57
          1726.81950	         7.34956e+57
          1727.62580	         7.52264e+57
          1728.43210	         7.02052e+57
          1729.23840	         7.30644e+57
          1730.04470	         7.59606e+57
          1730.85100	         8.89033e+57
          1731.65730	         8.52574e+57
          1732.46360	         7.89403e+57
          1733.26990	         7.67971e+57
          1734.07620	         7.38934e+57
          1734.88250	         8.03159e+57
          1735.68880	         7.81737e+57
          1736.49510	         8.36877e+57
          1737.30140	         7.89347e+57
          1738.10770	         7.28715e+57
          1738.91400	         7.17929e+57
          1739.72030	         6.83110e+57
          1740.52660	         5.74935e+57
          1741.33290	         6.53757e+57
          1742.13920	         5.86819e+57
          1742.94550	         6.83118e+57
          1743.75180	         8.50034e+57
          1744.55810	         8.21194e+57
          1745.36440	         6.47759e+57
          1746.17070	         5.03316e+57
          1746.97700	         4.78948e+57
          1747.78330	         6.06624e+57
          1748.58960	         6.24644e+57
          1749.39590	         6.42382e+57
          1750.20220	         6.62360e+57
          1751.00850	         6.46272e+57
          1751.81480	         5.61527e+57
          1752.62110	         6.79060e+57
          1753.42740	         7.80614e+57
          1754.23370	         6.67214e+57
          1755.04000	         6.78318e+57
          1755.84630	         8.63702e+57
          1756.65260	         9.58894e+57
          1757.45890	         8.33178e+57
          1758.26520	         6.95352e+57
          1759.07150	         7.00575e+57
          1759.87780	         7.19046e+57
          1760.68410	         8.19634e+57
          1761.49040	         8.29181e+57
          1762.29670	         5.85230e+57
          1763.10300	         7.10088e+57
          1763.90930	         8.45871e+57
          1764.71560	         7.20248e+57
          1765.52190	         6.87690e+57
          1766.32820	         8.13717e+57
          1767.13450	         8.29904e+57
          1767.94080	         7.57175e+57
          1768.74710	         7.57856e+57
          1769.55340	         7.99876e+57
          1770.35970	         6.50621e+57
          1771.16600	         7.95856e+57
          1771.97230	         8.43439e+57
          1772.77860	         8.42470e+57
          1773.58490	         7.75910e+57
          1774.39120	         5.91567e+57
          1775.19750	         5.48461e+57
          1776.00380	         5.93519e+57
          1776.81010	         6.48656e+57
          1777.61640	         6.81907e+57
          1778.42270	         5.83572e+57
          1779.22900	         5.82297e+57
          1780.03530	         6.56358e+57
          1780.84160	         7.48108e+57
          1781.64790	         8.78077e+57
          1782.45420	         8.05183e+57
          1783.26050	         7.16831e+57
          1784.06680	         6.78667e+57
          1784.87310	         7.18263e+57
          1785.67940	         7.90833e+57
          1786.48570	         6.97315e+57
          1787.29200	         6.17466e+57
          1788.09830	         6.26250e+57
          1788.90460	         5.90427e+57
          1789.71090	         6.41201e+57
          1790.51720	         5.77833e+57
          1791.32350	         7.30869e+57
          1792.12980	         8.77527e+57
          1792.93610	         7.62866e+57
          1793.74240	         6.83405e+57
          1794.54870	         7.68599e+57
          1795.35500	         7.97848e+57
          1796.16130	         7.34505e+57
          1796.96760	         6.46768e+57
          1797.77390	         6.60629e+57
          1798.58020	         6.30118e+57
          1799.38650	         6.66048e+57
          1800.19280	         7.16471e+57
          1800.99910	         7.10739e+57
          1801.80540	         7.08701e+57
          1802.61170	         7.73485e+57
          1803.41800	         7.43851e+57
          1804.22430	         6.95514e+57
          1805.03060	         7.49143e+57
          1805.83690	         8.60039e+57
          1806.64320	         7.90904e+57
          1807.44950	         7.79029e+57
          1808.25580	         6.52158e+57
          1809.06210	         7.57151e+57
          1809.86840	         8.01837e+57
          1810.67470	         7.81625e+57
          1811.48100	         8.79811e+57
          1812.28730	         8.16622e+57
          1813.09360	         7.57553e+57
          1813.89990	         8.58005e+57
          1814.70620	         7.61274e+57
          1815.51250	         7.95748e+57
          1816.31880	         8.04041e+57
          1817.12510	         8.25282e+57
          1817.93140	         7.81835e+57
          1818.73770	         8.04980e+57
          1819.54400	         8.57105e+57
          1820.35030	         8.40823e+57
          1821.15660	         6.14816e+57
          1821.96290	         6.13621e+57
          1822.76920	         7.12783e+57
          1823.57550	         6.67592e+57
          1824.38180	         7.72081e+57
          1825.18810	         8.25770e+57
          1825.99440	         7.60198e+57
          1826.80070	         7.91704e+57
          1827.60700	         7.44315e+57
          1828.41330	         6.04423e+57
          1829.21960	         6.58178e+57
          1830.02590	         7.29977e+57
          1830.83220	         8.19468e+57
          1831.63850	         8.05186e+57
          1832.44480	         6.79513e+57
          1833.25110	         7.94747e+57
          1834.05740	         8.80209e+57
          1834.86370	         7.56048e+57
          1835.67000	         5.46060e+57
          1836.47630	         7.40673e+57
          1837.28260	         8.69686e+57
          1838.08890	         8.43729e+57
          1838.89520	         8.38004e+57
          1839.70150	         8.00524e+57
          1840.50780	         8.22174e+57
          1841.31410	         6.20218e+57
          1842.12040	         6.35665e+57
          1842.92670	         6.73509e+57
          1843.73300	         6.63200e+57
          1844.53930	         6.83873e+57
          1845.34560	         6.97511e+57
          1846.15190	         8.05575e+57
          1846.95820	         7.37843e+57
          1847.76450	         6.45698e+57
          1848.57080	         5.51865e+57
          1849.37710	         7.13582e+57
          1850.18340	         8.73436e+57
          1850.98970	         8.02604e+57
          1851.79600	         7.26783e+57
          1852.60230	         6.96645e+57
          1853.40860	         7.24417e+57
          1854.21490	         5.75478e+57
          1855.02120	         5.06457e+57
          1855.82750	         4.71540e+57
          1856.63380	         6.08463e+57
          1857.44010	         7.31251e+57
          1858.24640	         6.45342e+57
          1859.05270	         7.61599e+57
          1859.85900	         6.37584e+57
          1860.66530	         5.95286e+57
          1861.47160	         6.35479e+57
          1862.27790	         6.73244e+57
          1863.08420	         7.19964e+57
          1863.89050	         7.81359e+57
          1864.69680	         7.53552e+57
          1865.50310	         6.77077e+57
          1866.30940	         6.10812e+57
          1867.11570	         6.98731e+57
          1867.92200	         7.74796e+57
          1868.72830	         8.78782e+57
          1869.53460	         7.73650e+57
          1870.34090	         6.59683e+57
          1871.14720	         7.15809e+57
          1871.95350	         7.02698e+57
          1872.75980	         7.41677e+57
          1873.56610	         7.38782e+57
          1874.37240	         5.66200e+57
          1875.17870	         6.30155e+57
          1875.98500	         8.23070e+57
          1876.79130	         7.30829e+57
          1877.59760	         6.50483e+57
          1878.40390	         5.60015e+57
          1879.21020	         5.59677e+57
          1880.01650	         6.86094e+57
          1880.82280	         8.16143e+57
          1881.62910	         8.69587e+57
          1882.43540	         1.03470e+58
          1883.24170	         8.58118e+57
          1884.04800	         6.64483e+57
          1884.85430	         7.61051e+57
          1885.66060	         8.25845e+57
          1886.46690	         7.85453e+57
          1887.27320	         6.90740e+57
          1888.07950	         5.44803e+57
          1888.88580	         6.86459e+57
          1889.69210	         8.21707e+57
          1890.49840	         8.81494e+57
          1891.30470	         8.23922e+57
          1892.11100	         8.46041e+57
          1892.91730	         8.48581e+57
          1893.72360	         9.04498e+57
          1894.52990	         9.05088e+57
          1895.33620	         8.92145e+57
          1896.14250	         7.55780e+57
          1896.94880	         5.95897e+57
          1897.75510	         4.02939e+57
          1898.56140	         5.49096e+57
          1899.36770	         7.20105e+57
          1900.17400	         6.75135e+57
          1900.98030	         5.90177e+57
          1901.78660	         6.64070e+57
          1902.59290	         6.87458e+57
          1903.39920	         7.11821e+57
          1904.20550	         9.02307e+57
          1905.01180	         9.17529e+57
          1905.81810	         1.03045e+58
          1906.62440	         1.23854e+58
          1907.43070	         1.44540e+58
          1908.23700	         1.59969e+58
          1909.04330	         1.34965e+58
          1909.84960	         1.19460e+58
          1910.65590	         1.01329e+58
          1911.46220	         9.21555e+57
          1912.26850	         7.55217e+57
          1913.07480	         6.23457e+57
          1913.88110	         5.55610e+57
          1914.68740	         5.51917e+57
          1915.49370	         5.94648e+57
          1916.30000	         6.73558e+57
          1917.10630	         6.89354e+57
          1917.91260	         6.20374e+57
          1918.71890	         5.82437e+57
          1919.52520	         6.12355e+57
          1920.33150	         5.74776e+57
          1921.13780	         6.85966e+57
          1921.94410	         8.26785e+57
          1922.75040	         7.34137e+57
          1923.55670	         8.37481e+57
          1924.36300	         7.85547e+57
          1925.16930	         6.01303e+57
          1925.97560	         4.93592e+57
          1926.78190	         4.89446e+57
          1927.58820	         5.78615e+57
          1928.39450	         4.82840e+57
          1929.20080	         4.40027e+57
          1930.00710	         5.74937e+57
          1930.81340	         6.26813e+57
          1931.61970	         7.20502e+57
          1932.42600	         7.33039e+57
          1933.23230	         8.34782e+57
          1934.03860	         6.74369e+57
          1934.84490	         5.74150e+57
          1935.65120	         7.52722e+57
          1936.45750	         8.50765e+57
          1937.26380	         6.66030e+57
          1938.07010	         6.72285e+57
          1938.87640	         7.26065e+57
          1939.68270	         8.34436e+57
          1940.48900	         8.35036e+57
          1941.29530	         8.17478e+57
          1942.10160	         8.19000e+57
          1942.90790	         6.68279e+57
          1943.71420	         5.93817e+57
          1944.52050	         7.23466e+57
          1945.32680	         7.28942e+57
          1946.13310	         8.21902e+57
          1946.93940	         8.06621e+57
          1947.74570	         6.85570e+57
          1948.55200	         6.63947e+57
          1949.35830	         6.95882e+57
          1950.16460	         4.85994e+57
          1950.97090	         4.59571e+57
          1951.77720	         6.58912e+57
          1952.58350	         7.33331e+57
          1953.38980	         6.16642e+57
          1954.19610	         4.51128e+57
          1955.00240	         4.09481e+57
          1955.80870	         5.02410e+57
          1956.61500	         5.23296e+57
          1957.42130	         5.44880e+57
          1958.22760	         6.89928e+57
          1959.03390	         8.18759e+57
          1959.84020	         8.20460e+57
          1960.64650	         7.82964e+57
          1961.45280	         6.85946e+57
          1962.25910	         5.93754e+57
          1963.06540	         6.73967e+57
          1963.87170	         7.93748e+57
          1964.67800	         7.27234e+57
          1965.48430	         7.93900e+57
          1966.29060	         6.99406e+57
          1967.09690	         8.44045e+57
          1967.90320	         7.45453e+57
          1968.70950	         6.93049e+57
          1969.51580	         6.41595e+57
          1970.32210	         6.74974e+57
          1971.12840	         7.35605e+57
          1971.93470	         6.51807e+57
          1972.74100	         6.52634e+57
          1973.54730	         6.27510e+57
          1974.35360	         6.52509e+57
          1975.15990	         7.90446e+57
          1975.96620	         7.32348e+57
          1976.77250	         7.66018e+57
          1977.57880	         7.26851e+57
          1978.38510	         5.88070e+57
          1979.19140	         6.30016e+57
          1979.99770	         7.47856e+57
          1980.80400	         7.77800e+57
          1981.61030	         6.92454e+57
          1982.41660	         6.14101e+57
          1983.22290	         5.60932e+57
          1984.02920	         6.43633e+57
          1984.83550	         5.77513e+57
          1985.64180	         6.17532e+57
          1986.44810	         6.98786e+57
          1987.25440	         5.66971e+57
          1988.06070	         5.80329e+57
          1988.86700	         6.03892e+57
          1989.67330	         6.71980e+57
          1990.47960	         6.05759e+57
          1991.28590	         6.50155e+57
          1992.09220	         6.18473e+57
          1992.89850	         6.64036e+57
          1993.70480	         5.62056e+57
          1994.51110	         5.81332e+57
          1995.31740	         4.00400e+57
          1996.12370	         4.39305e+57
          1996.93000	         5.72898e+57
          1997.73630	         7.99865e+57
          1998.54260	         8.27129e+57
          1999.34890	         7.47671e+57
          2000.15520	         6.06833e+57
          2000.96150	         6.78367e+57
          2001.76780	         6.92580e+57
          2002.57410	         5.40762e+57
          2003.38040	         6.14774e+57
          2004.18670	         6.65085e+57
          2004.99300	         5.99222e+57
          2005.79930	         7.67655e+57
          2006.60560	         7.54846e+57
          2007.41190	         5.73105e+57
          2008.21820	         6.41390e+57
          2009.02450	         7.35686e+57
          2009.83080	         6.32145e+57
          2010.63710	         6.12525e+57
          2011.44340	         7.47161e+57
          2012.24970	         6.75505e+57
          2013.05600	         6.50969e+57
          2013.86230	         6.54847e+57
          2014.66860	         5.36064e+57
          2015.47490	         6.30356e+57
          2016.28120	         5.05266e+57
          2017.08750	         6.18530e+57
          2017.89380	         6.18791e+57
          2018.70010	         6.34897e+57
          2019.50640	         5.24863e+57
          2020.31270	         5.87593e+57
          2021.11900	         6.56523e+57
          2021.92530	         7.44450e+57
          2022.73160	         7.83582e+57
          2023.53790	         8.02310e+57
          2024.34420	         6.08832e+57
          2025.15050	         5.68312e+57
          2025.95680	         6.08123e+57
          2026.76310	         6.44518e+57
          2027.56940	         6.28238e+57
          2028.37570	         6.87081e+57
          2029.18200	         5.80457e+57
          2029.98830	         5.58101e+57
          2030.79460	         7.38903e+57
          2031.60090	         5.16280e+57
          2032.40720	         4.00532e+57
          2033.21350	         4.61236e+57
          2034.01980	         5.24334e+57
          2034.82610	         4.54543e+57
          2035.63240	         5.10514e+57
          2036.43870	         5.46868e+57
          2037.24500	         5.81103e+57
          2038.05130	         6.51435e+57
          2038.85760	         7.24819e+57
          2039.66390	         5.85665e+57
          2040.47020	         5.89595e+57
          2041.27650	         5.29705e+57
          2042.08280	         4.30751e+57
          2042.88910	         5.92794e+57
          2043.69540	         6.40389e+57
          2044.50170	         5.74087e+57
          2045.30800	         5.02488e+57
          2046.11430	         2.48073e+57
          2046.92060	         4.66384e+57
          2047.72690	         5.92721e+57
          2048.53320	         4.95030e+57
          2049.33950	         4.27912e+57
          2050.14580	         5.25026e+57
          2050.95210	         5.55004e+57
          2051.75840	         5.78853e+57
          2052.56470	         4.44683e+57
          2053.37100	         4.04192e+57
          2054.17730	         4.73452e+57
          2054.98360	         5.27165e+57
          2055.78990	         2.86542e+57
          2056.59620	         2.21928e+57
          2057.40250	         5.23532e+57
          2058.20880	         6.89319e+57
          2059.01510	         6.40563e+57
          2059.82140	         6.01035e+57
          2060.62770	         9.59352e+57
          2061.43400	         1.70259e+58
          2062.24030	         1.47771e+58
          2063.04660	         6.17131e+57
          2063.85290	         2.58160e+57
          2064.65920	        -3.22824e+57
          2065.46550	        -1.07714e+58
          2066.27180	        -9.27649e+57
          2067.07810	         3.30991e+57
          2067.88440	         5.22479e+57
          2068.69070	         7.09023e+57
          2069.49700	         6.85782e+57
          2070.30330	         3.65092e+57
          2071.10960	         4.76352e+57
          2071.91590	         5.30978e+57
          2072.72220	         4.92118e+57
          2073.52850	         5.44372e+57
          2074.33480	         5.39189e+57
          2075.14110	         5.63510e+57
          2075.94740	         4.05469e+57
          2076.75370	         3.77550e+57
          2077.56000	         5.79563e+57
          2078.36630	         4.97864e+57
          2079.17260	         5.41690e+57
          2079.97890	         5.61061e+57
          2080.78520	         5.44776e+57
          2081.59150	         4.39056e+57
          2082.39780	         4.52467e+57
          2083.20410	         3.70929e+57
          2084.01040	         2.30507e+57
          2084.81670	         2.80675e+57
          2085.62300	         2.55110e+57
          2086.42930	         3.00590e+57
          2087.23560	         3.85899e+57
          2088.04190	         4.01514e+57
          2088.84820	         3.87224e+57
          2089.65450	         3.16070e+57
          2090.46080	         2.18399e+57
          2091.26710	         4.30042e+57
          2092.07340	         3.66670e+57
          2092.87970	         2.38804e+57
          2093.68600	        -6.57074e+56
          2094.49230	         1.61262e+57
          2095.29860	         4.17281e+57
          2096.10490	         2.20069e+57
          2096.91120	         2.35496e+57
          2097.71750	         3.13269e+57
          2098.52380	         1.94311e+57
          2099.33010	         3.53779e+56
          2100.13640	         9.44924e+56
          2100.94270	         1.14109e+57
          2101.74900	         2.21808e+57
          2102.55530	         1.77254e+57
          2103.36160	         1.44475e+57
          2104.16790	         3.14262e+57
          2104.97420	         2.14906e+57
          2105.78050	         1.56134e+56
          2106.58680	        -1.95675e+56
          2107.39310	         1.20864e+57
          2108.19940	         5.04674e+56
          2109.00570	         1.41782e+57
          2109.81200	         2.58525e+55
          2110.61830	         2.20743e+57
          2111.42460	        -4.51193e+55
          2112.23090	         1.07493e+57
          2113.03720	         2.88251e+56
          2113.84350	        -1.68396e+57
          2114.64980	         2.71763e+57
          2115.45610	         1.76055e+57
          2116.26240	         2.70158e+57
          2117.06870	         8.32124e+56
          2117.87500	        -4.56800e+57
          2118.68130	        -4.73350e+57
          2119.48760	        -2.55863e+56
          2120.29390	         5.28760e+57
          2121.10020	        -1.38637e+57
          2121.90650	        -7.90992e+57
          2122.71280	        -1.98936e+57
          2123.51910	         2.73619e+57
          2124.32540	         2.90246e+57
          2125.13170	        -1.64294e+57
          2125.93800	        -1.13139e+57
          2126.74430	        -4.99117e+57
          2127.55060	        -9.27299e+57
          2128.35690	        -8.25679e+56
          2129.16320	        -1.84346e+57
          2129.96950	        -5.15561e+57
          2130.77580	        -1.83096e+57
          2131.58210	        -1.59795e+57
          2132.38840	         9.57721e+56
          2133.19470	         2.66142e+57
          2134.00100	         7.15580e+56
          2134.80730	        -5.50655e+57
          2135.61360	        -1.23506e+57
          2136.41990	         1.40509e+57
          2137.22620	         5.46484e+57
          2138.03250	        -3.53875e+56
          2138.83880	        -4.49299e+57
          2139.64510	         8.62901e+56
          2140.45140	        -1.21010e+57
          2141.25770	        -3.46193e+57
          2142.06400	         7.12035e+56
          2142.87030	        -3.63459e+57
          2143.67660	         2.58171e+57
          2144.48290	         8.10497e+56
          2145.28920	         1.45643e+58
          2146.09550	         1.77208e+56
          2146.90180	        -1.04057e+58
          2147.70810	        -2.97710e+57
          2148.51440	        -2.82257e+57
          2149.32070	        -9.71353e+57
          2150.12700	        -8.62331e+57
          2150.93330	        -4.19336e+57
          2151.73960	        -5.47142e+57
          2152.54590	        -6.21535e+57
          2153.35220	        -3.64169e+57
          2154.15850	        -7.44463e+57
          2154.96480	        -2.36478e+57
          2155.77110	        -6.24361e+57
          2156.57740	        -4.24428e+57
          2157.38370	         2.51432e+57
          2158.19000	        -4.22760e+57
          2158.99630	        -1.03965e+58
          2159.80260	        -8.39461e+57
          2160.60890	        -7.88748e+57
          2161.41520	         3.71187e+56
          2162.22150	        -5.79070e+57
          2163.02780	        -4.46024e+57
          2163.83410	        -2.08265e+56
          2164.64040	        -6.68736e+57
          2165.44670	        -8.70938e+57
          2166.25300	        -1.07409e+58
          2167.05930	        -2.43996e+57
          2167.86560	        -1.05579e+58
          2168.67190	        -7.66646e+57
          2169.47820	        -6.91259e+57
          2170.28450	        -1.25839e+58
          2171.09080	         1.57094e+57
          2171.89710	         6.10961e+57
          2172.70340	         1.71675e+57
          2173.50970	        -6.35498e+57
          2174.31600	        -7.25983e+57
          2175.12230	        -2.24781e+57
          2175.92860	        -4.06802e+57
          2176.73490	        -9.90251e+57
          2177.54120	        -6.77978e+57
          2178.34750	        -4.05968e+57
          2179.15380	                 nan
          2179.96010	                 nan
          2180.76640	                 nan
          2181.57270	                 nan
          2182.37900	                 nan
          2183.18530	                 nan
          2183.99160	                 nan
          2184.79790	                 nan
          2185.60420	                 nan
          2186.41050	                 nan
          2187.21680	                 nan
          2188.02310	                 nan
          2188.82940	                 nan
          2189.63570	                 nan
          2190.44200	                 nan
          2191.24830	                 nan
          2192.05460	                 nan
          2192.86090	                 nan
          2193.66720	                 nan
          2194.47350	                 nan
          2195.27980	                 nan
          2196.08610	                 nan
          2196.89240	                 nan
          2197.69870	                 nan
          2198.50500	                 nan
          2199.31130	                 nan
          2200.11760	                 nan
          2200.92390	                 nan
          2201.73020	                 nan
          2202.53650	                 nan
          2203.34280	                 nan
          2204.14910	                 nan
          2204.95540	                 nan
          2205.76170	                 nan
          2206.56800	                 nan
          2207.37430	                 nan
          2208.18060	                 nan
          2208.98690	                 nan
          2209.79320	                 nan
          2210.59950	                 nan
          2211.40580	                 nan
          2212.21210	                 nan
          2213.01840	                 nan
          2213.82470	                 nan
          2214.63100	                 nan
          2215.43730	         0.00000e+00
