#sample_279_stacked_spectrum_rest_UV-bands_median_H-alpha_noDC.txt
#median Lum: 1.73151e+42
#Rest-frame wavelength (A) | Luminosity (erg/s/A)
#
          1110.00000	         0.00000e+00
          1110.80630	         1.03479e+59
          1111.61260	         1.41548e+59
          1112.41890	         1.24934e+59
          1113.22520	        -9.68192e+58
          1114.03150	        -7.53105e+58
          1114.83780	         7.64400e+58
          1115.64410	         1.46673e+59
          1116.45040	         1.58907e+59
          1117.25670	         1.22027e+59
          1118.06300	         1.78521e+59
          1118.86930	        -5.17392e+58
          1119.67560	         1.12895e+59
          1120.48190	        -2.59425e+57
          1121.28820	        -1.21866e+59
          1122.09450	        -3.05937e+57
          1122.90080	         4.63278e+58
          1123.70710	         1.97300e+58
          1124.51340	         5.75952e+58
          1125.31970	         2.08456e+58
          1126.12600	         4.51737e+58
          1126.93230	        -1.11466e+58
          1127.73860	        -4.90105e+58
          1128.54490	         3.18378e+58
          1129.35120	        -9.11128e+56
          1130.15750	         1.04364e+58
          1130.96380	        -1.47712e+58
          1131.77010	         4.57053e+58
          1132.57640	         4.63394e+58
          1133.38270	         3.49739e+58
          1134.18900	         1.51358e+58
          1134.99530	         3.10115e+58
          1135.80160	         1.30780e+58
          1136.60790	         2.18090e+58
          1137.41420	         1.56707e+58
          1138.22050	         3.93993e+58
          1139.02680	         4.12773e+58
          1139.83310	         1.85051e+58
          1140.63940	         2.11720e+58
          1141.44570	         9.16389e+57
          1142.25200	        -2.93794e+57
          1143.05830	         2.65337e+58
          1143.86460	         3.45572e+58
          1144.67090	         2.58558e+58
          1145.47720	         6.07621e+57
          1146.28350	         6.98279e+57
          1147.08980	         2.19267e+58
          1147.89610	         2.69455e+58
          1148.70240	         2.48781e+58
          1149.50870	         2.44062e+58
          1150.31500	         1.71937e+58
          1151.12130	         3.07686e+57
          1151.92760	        -2.59069e+57
          1152.73390	         1.11968e+58
          1153.54020	         8.42953e+57
          1154.34650	         2.34468e+58
          1155.15280	         1.86486e+58
          1155.95910	         1.65630e+58
          1156.76540	         5.97062e+57
          1157.57170	         3.38404e+57
          1158.37800	         4.30992e+57
          1159.18430	         3.20390e+57
          1159.99060	         1.17638e+58
          1160.79690	         1.40023e+58
          1161.60320	         1.79486e+58
          1162.40950	         1.51264e+58
          1163.21580	         2.34547e+58
          1164.02210	         1.73844e+58
          1164.82840	         1.76783e+58
          1165.63470	         2.30805e+58
          1166.44100	         3.66419e+58
          1167.24730	         2.37716e+58
          1168.05360	         7.06004e+57
          1168.85990	         4.30328e+57
          1169.66620	         5.10352e+57
          1170.47250	         7.30746e+57
          1171.27880	         9.87462e+57
          1172.08510	         1.97414e+58
          1172.89140	         1.80876e+58
          1173.69770	         1.50203e+57
          1174.50400	         1.28393e+58
          1175.31030	         2.02229e+58
          1176.11660	         1.35422e+58
          1176.92290	         1.57446e+58
          1177.72920	         1.83723e+58
          1178.53550	         8.14459e+57
          1179.34180	         3.27424e+57
          1180.14810	         4.71911e+57
          1180.95440	         4.16487e+57
          1181.76070	         4.46761e+57
          1182.56700	         3.98759e+57
          1183.37330	         3.16350e+57
          1184.17960	         9.65033e+57
          1184.98590	         1.13374e+58
          1185.79220	         1.01857e+58
          1186.59850	         1.34596e+58
          1187.40480	         1.27432e+58
          1188.21110	         1.51168e+58
          1189.01740	         1.24230e+58
          1189.82370	         7.27218e+57
          1190.63000	         1.33690e+58
          1191.43630	         1.74676e+58
          1192.24260	         1.11115e+58
          1193.04890	         1.15637e+58
          1193.85520	         8.77567e+57
          1194.66150	         4.54307e+57
          1195.46780	         7.68835e+57
          1196.27410	         9.92115e+57
          1197.08040	         7.25748e+57
          1197.88670	         1.30793e+58
          1198.69300	         1.72993e+58
          1199.49930	         2.14402e+58
          1200.30560	         1.17658e+58
          1201.11190	         7.40889e+57
          1201.91820	         9.31251e+57
          1202.72450	         1.17102e+58
          1203.53080	         1.25074e+58
          1204.33710	         9.21181e+57
          1205.14340	         5.34818e+57
          1205.94970	         7.38641e+57
          1206.75600	         7.19382e+57
          1207.56230	         6.31108e+57
          1208.36860	         5.73633e+57
          1209.17490	         3.35415e+57
          1209.98120	         6.48334e+57
          1210.78750	         8.39686e+57
          1211.59380	         1.48732e+58
          1212.40010	         2.09377e+58
          1213.20640	         1.82005e+58
          1214.01270	         1.96952e+58
          1214.81900	         2.82622e+58
          1215.62530	         4.49052e+58
          1216.43160	         9.14443e+58
          1217.23790	         1.54144e+59
          1218.04420	         1.17872e+59
          1218.85050	         9.38764e+58
          1219.65680	         6.21935e+58
          1220.46310	         3.30418e+58
          1221.26940	         2.40117e+58
          1222.07570	         1.22120e+58
          1222.88200	         1.12305e+58
          1223.68830	         1.17430e+58
          1224.49460	         7.58728e+57
          1225.30090	         8.25568e+57
          1226.10720	         8.01593e+57
          1226.91350	         8.39335e+57
          1227.71980	         1.31816e+58
          1228.52610	         1.33573e+58
          1229.33240	         6.00665e+57
          1230.13870	         5.78791e+57
          1230.94500	         8.53267e+57
          1231.75130	         4.84288e+57
          1232.55760	         6.27643e+57
          1233.36390	         8.43576e+57
          1234.17020	         1.06614e+58
          1234.97650	         8.30594e+57
          1235.78280	         8.61594e+57
          1236.58910	         1.17148e+58
          1237.39540	         1.17652e+58
          1238.20170	         1.02225e+58
          1239.00800	         1.35018e+58
          1239.81430	         1.81247e+58
          1240.62060	         1.25949e+58
          1241.42690	         9.84175e+57
          1242.23320	         1.16429e+58
          1243.03950	         8.08749e+57
          1243.84580	         9.14583e+57
          1244.65210	         9.94971e+57
          1245.45840	         8.40466e+57
          1246.26470	         8.12200e+57
          1247.07100	         6.97818e+57
          1247.87730	         4.68455e+57
          1248.68360	         6.32333e+57
          1249.48990	         9.41779e+57
          1250.29620	         9.86286e+57
          1251.10250	         7.80812e+57
          1251.90880	         6.32190e+57
          1252.71510	         9.28145e+57
          1253.52140	         8.93922e+57
          1254.32770	         7.87771e+57
          1255.13400	         1.19942e+58
          1255.94030	         1.09150e+58
          1256.74660	         9.25959e+57
          1257.55290	         9.47810e+57
          1258.35920	         7.93287e+57
          1259.16550	         7.16559e+57
          1259.97180	         6.33503e+57
          1260.77810	         8.96027e+57
          1261.58440	         1.15061e+58
          1262.39070	         9.05016e+57
          1263.19700	         7.82255e+57
          1264.00330	         9.90143e+57
          1264.80960	         1.14105e+58
          1265.61590	         1.38843e+58
          1266.42220	         1.31149e+58
          1267.22850	         1.16270e+58
          1268.03480	         1.44678e+58
          1268.84110	         1.37041e+58
          1269.64740	         1.26777e+58
          1270.45370	         1.41589e+58
          1271.26000	         1.09563e+58
          1272.06630	         1.18090e+58
          1272.87260	         1.47931e+58
          1273.67890	         1.37556e+58
          1274.48520	         1.26051e+58
          1275.29150	         1.20141e+58
          1276.09780	         1.18219e+58
          1276.90410	         1.39058e+58
          1277.71040	         1.37803e+58
          1278.51670	         1.45660e+58
          1279.32300	         1.60918e+58
          1280.12930	         1.32296e+58
          1280.93560	         1.09516e+58
          1281.74190	         1.16771e+58
          1282.54820	         1.33191e+58
          1283.35450	         1.15667e+58
          1284.16080	         1.18141e+58
          1284.96710	         1.17396e+58
          1285.77340	         1.11035e+58
          1286.57970	         1.14191e+58
          1287.38600	         1.51206e+58
          1288.19230	         1.76159e+58
          1288.99860	         1.76258e+58
          1289.80490	         1.22824e+58
          1290.61120	         1.29078e+58
          1291.41750	         1.46782e+58
          1292.22380	         1.28481e+58
          1293.03010	         1.24118e+58
          1293.83640	         1.24479e+58
          1294.64270	         1.03013e+58
          1295.44900	         8.44505e+57
          1296.25530	         8.51057e+57
          1297.06160	         9.71577e+57
          1297.86790	         1.10616e+58
          1298.67420	         9.41270e+57
          1299.48050	         9.30478e+57
          1300.28680	         1.05852e+58
          1301.09310	         7.09006e+57
          1301.89940	         4.75126e+57
          1302.70570	         7.99294e+57
          1303.51200	         8.77660e+57
          1304.31830	         1.05253e+58
          1305.12460	         1.24566e+58
          1305.93090	         1.21798e+58
          1306.73720	         1.32785e+58
          1307.54350	         1.45069e+58
          1308.34980	         1.46918e+58
          1309.15610	         1.58172e+58
          1309.96240	         1.55705e+58
          1310.76870	         1.34027e+58
          1311.57500	         8.80148e+57
          1312.38130	         8.92615e+57
          1313.18760	         1.38646e+58
          1313.99390	         1.65800e+58
          1314.80020	         1.62274e+58
          1315.60650	         1.78661e+58
          1316.41280	         1.17305e+58
          1317.21910	         9.92551e+57
          1318.02540	         1.25895e+58
          1318.83170	         1.34074e+58
          1319.63800	         1.23363e+58
          1320.44430	         1.25324e+58
          1321.25060	         1.25237e+58
          1322.05690	         1.28486e+58
          1322.86320	         1.11108e+58
          1323.66950	         1.10226e+58
          1324.47580	         1.21802e+58
          1325.28210	         1.16781e+58
          1326.08840	         1.15433e+58
          1326.89470	         1.23732e+58
          1327.70100	         1.02316e+58
          1328.50730	         8.77500e+57
          1329.31360	         9.87856e+57
          1330.11990	         9.29476e+57
          1330.92620	         9.83065e+57
          1331.73250	         1.13904e+58
          1332.53880	         9.21000e+57
          1333.34510	         7.46965e+57
          1334.15140	         8.45530e+57
          1334.95770	         9.57837e+57
          1335.76400	         1.17112e+58
          1336.57030	         1.19050e+58
          1337.37660	         1.09400e+58
          1338.18290	         1.05429e+58
          1338.98920	         1.13350e+58
          1339.79550	         1.04993e+58
          1340.60180	         1.14719e+58
          1341.40810	         1.36353e+58
          1342.21440	         1.21170e+58
          1343.02070	         1.11183e+58
          1343.82700	         1.17695e+58
          1344.63330	         1.15967e+58
          1345.43960	         1.43278e+58
          1346.24590	         1.30493e+58
          1347.05220	         1.31559e+58
          1347.85850	         1.13092e+58
          1348.66480	         1.09827e+58
          1349.47110	         1.29966e+58
          1350.27740	         1.26721e+58
          1351.08370	         1.05175e+58
          1351.89000	         1.25751e+58
          1352.69630	         1.27945e+58
          1353.50260	         1.14765e+58
          1354.30890	         1.08150e+58
          1355.11520	         1.19708e+58
          1355.92150	         1.20812e+58
          1356.72780	         1.06827e+58
          1357.53410	         1.15318e+58
          1358.34040	         1.22025e+58
          1359.14670	         1.04355e+58
          1359.95300	         1.04683e+58
          1360.75930	         1.14100e+58
          1361.56560	         1.22228e+58
          1362.37190	         1.22043e+58
          1363.17820	         1.13110e+58
          1363.98450	         1.24372e+58
          1364.79080	         1.31175e+58
          1365.59710	         1.21663e+58
          1366.40340	         1.18748e+58
          1367.20970	         1.11682e+58
          1368.01600	         1.01566e+58
          1368.82230	         1.01884e+58
          1369.62860	         1.14267e+58
          1370.43490	         9.45438e+57
          1371.24120	         8.83081e+57
          1372.04750	         9.53975e+57
          1372.85380	         1.18212e+58
          1373.66010	         1.08992e+58
          1374.46640	         1.05205e+58
          1375.27270	         1.11502e+58
          1376.07900	         9.26273e+57
          1376.88530	         8.81527e+57
          1377.69160	         8.26667e+57
          1378.49790	         7.51958e+57
          1379.30420	         8.72660e+57
          1380.11050	         9.86086e+57
          1380.91680	         9.01701e+57
          1381.72310	         8.84869e+57
          1382.52940	         8.57195e+57
          1383.33570	         8.71856e+57
          1384.14200	         8.71187e+57
          1384.94830	         8.98853e+57
          1385.75460	         9.31656e+57
          1386.56090	         1.05454e+58
          1387.36720	         9.75509e+57
          1388.17350	         1.18413e+58
          1388.97980	         1.08990e+58
          1389.78610	         7.90564e+57
          1390.59240	         7.57597e+57
          1391.39870	         7.39433e+57
          1392.20500	         8.21969e+57
          1393.01130	         6.70436e+57
          1393.81760	         6.64741e+57
          1394.62390	         7.72032e+57
          1395.43020	         6.65860e+57
          1396.23650	         7.35745e+57
          1397.04280	         8.11402e+57
          1397.84910	         8.59090e+57
          1398.65540	         8.86379e+57
          1399.46170	         1.02241e+58
          1400.26800	         7.50612e+57
          1401.07430	         6.43979e+57
          1401.88060	         7.93761e+57
          1402.68690	         9.22445e+57
          1403.49320	         1.04704e+58
          1404.29950	         1.06404e+58
          1405.10580	         1.02376e+58
          1405.91210	         1.06388e+58
          1406.71840	         1.01246e+58
          1407.52470	         1.03038e+58
          1408.33100	         1.01653e+58
          1409.13730	         1.14625e+58
          1409.94360	         1.19182e+58
          1410.74990	         1.14760e+58
          1411.55620	         1.12358e+58
          1412.36250	         9.34412e+57
          1413.16880	         9.57309e+57
          1413.97510	         7.80238e+57
          1414.78140	         7.54455e+57
          1415.58770	         8.97168e+57
          1416.39400	         1.11127e+58
          1417.20030	         1.18204e+58
          1418.00660	         9.61351e+57
          1418.81290	         1.12146e+58
          1419.61920	         1.16752e+58
          1420.42550	         1.26171e+58
          1421.23180	         1.31026e+58
          1422.03810	         1.18374e+58
          1422.84440	         1.20225e+58
          1423.65070	         1.42504e+58
          1424.45700	         1.15223e+58
          1425.26330	         8.43128e+57
          1426.06960	         8.52153e+57
          1426.87590	         1.02611e+58
          1427.68220	         1.00085e+58
          1428.48850	         1.14777e+58
          1429.29480	         1.15106e+58
          1430.10110	         1.00094e+58
          1430.90740	         8.19716e+57
          1431.71370	         8.28599e+57
          1432.52000	         8.94119e+57
          1433.32630	         7.29363e+57
          1434.13260	         7.70388e+57
          1434.93890	         8.14303e+57
          1435.74520	         8.42921e+57
          1436.55150	         9.07782e+57
          1437.35780	         8.98113e+57
          1438.16410	         9.34398e+57
          1438.97040	         8.76012e+57
          1439.77670	         9.30333e+57
          1440.58300	         9.08323e+57
          1441.38930	         9.46502e+57
          1442.19560	         9.00969e+57
          1443.00190	         7.95103e+57
          1443.80820	         9.97925e+57
          1444.61450	         9.24543e+57
          1445.42080	         8.97030e+57
          1446.22710	         1.09791e+58
          1447.03340	         1.09428e+58
          1447.83970	         1.09562e+58
          1448.64600	         1.05636e+58
          1449.45230	         9.15881e+57
          1450.25860	         1.00432e+58
          1451.06490	         9.51439e+57
          1451.87120	         6.76549e+57
          1452.67750	         6.97658e+57
          1453.48380	         8.77736e+57
          1454.29010	         7.84329e+57
          1455.09640	         7.28653e+57
          1455.90270	         9.22533e+57
          1456.70900	         9.12581e+57
          1457.51530	         9.85251e+57
          1458.32160	         1.16946e+58
          1459.12790	         1.13338e+58
          1459.93420	         1.05364e+58
          1460.74050	         9.87803e+57
          1461.54680	         8.82605e+57
          1462.35310	         7.41084e+57
          1463.15940	         8.92545e+57
          1463.96570	         1.08197e+58
          1464.77200	         1.25321e+58
          1465.57830	         1.09698e+58
          1466.38460	         1.03081e+58
          1467.19090	         9.52415e+57
          1467.99720	         8.42395e+57
          1468.80350	         8.81660e+57
          1469.60980	         1.03521e+58
          1470.41610	         1.13971e+58
          1471.22240	         9.89173e+57
          1472.02870	         9.84855e+57
          1472.83500	         1.02557e+58
          1473.64130	         1.11231e+58
          1474.44760	         1.02822e+58
          1475.25390	         9.57208e+57
          1476.06020	         8.17107e+57
          1476.86650	         7.21030e+57
          1477.67280	         7.28806e+57
          1478.47910	         6.75498e+57
          1479.28540	         7.78421e+57
          1480.09170	         8.72043e+57
          1480.89800	         8.34787e+57
          1481.70430	         8.20586e+57
          1482.51060	         8.60720e+57
          1483.31690	         9.02543e+57
          1484.12320	         9.37916e+57
          1484.92950	         9.19781e+57
          1485.73580	         9.17397e+57
          1486.54210	         7.83229e+57
          1487.34840	         8.19929e+57
          1488.15470	         8.63717e+57
          1488.96100	         8.52826e+57
          1489.76730	         8.89852e+57
          1490.57360	         8.43510e+57
          1491.37990	         8.29074e+57
          1492.18620	         8.83647e+57
          1492.99250	         8.48499e+57
          1493.79880	         8.43212e+57
          1494.60510	         8.07874e+57
          1495.41140	         6.05415e+57
          1496.21770	         7.60195e+57
          1497.02400	         1.03771e+58
          1497.83030	         8.93216e+57
          1498.63660	         7.05854e+57
          1499.44290	         7.33260e+57
          1500.24920	         7.42230e+57
          1501.05550	         7.31368e+57
          1501.86180	         8.43371e+57
          1502.66810	         9.73703e+57
          1503.47440	         9.89748e+57
          1504.28070	         9.18192e+57
          1505.08700	         9.19649e+57
          1505.89330	         9.69472e+57
          1506.69960	         8.39663e+57
          1507.50590	         8.55356e+57
          1508.31220	         8.20635e+57
          1509.11850	         7.95571e+57
          1509.92480	         8.21656e+57
          1510.73110	         8.38608e+57
          1511.53740	         7.50814e+57
          1512.34370	         7.33080e+57
          1513.15000	         8.85531e+57
          1513.95630	         1.02483e+58
          1514.76260	         1.01657e+58
          1515.56890	         8.31268e+57
          1516.37520	         8.03254e+57
          1517.18150	         8.54838e+57
          1517.98780	         7.60770e+57
          1518.79410	         7.28571e+57
          1519.60040	         8.36831e+57
          1520.40670	         1.01253e+58
          1521.21300	         9.28453e+57
          1522.01930	         8.22388e+57
          1522.82560	         8.64672e+57
          1523.63190	         1.05849e+58
          1524.43820	         9.97181e+57
          1525.24450	         6.36254e+57
          1526.05080	         6.20116e+57
          1526.85710	         6.06752e+57
          1527.66340	         6.78215e+57
          1528.46970	         7.76448e+57
          1529.27600	         7.77242e+57
          1530.08230	         7.70629e+57
          1530.88860	         7.59196e+57
          1531.69490	         8.48553e+57
          1532.50120	         9.01314e+57
          1533.30750	         9.36992e+57
          1534.11380	         8.87445e+57
          1534.92010	         9.21490e+57
          1535.72640	         9.93711e+57
          1536.53270	         9.57291e+57
          1537.33900	         8.62412e+57
          1538.14530	         8.94818e+57
          1538.95160	         9.36809e+57
          1539.75790	         8.99973e+57
          1540.56420	         7.90882e+57
          1541.37050	         7.17490e+57
          1542.17680	         6.88631e+57
          1542.98310	         7.83283e+57
          1543.78940	         8.33496e+57
          1544.59570	         7.20735e+57
          1545.40200	         8.94504e+57
          1546.20830	         1.06507e+58
          1547.01460	         1.13203e+58
          1547.82090	         1.05183e+58
          1548.62720	         1.19561e+58
          1549.43350	         1.13993e+58
          1550.23980	         1.11233e+58
          1551.04610	         1.24501e+58
          1551.85240	         1.22527e+58
          1552.65870	         1.19306e+58
          1553.46500	         1.02967e+58
          1554.27130	         9.27590e+57
          1555.07760	         9.72755e+57
          1555.88390	         9.34904e+57
          1556.69020	         9.75219e+57
          1557.49650	         9.13917e+57
          1558.30280	         8.08964e+57
          1559.10910	         8.75337e+57
          1559.91540	         9.15899e+57
          1560.72170	         8.77483e+57
          1561.52800	         9.07694e+57
          1562.33430	         9.61770e+57
          1563.14060	         8.74798e+57
          1563.94690	         8.03630e+57
          1564.75320	         8.42367e+57
          1565.55950	         7.65751e+57
          1566.36580	         7.35901e+57
          1567.17210	         9.13797e+57
          1567.97840	         9.73760e+57
          1568.78470	         9.07492e+57
          1569.59100	         9.13279e+57
          1570.39730	         8.42354e+57
          1571.20360	         6.86988e+57
          1572.00990	         7.63840e+57
          1572.81620	         9.14236e+57
          1573.62250	         1.02506e+58
          1574.42880	         8.82577e+57
          1575.23510	         7.69739e+57
          1576.04140	         8.31436e+57
          1576.84770	         9.32319e+57
          1577.65400	         8.87344e+57
          1578.46030	         8.95360e+57
          1579.26660	         1.02921e+58
          1580.07290	         9.58306e+57
          1580.87920	         7.21056e+57
          1581.68550	         7.54609e+57
          1582.49180	         8.95215e+57
          1583.29810	         8.25533e+57
          1584.10440	         8.23739e+57
          1584.91070	         7.94883e+57
          1585.71700	         8.54267e+57
          1586.52330	         8.60683e+57
          1587.32960	         8.86610e+57
          1588.13590	         8.80427e+57
          1588.94220	         8.44198e+57
          1589.74850	         8.51726e+57
          1590.55480	         8.44487e+57
          1591.36110	         8.09341e+57
          1592.16740	         8.76919e+57
          1592.97370	         8.99342e+57
          1593.78000	         9.36253e+57
          1594.58630	         8.80057e+57
          1595.39260	         8.35461e+57
          1596.19890	         9.33701e+57
          1597.00520	         9.32644e+57
          1597.81150	         8.59574e+57
          1598.61780	         7.62328e+57
          1599.42410	         7.72614e+57
          1600.23040	         7.03953e+57
          1601.03670	         6.67715e+57
          1601.84300	         7.48304e+57
          1602.64930	         8.00530e+57
          1603.45560	         8.48793e+57
          1604.26190	         8.26062e+57
          1605.06820	         7.86330e+57
          1605.87450	         7.52571e+57
          1606.68080	         7.12621e+57
          1607.48710	         6.82772e+57
          1608.29340	         5.53390e+57
          1609.09970	         6.53279e+57
          1609.90600	         8.27138e+57
          1610.71230	         7.70782e+57
          1611.51860	         8.56757e+57
          1612.32490	         8.04278e+57
          1613.13120	         8.83109e+57
          1613.93750	         8.70351e+57
          1614.74380	         8.07537e+57
          1615.55010	         8.34108e+57
          1616.35640	         8.04862e+57
          1617.16270	         9.61162e+57
          1617.96900	         1.03021e+58
          1618.77530	         8.93529e+57
          1619.58160	         9.24043e+57
          1620.38790	         9.93393e+57
          1621.19420	         9.85174e+57
          1622.00050	         8.44631e+57
          1622.80680	         8.21687e+57
          1623.61310	         9.67320e+57
          1624.41940	         9.96169e+57
          1625.22570	         9.89784e+57
          1626.03200	         8.73192e+57
          1626.83830	         7.29638e+57
          1627.64460	         6.62030e+57
          1628.45090	         6.94004e+57
          1629.25720	         9.15672e+57
          1630.06350	         9.61061e+57
          1630.86980	         5.27742e+57
          1631.67610	         6.59753e+57
          1632.48240	         9.29876e+57
          1633.28870	         8.87033e+57
          1634.09500	         9.24530e+57
          1634.90130	         1.08600e+58
          1635.70760	         1.07066e+58
          1636.51390	         8.61301e+57
          1637.32020	         7.25527e+57
          1638.12650	         8.89249e+57
          1638.93280	         1.02945e+58
          1639.73910	         1.07988e+58
          1640.54540	         1.17398e+58
          1641.35170	         9.81170e+57
          1642.15800	         9.16081e+57
          1642.96430	         8.90986e+57
          1643.77060	         8.67873e+57
          1644.57690	         8.97691e+57
          1645.38320	         8.30824e+57
          1646.18950	         7.25012e+57
          1646.99580	         8.53124e+57
          1647.80210	         7.84809e+57
          1648.60840	         7.24610e+57
          1649.41470	         7.41075e+57
          1650.22100	         6.46074e+57
          1651.02730	         5.48473e+57
          1651.83360	         7.20569e+57
          1652.63990	         8.82377e+57
          1653.44620	         9.18425e+57
          1654.25250	         8.39918e+57
          1655.05880	         7.80313e+57
          1655.86510	         8.58564e+57
          1656.67140	         8.57918e+57
          1657.47770	         7.73225e+57
          1658.28400	         8.23162e+57
          1659.09030	         8.62947e+57
          1659.89660	         9.35063e+57
          1660.70290	         9.79741e+57
          1661.50920	         1.02517e+58
          1662.31550	         8.99806e+57
          1663.12180	         8.64695e+57
          1663.92810	         1.04913e+58
          1664.73440	         1.13290e+58
          1665.54070	         1.25499e+58
          1666.34700	         1.28328e+58
          1667.15330	         1.14176e+58
          1667.95960	         8.46851e+57
          1668.76590	         7.28869e+57
          1669.57220	         6.82024e+57
          1670.37850	         7.53794e+57
          1671.18480	         8.44804e+57
          1671.99110	         8.25716e+57
          1672.79740	         7.35032e+57
          1673.60370	         6.70194e+57
          1674.41000	         7.02348e+57
          1675.21630	         7.28146e+57
          1676.02260	         7.22835e+57
          1676.82890	         7.14247e+57
          1677.63520	         6.48566e+57
          1678.44150	         6.97866e+57
          1679.24780	         8.47205e+57
          1680.05410	         7.95357e+57
          1680.86040	         5.75217e+57
          1681.66670	         7.39982e+57
          1682.47300	         9.81997e+57
          1683.27930	         9.93700e+57
          1684.08560	         9.16708e+57
          1684.89190	         8.04441e+57
          1685.69820	         5.96845e+57
          1686.50450	         4.89016e+57
          1687.31080	         6.87342e+57
          1688.11710	         7.64626e+57
          1688.92340	         7.18129e+57
          1689.72970	         6.92404e+57
          1690.53600	         6.95626e+57
          1691.34230	         7.54887e+57
          1692.14860	         7.62225e+57
          1692.95490	         7.80893e+57
          1693.76120	         7.91462e+57
          1694.56750	         7.67264e+57
          1695.37380	         9.69164e+57
          1696.18010	         9.52790e+57
          1696.98640	         8.25456e+57
          1697.79270	         6.55741e+57
          1698.59900	         6.51340e+57
          1699.40530	         7.39238e+57
          1700.21160	         6.96353e+57
          1701.01790	         7.67825e+57
          1701.82420	         8.23921e+57
          1702.63050	         7.45817e+57
          1703.43680	         8.58856e+57
          1704.24310	         9.17473e+57
          1705.04940	         8.12948e+57
          1705.85570	         8.58389e+57
          1706.66200	         8.49261e+57
          1707.46830	         8.37366e+57
          1708.27460	         8.38974e+57
          1709.08090	         6.92652e+57
          1709.88720	         5.47870e+57
          1710.69350	         5.49043e+57
          1711.49980	         5.73837e+57
          1712.30610	         6.71238e+57
          1713.11240	         8.67068e+57
          1713.91870	         7.62807e+57
          1714.72500	         8.03259e+57
          1715.53130	         9.07114e+57
          1716.33760	         7.68915e+57
          1717.14390	         7.18129e+57
          1717.95020	         8.53781e+57
          1718.75650	         9.77310e+57
          1719.56280	         9.00767e+57
          1720.36910	         6.84194e+57
          1721.17540	         7.32178e+57
          1721.98170	         7.24541e+57
          1722.78800	         7.03740e+57
          1723.59430	         7.01335e+57
          1724.40060	         7.97031e+57
          1725.20690	         8.58743e+57
          1726.01320	         8.54089e+57
          1726.81950	         7.61888e+57
          1727.62580	         8.35913e+57
          1728.43210	         7.77485e+57
          1729.23840	         7.62929e+57
          1730.04470	         8.97545e+57
          1730.85100	         9.28749e+57
          1731.65730	         8.16043e+57
          1732.46360	         7.97981e+57
          1733.26990	         7.69987e+57
          1734.07620	         7.55324e+57
          1734.88250	         7.58997e+57
          1735.68880	         7.85744e+57
          1736.49510	         7.60104e+57
          1737.30140	         7.47114e+57
          1738.10770	         6.65525e+57
          1738.91400	         6.50902e+57
          1739.72030	         6.99926e+57
          1740.52660	         6.49115e+57
          1741.33290	         6.48370e+57
          1742.13920	         5.53960e+57
          1742.94550	         6.71815e+57
          1743.75180	         7.86574e+57
          1744.55810	         7.75935e+57
          1745.36440	         7.10354e+57
          1746.17070	         5.47582e+57
          1746.97700	         5.56968e+57
          1747.78330	         7.23274e+57
          1748.58960	         7.00860e+57
          1749.39590	         7.19192e+57
          1750.20220	         6.17669e+57
          1751.00850	         5.57869e+57
          1751.81480	         5.56280e+57
          1752.62110	         8.02528e+57
          1753.42740	         8.09523e+57
          1754.23370	         5.56869e+57
          1755.04000	         6.16518e+57
          1755.84630	         7.17860e+57
          1756.65260	         7.68463e+57
          1757.45890	         8.71596e+57
          1758.26520	         8.89472e+57
          1759.07150	         9.79520e+57
          1759.87780	         8.92869e+57
          1760.68410	         7.85195e+57
          1761.49040	         8.04725e+57
          1762.29670	         7.40154e+57
          1763.10300	         6.57018e+57
          1763.90930	         6.96523e+57
          1764.71560	         7.53974e+57
          1765.52190	         7.66007e+57
          1766.32820	         8.09041e+57
          1767.13450	         7.82951e+57
          1767.94080	         7.26077e+57
          1768.74710	         7.56702e+57
          1769.55340	         6.80699e+57
          1770.35970	         6.32901e+57
          1771.16600	         7.51254e+57
          1771.97230	         8.03873e+57
          1772.77860	         8.56971e+57
          1773.58490	         8.02478e+57
          1774.39120	         6.13981e+57
          1775.19750	         6.09724e+57
          1776.00380	         6.69028e+57
          1776.81010	         7.18615e+57
          1777.61640	         6.40871e+57
          1778.42270	         7.47225e+57
          1779.22900	         7.46911e+57
          1780.03530	         6.30854e+57
          1780.84160	         7.43058e+57
          1781.64790	         8.60092e+57
          1782.45420	         7.51211e+57
          1783.26050	         7.00903e+57
          1784.06680	         8.06652e+57
          1784.87310	         7.85134e+57
          1785.67940	         7.84682e+57
          1786.48570	         7.93891e+57
          1787.29200	         6.70515e+57
          1788.09830	         6.38315e+57
          1788.90460	         6.66770e+57
          1789.71090	         6.20170e+57
          1790.51720	         5.42717e+57
          1791.32350	         6.83561e+57
          1792.12980	         7.80364e+57
          1792.93610	         7.29895e+57
          1793.74240	         6.70881e+57
          1794.54870	         7.64520e+57
          1795.35500	         8.43691e+57
          1796.16130	         8.24691e+57
          1796.96760	         7.56767e+57
          1797.77390	         8.16656e+57
          1798.58020	         7.75585e+57
          1799.38650	         7.28930e+57
          1800.19280	         6.97281e+57
          1800.99910	         6.43922e+57
          1801.80540	         7.49591e+57
          1802.61170	         8.31514e+57
          1803.41800	         8.53011e+57
          1804.22430	         8.28456e+57
          1805.03060	         8.10802e+57
          1805.83690	         8.18764e+57
          1806.64320	         7.61109e+57
          1807.44950	         7.42076e+57
          1808.25580	         7.28227e+57
          1809.06210	         8.67055e+57
          1809.86840	         7.67561e+57
          1810.67470	         6.71047e+57
          1811.48100	         9.11769e+57
          1812.28730	         9.40999e+57
          1813.09360	         8.90733e+57
          1813.89990	         7.99678e+57
          1814.70620	         6.69796e+57
          1815.51250	         8.54839e+57
          1816.31880	         7.90885e+57
          1817.12510	         7.10475e+57
          1817.93140	         7.11705e+57
          1818.73770	         7.49897e+57
          1819.54400	         8.75653e+57
          1820.35030	         9.22578e+57
          1821.15660	         7.46016e+57
          1821.96290	         6.81743e+57
          1822.76920	         6.12793e+57
          1823.57550	         7.25812e+57
          1824.38180	         7.33600e+57
          1825.18810	         7.64435e+57
          1825.99440	         8.97412e+57
          1826.80070	         8.13196e+57
          1827.60700	         6.27065e+57
          1828.41330	         6.24751e+57
          1829.21960	         6.88931e+57
          1830.02590	         6.55186e+57
          1830.83220	         7.54943e+57
          1831.63850	         8.30348e+57
          1832.44480	         7.87338e+57
          1833.25110	         8.87125e+57
          1834.05740	         8.43545e+57
          1834.86370	         6.63296e+57
          1835.67000	         5.95774e+57
          1836.47630	         7.47985e+57
          1837.28260	         9.45991e+57
          1838.08890	         8.30826e+57
          1838.89520	         8.19125e+57
          1839.70150	         8.79329e+57
          1840.50780	         7.96167e+57
          1841.31410	         6.98563e+57
          1842.12040	         6.45020e+57
          1842.92670	         7.25989e+57
          1843.73300	         6.98010e+57
          1844.53930	         7.26547e+57
          1845.34560	         7.15728e+57
          1846.15190	         6.64742e+57
          1846.95820	         7.24769e+57
          1847.76450	         5.76790e+57
          1848.57080	         5.76982e+57
          1849.37710	         7.12602e+57
          1850.18340	         6.81426e+57
          1850.98970	         7.52365e+57
          1851.79600	         9.07742e+57
          1852.60230	         7.88367e+57
          1853.40860	         7.12912e+57
          1854.21490	         7.37971e+57
          1855.02120	         5.82651e+57
          1855.82750	         4.32890e+57
          1856.63380	         5.55199e+57
          1857.44010	         7.09151e+57
          1858.24640	         6.98873e+57
          1859.05270	         6.61466e+57
          1859.85900	         6.19322e+57
          1860.66530	         5.66776e+57
          1861.47160	         6.87866e+57
          1862.27790	         7.11429e+57
          1863.08420	         7.42137e+57
          1863.89050	         8.57128e+57
          1864.69680	         7.73756e+57
          1865.50310	         7.84667e+57
          1866.30940	         6.97503e+57
          1867.11570	         6.47154e+57
          1867.92200	         7.79798e+57
          1868.72830	         7.28816e+57
          1869.53460	         7.19022e+57
          1870.34090	         6.85392e+57
          1871.14720	         7.73815e+57
          1871.95350	         7.59052e+57
          1872.75980	         7.99520e+57
          1873.56610	         7.06740e+57
          1874.37240	         5.32202e+57
          1875.17870	         5.21928e+57
          1875.98500	         7.23574e+57
          1876.79130	         7.83484e+57
          1877.59760	         7.15909e+57
          1878.40390	         6.31751e+57
          1879.21020	         6.13612e+57
          1880.01650	         7.98945e+57
          1880.82280	         9.10263e+57
          1881.62910	         8.92069e+57
          1882.43540	         9.92837e+57
          1883.24170	         8.35337e+57
          1884.04800	         7.70984e+57
          1884.85430	         7.46345e+57
          1885.66060	         8.42758e+57
          1886.46690	         7.97443e+57
          1887.27320	         6.57644e+57
          1888.07950	         5.87845e+57
          1888.88580	         6.84501e+57
          1889.69210	         8.77663e+57
          1890.49840	         8.93419e+57
          1891.30470	         8.05405e+57
          1892.11100	         8.75066e+57
          1892.91730	         7.75027e+57
          1893.72360	         8.17283e+57
          1894.52990	         7.62430e+57
          1895.33620	         8.11057e+57
          1896.14250	         7.92179e+57
          1896.94880	         6.84418e+57
          1897.75510	         5.08407e+57
          1898.56140	         5.77085e+57
          1899.36770	         8.42667e+57
          1900.17400	         7.54071e+57
          1900.98030	         6.51698e+57
          1901.78660	         7.79540e+57
          1902.59290	         7.26908e+57
          1903.39920	         8.28736e+57
          1904.20550	         8.76446e+57
          1905.01180	         7.55365e+57
          1905.81810	         8.57438e+57
          1906.62440	         1.16886e+58
          1907.43070	         1.53951e+58
          1908.23700	         1.57767e+58
          1909.04330	         1.30522e+58
          1909.84960	         1.06854e+58
          1910.65590	         9.86545e+57
          1911.46220	         8.85357e+57
          1912.26850	         7.55348e+57
          1913.07480	         5.97616e+57
          1913.88110	         5.83880e+57
          1914.68740	         5.79374e+57
          1915.49370	         6.20911e+57
          1916.30000	         6.87321e+57
          1917.10630	         6.80078e+57
          1917.91260	         6.57579e+57
          1918.71890	         7.36627e+57
          1919.52520	         6.68618e+57
          1920.33150	         5.11787e+57
          1921.13780	         6.74885e+57
          1921.94410	         8.32742e+57
          1922.75040	         8.92361e+57
          1923.55670	         9.25019e+57
          1924.36300	         7.56862e+57
          1925.16930	         5.32054e+57
          1925.97560	         4.67516e+57
          1926.78190	         4.24062e+57
          1927.58820	         5.56424e+57
          1928.39450	         6.55944e+57
          1929.20080	         5.95172e+57
          1930.00710	         6.41163e+57
          1930.81340	         7.02410e+57
          1931.61970	         7.15205e+57
          1932.42600	         7.81101e+57
          1933.23230	         8.48499e+57
          1934.03860	         7.24988e+57
          1934.84490	         5.43789e+57
          1935.65120	         7.71604e+57
          1936.45750	         8.88337e+57
          1937.26380	         7.39014e+57
          1938.07010	         7.49641e+57
          1938.87640	         7.54569e+57
          1939.68270	         6.88278e+57
          1940.48900	         8.18271e+57
          1941.29530	         8.61593e+57
          1942.10160	         7.38355e+57
          1942.90790	         5.93914e+57
          1943.71420	         4.98841e+57
          1944.52050	         4.86526e+57
          1945.32680	         5.53506e+57
          1946.13310	         6.46340e+57
          1946.93940	         8.32825e+57
          1947.74570	         8.35910e+57
          1948.55200	         6.70279e+57
          1949.35830	         7.05650e+57
          1950.16460	         6.82436e+57
          1950.97090	         7.13797e+57
          1951.77720	         8.50979e+57
          1952.58350	         8.73704e+57
          1953.38980	         6.51939e+57
          1954.19610	         5.09156e+57
          1955.00240	         5.93330e+57
          1955.80870	         6.92221e+57
          1956.61500	         6.78718e+57
          1957.42130	         6.34802e+57
          1958.22760	         7.12355e+57
          1959.03390	         7.35040e+57
          1959.84020	         6.83789e+57
          1960.64650	         7.09792e+57
          1961.45280	         7.21581e+57
          1962.25910	         6.91927e+57
          1963.06540	         7.04871e+57
          1963.87170	         6.58716e+57
          1964.67800	         7.39886e+57
          1965.48430	         6.55503e+57
          1966.29060	         4.83828e+57
          1967.09690	         7.09410e+57
          1967.90320	         7.20001e+57
          1968.70950	         6.63016e+57
          1969.51580	         5.62282e+57
          1970.32210	         6.39619e+57
          1971.12840	         7.63131e+57
          1971.93470	         6.36190e+57
          1972.74100	         5.26439e+57
          1973.54730	         6.65042e+57
          1974.35360	         6.70697e+57
          1975.15990	         6.89598e+57
          1975.96620	         7.00186e+57
          1976.77250	         7.98891e+57
          1977.57880	         8.05001e+57
          1978.38510	         7.11445e+57
          1979.19140	         7.72449e+57
          1979.99770	         8.61899e+57
          1980.80400	         7.90983e+57
          1981.61030	         6.74490e+57
          1982.41660	         5.19258e+57
          1983.22290	         5.91406e+57
          1984.02920	         5.51542e+57
          1984.83550	         5.40516e+57
          1985.64180	         6.82658e+57
          1986.44810	         6.33138e+57
          1987.25440	         5.32314e+57
          1988.06070	         5.42299e+57
          1988.86700	         4.92002e+57
          1989.67330	         5.74504e+57
          1990.47960	         6.33997e+57
          1991.28590	         6.77017e+57
          1992.09220	         6.33876e+57
          1992.89850	         6.78909e+57
          1993.70480	         5.45753e+57
          1994.51110	         5.15690e+57
          1995.31740	         5.83097e+57
          1996.12370	         5.28754e+57
          1996.93000	         5.82638e+57
          1997.73630	         7.82778e+57
          1998.54260	         8.06550e+57
          1999.34890	         6.63301e+57
          2000.15520	         6.44227e+57
          2000.96150	         7.33040e+57
          2001.76780	         6.25192e+57
          2002.57410	         5.15460e+57
          2003.38040	         6.26637e+57
          2004.18670	         6.40692e+57
          2004.99300	         6.02523e+57
          2005.79930	         7.50433e+57
          2006.60560	         7.12424e+57
          2007.41190	         6.75384e+57
          2008.21820	         5.88340e+57
          2009.02450	         5.80667e+57
          2009.83080	         6.34701e+57
          2010.63710	         6.71962e+57
          2011.44340	         6.76271e+57
          2012.24970	         7.01284e+57
          2013.05600	         5.76695e+57
          2013.86230	         5.89185e+57
          2014.66860	         6.10209e+57
          2015.47490	         5.94578e+57
          2016.28120	         7.20747e+57
          2017.08750	         7.10663e+57
          2017.89380	         7.05503e+57
          2018.70010	         7.29890e+57
          2019.50640	         5.18488e+57
          2020.31270	         6.59775e+57
          2021.11900	         7.97920e+57
          2021.92530	         7.46288e+57
          2022.73160	         7.98272e+57
          2023.53790	         7.15258e+57
          2024.34420	         5.26153e+57
          2025.15050	         5.79165e+57
          2025.95680	         6.61736e+57
          2026.76310	         6.75035e+57
          2027.56940	         6.46701e+57
          2028.37570	         5.42109e+57
          2029.18200	         5.43385e+57
          2029.98830	         5.66396e+57
          2030.79460	         7.37331e+57
          2031.60090	         6.91168e+57
          2032.40720	         6.52084e+57
          2033.21350	         5.67315e+57
          2034.01980	         6.17662e+57
          2034.82610	         5.02159e+57
          2035.63240	         5.55870e+57
          2036.43870	         6.15823e+57
          2037.24500	         6.10450e+57
          2038.05130	         6.52720e+57
          2038.85760	         6.79882e+57
          2039.66390	         6.42146e+57
          2040.47020	         6.06179e+57
          2041.27650	         5.25915e+57
          2042.08280	         5.34367e+57
          2042.88910	         5.29017e+57
          2043.69540	         4.33533e+57
          2044.50170	         5.49767e+57
          2045.30800	         5.89369e+57
          2046.11430	         5.62926e+57
          2046.92060	         6.16752e+57
          2047.72690	         6.46661e+57
          2048.53320	         6.44258e+57
          2049.33950	         5.85316e+57
          2050.14580	         7.28820e+57
          2050.95210	         7.70823e+57
          2051.75840	         5.89406e+57
          2052.56470	         5.17966e+57
          2053.37100	         4.38313e+57
          2054.17730	         4.69765e+57
          2054.98360	         4.87024e+57
          2055.78990	         2.87846e+57
          2056.59620	         4.24586e+57
          2057.40250	         5.11341e+57
          2058.20880	         6.12844e+57
          2059.01510	         7.26283e+57
          2059.82140	         5.53997e+57
          2060.62770	         9.82993e+57
          2061.43400	         1.57472e+58
          2062.24030	         1.24998e+58
          2063.04660	         4.91175e+57
          2063.85290	         2.83333e+57
          2064.65920	        -1.14689e+57
          2065.46550	        -7.54652e+57
          2066.27180	        -9.34593e+57
          2067.07810	         6.75345e+56
          2067.88440	         4.28950e+57
          2068.69070	         7.16247e+57
          2069.49700	         6.05064e+57
          2070.30330	         3.94710e+57
          2071.10960	         5.61714e+57
          2071.91590	         6.93155e+57
          2072.72220	         4.00638e+57
          2073.52850	         4.09248e+57
          2074.33480	         4.14262e+57
          2075.14110	         4.68473e+57
          2075.94740	         4.47241e+57
          2076.75370	         4.09721e+57
          2077.56000	         5.30724e+57
          2078.36630	         6.06274e+57
          2079.17260	         4.71149e+57
          2079.97890	         5.01463e+57
          2080.78520	         5.39046e+57
          2081.59150	         4.70004e+57
          2082.39780	         3.49678e+57
          2083.20410	         2.14213e+57
          2084.01040	         2.84412e+57
          2084.81670	         5.12094e+57
          2085.62300	         3.81640e+57
          2086.42930	         3.13072e+57
          2087.23560	         3.80184e+57
          2088.04190	         2.78099e+57
          2088.84820	         3.03784e+57
          2089.65450	         3.37246e+57
          2090.46080	         1.78090e+57
          2091.26710	         2.36635e+57
          2092.07340	         2.17866e+57
          2092.87970	         1.67680e+57
          2093.68600	        -2.18155e+57
          2094.49230	         2.14018e+57
          2095.29860	         4.34487e+57
          2096.10490	         2.54251e+57
          2096.91120	         3.14066e+57
          2097.71750	         3.76171e+57
          2098.52380	        -4.19958e+56
          2099.33010	         7.71194e+56
          2100.13640	         2.39120e+57
          2100.94270	         1.93147e+57
          2101.74900	         2.62401e+57
          2102.55530	         3.84139e+57
          2103.36160	         2.81415e+57
          2104.16790	         4.83280e+57
          2104.97420	         4.15302e+57
          2105.78050	         2.52193e+57
          2106.58680	         5.95850e+56
          2107.39310	        -5.61292e+56
          2108.19940	         6.55418e+56
          2109.00570	        -1.69536e+56
          2109.81200	         2.42954e+56
          2110.61830	         2.13029e+57
          2111.42460	         3.38568e+57
          2112.23090	         3.83783e+56
          2113.03720	         1.66019e+57
          2113.84350	         6.05047e+55
          2114.64980	         3.19879e+57
          2115.45610	        -1.96533e+57
          2116.26240	        -2.16410e+57
          2117.06870	        -1.92570e+56
          2117.87500	        -1.87123e+57
          2118.68130	        -9.66341e+56
          2119.48760	        -9.76830e+56
          2120.29390	        -1.13194e+57
          2121.10020	        -2.59317e+57
          2121.90650	        -2.72191e+57
          2122.71280	         6.70243e+56
          2123.51910	         9.21011e+56
          2124.32540	        -3.11345e+57
          2125.13170	         7.07083e+56
          2125.93800	         2.27785e+57
          2126.74430	        -1.95630e+57
          2127.55060	        -4.22383e+57
          2128.35690	        -3.60799e+57
          2129.16320	        -2.43594e+57
          2129.96950	         3.65923e+56
          2130.77580	         2.18249e+57
          2131.58210	        -1.26411e+57
          2132.38840	        -2.47652e+57
          2133.19470	         8.62572e+55
          2134.00100	        -2.27480e+57
          2134.80730	        -1.25554e+58
          2135.61360	        -3.62948e+57
          2136.41990	         1.25213e+58
          2137.22620	         7.17578e+57
          2138.03250	        -1.26852e+57
          2138.83880	        -1.52592e+57
          2139.64510	         7.89448e+56
          2140.45140	        -6.00344e+57
          2141.25770	        -1.08607e+58
          2142.06400	        -2.30107e+57
          2142.87030	         1.36978e+58
          2143.67660	         1.37284e+58
          2144.48290	         5.00683e+56
          2145.28920	         7.26502e+57
          2146.09550	         1.68426e+57
          2146.90180	         1.36822e+56
          2147.70810	        -1.88722e+57
          2148.51440	        -7.60825e+57
          2149.32070	        -3.14668e+57
          2150.12700	        -1.02085e+58
          2150.93330	        -6.17077e+57
          2151.73960	         2.77261e+56
          2152.54590	        -1.76860e+57
          2153.35220	        -6.48821e+57
          2154.15850	        -6.59885e+57
          2154.96480	         5.43543e+57
          2155.77110	        -5.95418e+57
          2156.57740	        -2.52506e+57
          2157.38370	        -1.93326e+57
          2158.19000	        -9.56773e+57
          2158.99630	        -1.42472e+58
          2159.80260	        -8.54818e+57
          2160.60890	        -6.57480e+57
          2161.41520	        -3.06382e+56
          2162.22150	        -2.49313e+57
          2163.02780	         2.98781e+57
          2163.83410	        -8.55190e+56
          2164.64040	        -2.25955e+57
          2165.44670	        -7.76831e+57
          2166.25300	        -6.43445e+57
          2167.05930	         2.98860e+57
          2167.86560	        -1.03920e+58
          2168.67190	        -1.04480e+58
          2169.47820	        -7.44655e+57
          2170.28450	        -1.35353e+58
          2171.09080	        -2.70809e+57
          2171.89710	        -3.88208e+57
          2172.70340	        -1.45454e+56
          2173.50970	        -1.04598e+58
          2174.31600	        -4.14925e+57
          2175.12230	        -1.14208e+58
          2175.92860	        -5.70956e+57
          2176.73490	        -7.25422e+57
          2177.54120	        -5.97947e+57
          2178.34750	        -5.86329e+57
          2179.15380	                 nan
          2179.96010	                 nan
          2180.76640	                 nan
          2181.57270	                 nan
          2182.37900	                 nan
          2183.18530	                 nan
          2183.99160	                 nan
          2184.79790	                 nan
          2185.60420	                 nan
          2186.41050	                 nan
          2187.21680	                 nan
          2188.02310	                 nan
          2188.82940	                 nan
          2189.63570	                 nan
          2190.44200	                 nan
          2191.24830	                 nan
          2192.05460	                 nan
          2192.86090	                 nan
          2193.66720	                 nan
          2194.47350	                 nan
          2195.27980	                 nan
          2196.08610	                 nan
          2196.89240	                 nan
          2197.69870	                 nan
          2198.50500	                 nan
          2199.31130	                 nan
          2200.11760	                 nan
          2200.92390	                 nan
          2201.73020	                 nan
          2202.53650	                 nan
          2203.34280	                 nan
          2204.14910	                 nan
          2204.95540	                 nan
          2205.76170	                 nan
          2206.56800	                 nan
          2207.37430	                 nan
          2208.18060	                 nan
          2208.98690	                 nan
          2209.79320	                 nan
          2210.59950	                 nan
          2211.40580	                 nan
          2212.21210	                 nan
          2213.01840	                 nan
          2213.82470	                 nan
          2214.63100	                 nan
          2215.43730	         0.00000e+00
