#sample_187_stacked_spectrum_rest_UV-bands_median_H-alpha_noDC.txt
#median Lum: 1.65929e+42
#Rest-frame wavelength (A) | Luminosity (erg/s/A)
#
          1110.00000	         0.00000e+00
          1110.80630	         7.04023e+56
          1111.61260	         4.79624e+59
          1112.41890	         9.68689e+58
          1113.22520	         3.14185e+57
          1114.03150	        -8.17648e+58
          1114.83780	         2.19430e+59
          1115.64410	         9.38168e+58
          1116.45040	         8.12956e+58
          1117.25670	        -7.97178e+58
          1118.06300	         2.70291e+58
          1118.86930	         5.91963e+58
          1119.67560	         1.88029e+59
          1120.48190	         8.41243e+57
          1121.28820	        -9.19222e+58
          1122.09450	        -1.22524e+57
          1122.90080	        -2.69171e+57
          1123.70710	         2.11526e+58
          1124.51340	         1.09807e+59
          1125.31970	         4.03463e+58
          1126.12600	        -2.50815e+58
          1126.93230	        -2.28274e+58
          1127.73860	        -5.96059e+58
          1128.54490	         4.25560e+58
          1129.35120	         1.65833e+58
          1130.15750	        -2.74597e+57
          1130.96380	        -1.77923e+58
          1131.77010	         1.17649e+58
          1132.57640	        -3.40912e+57
          1133.38270	         1.41420e+58
          1134.18900	         2.21238e+58
          1134.99530	         5.91218e+57
          1135.80160	         2.25787e+58
          1136.60790	         2.90751e+58
          1137.41420	         1.83125e+58
          1138.22050	         3.50243e+58
          1139.02680	         2.37570e+58
          1139.83310	         2.09210e+58
          1140.63940	         6.26462e+57
          1141.44570	        -3.32257e+58
          1142.25200	        -1.32562e+58
          1143.05830	         2.03668e+58
          1143.86460	         1.65614e+58
          1144.67090	         1.56402e+58
          1145.47720	         1.60141e+57
          1146.28350	         3.14180e+56
          1147.08980	         4.82983e+57
          1147.89610	         2.41899e+58
          1148.70240	         2.63586e+58
          1149.50870	         2.77095e+58
          1150.31500	         1.43630e+58
          1151.12130	         1.09321e+58
          1151.92760	         1.65350e+57
          1152.73390	         3.24028e+57
          1153.54020	         3.26870e+57
          1154.34650	         2.39433e+58
          1155.15280	         1.98654e+58
          1155.95910	        -2.40485e+57
          1156.76540	         4.77005e+57
          1157.57170	         9.25738e+57
          1158.37800	         8.44038e+57
          1159.18430	        -9.94813e+56
          1159.99060	         2.24104e+57
          1160.79690	         1.16133e+58
          1161.60320	         1.69703e+58
          1162.40950	         1.33568e+58
          1163.21580	         1.93882e+58
          1164.02210	         1.80129e+58
          1164.82840	         9.02500e+57
          1165.63470	         1.89264e+58
          1166.44100	         2.52102e+58
          1167.24730	         1.24752e+58
          1168.05360	         7.42913e+57
          1168.85990	         1.02108e+58
          1169.66620	         1.19630e+58
          1170.47250	         1.84526e+58
          1171.27880	         1.84267e+58
          1172.08510	         1.43227e+58
          1172.89140	         8.09085e+57
          1173.69770	         9.76986e+57
          1174.50400	         1.55441e+58
          1175.31030	         1.67749e+58
          1176.11660	         1.17549e+58
          1176.92290	         1.35565e+58
          1177.72920	         1.39298e+58
          1178.53550	         1.05756e+58
          1179.34180	         3.74189e+57
          1180.14810	         4.74569e+57
          1180.95440	         5.65483e+57
          1181.76070	         7.14070e+57
          1182.56700	         6.75472e+57
          1183.37330	         6.47066e+57
          1184.17960	         1.46031e+58
          1184.98590	         1.00723e+58
          1185.79220	         5.61810e+57
          1186.59850	         1.16210e+58
          1187.40480	         1.21592e+58
          1188.21110	         1.55438e+58
          1189.01740	         4.18239e+57
          1189.82370	         5.85940e+57
          1190.63000	         1.29585e+58
          1191.43630	         1.46246e+58
          1192.24260	         7.11887e+57
          1193.04890	         1.04199e+58
          1193.85520	         1.03052e+58
          1194.66150	         8.77510e+57
          1195.46780	         1.33240e+58
          1196.27410	         1.69880e+58
          1197.08040	         8.80316e+57
          1197.88670	         1.07881e+58
          1198.69300	         1.39521e+58
          1199.49930	         1.42096e+58
          1200.30560	         9.79477e+57
          1201.11190	         7.91851e+57
          1201.91820	         1.00836e+58
          1202.72450	         9.78211e+57
          1203.53080	         1.21789e+58
          1204.33710	         9.84916e+57
          1205.14340	         6.70028e+57
          1205.94970	         5.12956e+57
          1206.75600	         5.58505e+57
          1207.56230	         5.64751e+57
          1208.36860	         7.93894e+57
          1209.17490	         2.40964e+57
          1209.98120	         6.54853e+57
          1210.78750	         6.99032e+57
          1211.59380	         9.13408e+57
          1212.40010	         1.67775e+58
          1213.20640	         1.82356e+58
          1214.01270	         1.94237e+58
          1214.81900	         2.72359e+58
          1215.62530	         4.64655e+58
          1216.43160	         9.20644e+58
          1217.23790	         1.55273e+59
          1218.04420	         1.15774e+59
          1218.85050	         8.47615e+58
          1219.65680	         6.04042e+58
          1220.46310	         3.99725e+58
          1221.26940	         2.56697e+58
          1222.07570	         1.44880e+58
          1222.88200	         1.11731e+58
          1223.68830	         1.27682e+58
          1224.49460	         7.21752e+57
          1225.30090	         6.22450e+57
          1226.10720	         5.78998e+57
          1226.91350	         6.37868e+57
          1227.71980	         6.20897e+57
          1228.52610	         1.06373e+58
          1229.33240	         1.13824e+58
          1230.13870	         1.13116e+58
          1230.94500	         7.65655e+57
          1231.75130	         4.28382e+57
          1232.55760	         7.21125e+57
          1233.36390	         6.61050e+57
          1234.17020	         9.23049e+57
          1234.97650	         7.89073e+57
          1235.78280	         7.72272e+57
          1236.58910	         9.75462e+57
          1237.39540	         1.03993e+58
          1238.20170	         1.16279e+58
          1239.00800	         1.40651e+58
          1239.81430	         1.51805e+58
          1240.62060	         1.25942e+58
          1241.42690	         1.15222e+58
          1242.23320	         1.01135e+58
          1243.03950	         7.07563e+57
          1243.84580	         9.54838e+57
          1244.65210	         9.61509e+57
          1245.45840	         8.26054e+57
          1246.26470	         7.07995e+57
          1247.07100	         7.87306e+57
          1247.87730	         8.11874e+57
          1248.68360	         2.11503e+57
          1249.48990	         7.06430e+57
          1250.29620	         1.08456e+58
          1251.10250	         6.16869e+57
          1251.90880	         3.10687e+57
          1252.71510	         4.25326e+57
          1253.52140	         7.05347e+57
          1254.32770	         9.85720e+57
          1255.13400	         1.24202e+58
          1255.94030	         1.09151e+58
          1256.74660	         9.94469e+57
          1257.55290	         9.93154e+57
          1258.35920	         7.26660e+57
          1259.16550	         4.11804e+57
          1259.97180	         5.51047e+57
          1260.77810	         6.12160e+57
          1261.58440	         1.10527e+58
          1262.39070	         8.30847e+57
          1263.19700	         7.50261e+57
          1264.00330	         7.98879e+57
          1264.80960	         1.06203e+58
          1265.61590	         1.32700e+58
          1266.42220	         1.23807e+58
          1267.22850	         9.49798e+57
          1268.03480	         1.12873e+58
          1268.84110	         1.40069e+58
          1269.64740	         1.33780e+58
          1270.45370	         1.37535e+58
          1271.26000	         1.34463e+58
          1272.06630	         1.24093e+58
          1272.87260	         1.27361e+58
          1273.67890	         1.16700e+58
          1274.48520	         1.25511e+58
          1275.29150	         1.27452e+58
          1276.09780	         1.20746e+58
          1276.90410	         1.39238e+58
          1277.71040	         1.36714e+58
          1278.51670	         1.31719e+58
          1279.32300	         1.42976e+58
          1280.12930	         1.25334e+58
          1280.93560	         1.10481e+58
          1281.74190	         1.24260e+58
          1282.54820	         1.33605e+58
          1283.35450	         9.91778e+57
          1284.16080	         8.51384e+57
          1284.96710	         9.23039e+57
          1285.77340	         9.71392e+57
          1286.57970	         1.01021e+58
          1287.38600	         1.35446e+58
          1288.19230	         1.65271e+58
          1288.99860	         1.64965e+58
          1289.80490	         1.22377e+58
          1290.61120	         1.15122e+58
          1291.41750	         1.29123e+58
          1292.22380	         1.14011e+58
          1293.03010	         9.97691e+57
          1293.83640	         1.09053e+58
          1294.64270	         8.54628e+57
          1295.44900	         5.14255e+57
          1296.25530	         7.53172e+57
          1297.06160	         1.20282e+58
          1297.86790	         1.34139e+58
          1298.67420	         1.23125e+58
          1299.48050	         1.17886e+58
          1300.28680	         1.02993e+58
          1301.09310	         6.93214e+57
          1301.89940	         3.09390e+57
          1302.70570	         4.39476e+57
          1303.51200	         6.83820e+57
          1304.31830	         9.24035e+57
          1305.12460	         1.03873e+58
          1305.93090	         1.08048e+58
          1306.73720	         1.13136e+58
          1307.54350	         1.29687e+58
          1308.34980	         1.33211e+58
          1309.15610	         1.46844e+58
          1309.96240	         1.62527e+58
          1310.76870	         1.31615e+58
          1311.57500	         1.03347e+58
          1312.38130	         8.46618e+57
          1313.18760	         1.29309e+58
          1313.99390	         1.51691e+58
          1314.80020	         1.71890e+58
          1315.60650	         1.59126e+58
          1316.41280	         1.09256e+58
          1317.21910	         8.81959e+57
          1318.02540	         1.14549e+58
          1318.83170	         1.34163e+58
          1319.63800	         1.22908e+58
          1320.44430	         1.13189e+58
          1321.25060	         1.26836e+58
          1322.05690	         1.18807e+58
          1322.86320	         1.21381e+58
          1323.66950	         1.20585e+58
          1324.47580	         1.01821e+58
          1325.28210	         9.83925e+57
          1326.08840	         1.13841e+58
          1326.89470	         1.38831e+58
          1327.70100	         1.20825e+58
          1328.50730	         1.03162e+58
          1329.31360	         1.17894e+58
          1330.11990	         1.08032e+58
          1330.92620	         9.46086e+57
          1331.73250	         1.14710e+58
          1332.53880	         9.44369e+57
          1333.34510	         7.31020e+57
          1334.15140	         8.29082e+57
          1334.95770	         9.93089e+57
          1335.76400	         9.79085e+57
          1336.57030	         1.08865e+58
          1337.37660	         1.20434e+58
          1338.18290	         1.15324e+58
          1338.98920	         1.09051e+58
          1339.79550	         1.12279e+58
          1340.60180	         1.29578e+58
          1341.40810	         1.44222e+58
          1342.21440	         1.37810e+58
          1343.02070	         1.26206e+58
          1343.82700	         1.35669e+58
          1344.63330	         1.45233e+58
          1345.43960	         1.36168e+58
          1346.24590	         1.20512e+58
          1347.05220	         1.21617e+58
          1347.85850	         1.05968e+58
          1348.66480	         1.15644e+58
          1349.47110	         1.26272e+58
          1350.27740	         1.22664e+58
          1351.08370	         1.21032e+58
          1351.89000	         1.16327e+58
          1352.69630	         1.06714e+58
          1353.50260	         1.14699e+58
          1354.30890	         1.08193e+58
          1355.11520	         1.01775e+58
          1355.92150	         9.85677e+57
          1356.72780	         9.40975e+57
          1357.53410	         9.93574e+57
          1358.34040	         1.19702e+58
          1359.14670	         1.11703e+58
          1359.95300	         1.02257e+58
          1360.75930	         1.09536e+58
          1361.56560	         1.00888e+58
          1362.37190	         1.21013e+58
          1363.17820	         1.06558e+58
          1363.98450	         1.14550e+58
          1364.79080	         1.22257e+58
          1365.59710	         1.24475e+58
          1366.40340	         1.15618e+58
          1367.20970	         1.12903e+58
          1368.01600	         1.12354e+58
          1368.82230	         8.88106e+57
          1369.62860	         8.29838e+57
          1370.43490	         8.20528e+57
          1371.24120	         8.50176e+57
          1372.04750	         7.50079e+57
          1372.85380	         9.35440e+57
          1373.66010	         8.97183e+57
          1374.46640	         9.23897e+57
          1375.27270	         1.05732e+58
          1376.07900	         8.84468e+57
          1376.88530	         7.60308e+57
          1377.69160	         8.78828e+57
          1378.49790	         8.30910e+57
          1379.30420	         6.96796e+57
          1380.11050	         7.25101e+57
          1380.91680	         7.75527e+57
          1381.72310	         8.94087e+57
          1382.52940	         9.36781e+57
          1383.33570	         7.85706e+57
          1384.14200	         8.91992e+57
          1384.94830	         1.05223e+58
          1385.75460	         1.06122e+58
          1386.56090	         1.17793e+58
          1387.36720	         1.17139e+58
          1388.17350	         1.15336e+58
          1388.97980	         9.42751e+57
          1389.78610	         8.55079e+57
          1390.59240	         7.72769e+57
          1391.39870	         7.15369e+57
          1392.20500	         8.57695e+57
          1393.01130	         7.45853e+57
          1393.81760	         6.25657e+57
          1394.62390	         7.85883e+57
          1395.43020	         7.78769e+57
          1396.23650	         6.89879e+57
          1397.04280	         7.06152e+57
          1397.84910	         8.28437e+57
          1398.65540	         8.50199e+57
          1399.46170	         8.92907e+57
          1400.26800	         7.87879e+57
          1401.07430	         7.88523e+57
          1401.88060	         7.96802e+57
          1402.68690	         9.63982e+57
          1403.49320	         9.63179e+57
          1404.29950	         8.97195e+57
          1405.10580	         1.15578e+58
          1405.91210	         1.17079e+58
          1406.71840	         1.01295e+58
          1407.52470	         9.27860e+57
          1408.33100	         9.31652e+57
          1409.13730	         1.08254e+58
          1409.94360	         1.09322e+58
          1410.74990	         1.10882e+58
          1411.55620	         9.57785e+57
          1412.36250	         8.83959e+57
          1413.16880	         1.00172e+58
          1413.97510	         8.80679e+57
          1414.78140	         8.11381e+57
          1415.58770	         1.06068e+58
          1416.39400	         1.09975e+58
          1417.20030	         9.40215e+57
          1418.00660	         8.78391e+57
          1418.81290	         1.03513e+58
          1419.61920	         1.00813e+58
          1420.42550	         1.15923e+58
          1421.23180	         1.25277e+58
          1422.03810	         1.04865e+58
          1422.84440	         1.09008e+58
          1423.65070	         1.32097e+58
          1424.45700	         1.16030e+58
          1425.26330	         8.43370e+57
          1426.06960	         9.98708e+57
          1426.87590	         1.07584e+58
          1427.68220	         8.92266e+57
          1428.48850	         1.00385e+58
          1429.29480	         1.04598e+58
          1430.10110	         9.35048e+57
          1430.90740	         8.41281e+57
          1431.71370	         8.27379e+57
          1432.52000	         7.81535e+57
          1433.32630	         6.94540e+57
          1434.13260	         7.95526e+57
          1434.93890	         8.17550e+57
          1435.74520	         8.57428e+57
          1436.55150	         8.29919e+57
          1437.35780	         8.47124e+57
          1438.16410	         9.32975e+57
          1438.97040	         8.86440e+57
          1439.77670	         9.23766e+57
          1440.58300	         9.38195e+57
          1441.38930	         9.61359e+57
          1442.19560	         9.44644e+57
          1443.00190	         1.02325e+58
          1443.80820	         1.05955e+58
          1444.61450	         8.96069e+57
          1445.42080	         9.18925e+57
          1446.22710	         1.10176e+58
          1447.03340	         1.03656e+58
          1447.83970	         1.09276e+58
          1448.64600	         1.09198e+58
          1449.45230	         1.07583e+58
          1450.25860	         1.09413e+58
          1451.06490	         9.08558e+57
          1451.87120	         7.85332e+57
          1452.67750	         8.15645e+57
          1453.48380	         9.19449e+57
          1454.29010	         7.78619e+57
          1455.09640	         6.22327e+57
          1455.90270	         7.92833e+57
          1456.70900	         8.59074e+57
          1457.51530	         9.15046e+57
          1458.32160	         1.17009e+58
          1459.12790	         1.13269e+58
          1459.93420	         9.95634e+57
          1460.74050	         8.61720e+57
          1461.54680	         7.81624e+57
          1462.35310	         7.44751e+57
          1463.15940	         8.86736e+57
          1463.96570	         1.07099e+58
          1464.77200	         1.09612e+58
          1465.57830	         1.02324e+58
          1466.38460	         8.82875e+57
          1467.19090	         8.87055e+57
          1467.99720	         9.59884e+57
          1468.80350	         9.67631e+57
          1469.60980	         1.01094e+58
          1470.41610	         9.64914e+57
          1471.22240	         8.73424e+57
          1472.02870	         9.17973e+57
          1472.83500	         9.05174e+57
          1473.64130	         8.98651e+57
          1474.44760	         9.64971e+57
          1475.25390	         9.07879e+57
          1476.06020	         8.80778e+57
          1476.86650	         8.72487e+57
          1477.67280	         7.91288e+57
          1478.47910	         7.95690e+57
          1479.28540	         8.18662e+57
          1480.09170	         8.66785e+57
          1480.89800	         8.06872e+57
          1481.70430	         8.13571e+57
          1482.51060	         8.24848e+57
          1483.31690	         7.33989e+57
          1484.12320	         7.19513e+57
          1484.92950	         7.36345e+57
          1485.73580	         6.77556e+57
          1486.54210	         7.75142e+57
          1487.34840	         8.80029e+57
          1488.15470	         8.66917e+57
          1488.96100	         7.93207e+57
          1489.76730	         9.08717e+57
          1490.57360	         7.81989e+57
          1491.37990	         6.50934e+57
          1492.18620	         7.78240e+57
          1492.99250	         8.79027e+57
          1493.79880	         8.77318e+57
          1494.60510	         7.92873e+57
          1495.41140	         7.39355e+57
          1496.21770	         7.96886e+57
          1497.02400	         9.93500e+57
          1497.83030	         9.04732e+57
          1498.63660	         7.08314e+57
          1499.44290	         6.99684e+57
          1500.24920	         7.39356e+57
          1501.05550	         7.01991e+57
          1501.86180	         8.05880e+57
          1502.66810	         1.07456e+58
          1503.47440	         1.04991e+58
          1504.28070	         8.27975e+57
          1505.08700	         8.97160e+57
          1505.89330	         9.46064e+57
          1506.69960	         8.48840e+57
          1507.50590	         8.23362e+57
          1508.31220	         7.46220e+57
          1509.11850	         7.68064e+57
          1509.92480	         9.05795e+57
          1510.73110	         9.32638e+57
          1511.53740	         7.52669e+57
          1512.34370	         6.86779e+57
          1513.15000	         9.10501e+57
          1513.95630	         1.02205e+58
          1514.76260	         9.27694e+57
          1515.56890	         7.89181e+57
          1516.37520	         7.80403e+57
          1517.18150	         7.74221e+57
          1517.98780	         7.29729e+57
          1518.79410	         7.53545e+57
          1519.60040	         8.12142e+57
          1520.40670	         9.35657e+57
          1521.21300	         9.36536e+57
          1522.01930	         7.53461e+57
          1522.82560	         8.19981e+57
          1523.63190	         9.75861e+57
          1524.43820	         9.31292e+57
          1525.24450	         7.31131e+57
          1526.05080	         6.21168e+57
          1526.85710	         6.90138e+57
          1527.66340	         7.61700e+57
          1528.46970	         7.41961e+57
          1529.27600	         6.71720e+57
          1530.08230	         7.38332e+57
          1530.88860	         7.83978e+57
          1531.69490	         8.86260e+57
          1532.50120	         9.17407e+57
          1533.30750	         9.23927e+57
          1534.11380	         9.28421e+57
          1534.92010	         8.74539e+57
          1535.72640	         9.99680e+57
          1536.53270	         1.01002e+58
          1537.33900	         8.83388e+57
          1538.14530	         8.45768e+57
          1538.95160	         8.71653e+57
          1539.75790	         8.57548e+57
          1540.56420	         8.87792e+57
          1541.37050	         9.12074e+57
          1542.17680	         6.77654e+57
          1542.98310	         7.07608e+57
          1543.78940	         7.92171e+57
          1544.59570	         7.42729e+57
          1545.40200	         7.48690e+57
          1546.20830	         9.18250e+57
          1547.01460	         1.02982e+58
          1547.82090	         1.14797e+58
          1548.62720	         1.22633e+58
          1549.43350	         1.22174e+58
          1550.23980	         1.12033e+58
          1551.04610	         1.21389e+58
          1551.85240	         1.15322e+58
          1552.65870	         1.09754e+58
          1553.46500	         1.03947e+58
          1554.27130	         1.05127e+58
          1555.07760	         1.04838e+58
          1555.88390	         8.82170e+57
          1556.69020	         8.76751e+57
          1557.49650	         8.56579e+57
          1558.30280	         7.91805e+57
          1559.10910	         8.96090e+57
          1559.91540	         8.78807e+57
          1560.72170	         8.09479e+57
          1561.52800	         8.49707e+57
          1562.33430	         9.06768e+57
          1563.14060	         8.56339e+57
          1563.94690	         7.78315e+57
          1564.75320	         8.39054e+57
          1565.55950	         7.27427e+57
          1566.36580	         7.42850e+57
          1567.17210	         8.95786e+57
          1567.97840	         9.00226e+57
          1568.78470	         9.02403e+57
          1569.59100	         8.81932e+57
          1570.39730	         7.92904e+57
          1571.20360	         6.95223e+57
          1572.00990	         8.02900e+57
          1572.81620	         9.39282e+57
          1573.62250	         9.52657e+57
          1574.42880	         8.38015e+57
          1575.23510	         7.09256e+57
          1576.04140	         7.78378e+57
          1576.84770	         8.61812e+57
          1577.65400	         9.12953e+57
          1578.46030	         1.03949e+58
          1579.26660	         1.06193e+58
          1580.07290	         9.68614e+57
          1580.87920	         8.57575e+57
          1581.68550	         7.79857e+57
          1582.49180	         7.99989e+57
          1583.29810	         7.96099e+57
          1584.10440	         8.33722e+57
          1584.91070	         8.53638e+57
          1585.71700	         8.70702e+57
          1586.52330	         8.24946e+57
          1587.32960	         8.37339e+57
          1588.13590	         8.88053e+57
          1588.94220	         8.60890e+57
          1589.74850	         9.39386e+57
          1590.55480	         9.18848e+57
          1591.36110	         7.88974e+57
          1592.16740	         8.22308e+57
          1592.97370	         8.08227e+57
          1593.78000	         8.34321e+57
          1594.58630	         8.87849e+57
          1595.39260	         8.57379e+57
          1596.19890	         8.58228e+57
          1597.00520	         9.17812e+57
          1597.81150	         8.83101e+57
          1598.61780	         7.03712e+57
          1599.42410	         5.95968e+57
          1600.23040	         6.87984e+57
          1601.03670	         8.56347e+57
          1601.84300	         7.93422e+57
          1602.64930	         8.24664e+57
          1603.45560	         9.13181e+57
          1604.26190	         8.27226e+57
          1605.06820	         7.87507e+57
          1605.87450	         6.78415e+57
          1606.68080	         7.15766e+57
          1607.48710	         6.73482e+57
          1608.29340	         6.20029e+57
          1609.09970	         7.17428e+57
          1609.90600	         7.45205e+57
          1610.71230	         7.55691e+57
          1611.51860	         7.68811e+57
          1612.32490	         6.59845e+57
          1613.13120	         7.35257e+57
          1613.93750	         8.54543e+57
          1614.74380	         8.82424e+57
          1615.55010	         8.21079e+57
          1616.35640	         8.69749e+57
          1617.16270	         9.48314e+57
          1617.96900	         9.79485e+57
          1618.77530	         7.90087e+57
          1619.58160	         7.93131e+57
          1620.38790	         9.01441e+57
          1621.19420	         9.23951e+57
          1622.00050	         8.76244e+57
          1622.80680	         8.82016e+57
          1623.61310	         8.06948e+57
          1624.41940	         7.64469e+57
          1625.22570	         8.88432e+57
          1626.03200	         9.17053e+57
          1626.83830	         7.49137e+57
          1627.64460	         6.76330e+57
          1628.45090	         5.76152e+57
          1629.25720	         8.45445e+57
          1630.06350	         9.79281e+57
          1630.86980	         7.02052e+57
          1631.67610	         7.71085e+57
          1632.48240	         8.83610e+57
          1633.28870	         8.48397e+57
          1634.09500	         8.78590e+57
          1634.90130	         1.03278e+58
          1635.70760	         9.04411e+57
          1636.51390	         8.28617e+57
          1637.32020	         7.84459e+57
          1638.12650	         8.19254e+57
          1638.93280	         9.03708e+57
          1639.73910	         9.51707e+57
          1640.54540	         8.91614e+57
          1641.35170	         6.97045e+57
          1642.15800	         8.76298e+57
          1642.96430	         9.46422e+57
          1643.77060	         8.15230e+57
          1644.57690	         8.16468e+57
          1645.38320	         8.78712e+57
          1646.18950	         7.78528e+57
          1646.99580	         8.01304e+57
          1647.80210	         7.54691e+57
          1648.60840	         7.41055e+57
          1649.41470	         7.34167e+57
          1650.22100	         7.25261e+57
          1651.02730	         7.27935e+57
          1651.83360	         6.69529e+57
          1652.63990	         7.90260e+57
          1653.44620	         8.98802e+57
          1654.25250	         6.91024e+57
          1655.05880	         6.31480e+57
          1655.86510	         7.71738e+57
          1656.67140	         7.58135e+57
          1657.47770	         7.73128e+57
          1658.28400	         8.89610e+57
          1659.09030	         8.58967e+57
          1659.89660	         9.56666e+57
          1660.70290	         1.01846e+58
          1661.50920	         9.30394e+57
          1662.31550	         8.89273e+57
          1663.12180	         8.76867e+57
          1663.92810	         9.93146e+57
          1664.73440	         1.07047e+58
          1665.54070	         1.20175e+58
          1666.34700	         1.22866e+58
          1667.15330	         1.04926e+58
          1667.95960	         7.65274e+57
          1668.76590	         6.57738e+57
          1669.57220	         6.59709e+57
          1670.37850	         7.07053e+57
          1671.18480	         7.65730e+57
          1671.99110	         7.22458e+57
          1672.79740	         7.05129e+57
          1673.60370	         6.85461e+57
          1674.41000	         7.45335e+57
          1675.21630	         8.04366e+57
          1676.02260	         7.01335e+57
          1676.82890	         6.75193e+57
          1677.63520	         7.45033e+57
          1678.44150	         7.23940e+57
          1679.24780	         9.06866e+57
          1680.05410	         7.77239e+57
          1680.86040	         4.67964e+57
          1681.66670	         6.03203e+57
          1682.47300	         8.40855e+57
          1683.27930	         7.67269e+57
          1684.08560	         8.19533e+57
          1684.89190	         7.76531e+57
          1685.69820	         5.89654e+57
          1686.50450	         5.36071e+57
          1687.31080	         6.72490e+57
          1688.11710	         7.68266e+57
          1688.92340	         6.72030e+57
          1689.72970	         5.39306e+57
          1690.53600	         5.67604e+57
          1691.34230	         6.18052e+57
          1692.14860	         6.17464e+57
          1692.95490	         7.64916e+57
          1693.76120	         7.66157e+57
          1694.56750	         7.11920e+57
          1695.37380	         8.35722e+57
          1696.18010	         8.72208e+57
          1696.98640	         9.00108e+57
          1697.79270	         7.95848e+57
          1698.59900	         6.87271e+57
          1699.40530	         6.10085e+57
          1700.21160	         7.31717e+57
          1701.01790	         8.40086e+57
          1701.82420	         7.48207e+57
          1702.63050	         7.50522e+57
          1703.43680	         8.26385e+57
          1704.24310	         8.80023e+57
          1705.04940	         7.33398e+57
          1705.85570	         7.62522e+57
          1706.66200	         9.26862e+57
          1707.46830	         8.19873e+57
          1708.27460	         7.16658e+57
          1709.08090	         6.93869e+57
          1709.88720	         6.29336e+57
          1710.69350	         6.59988e+57
          1711.49980	         6.95754e+57
          1712.30610	         6.82913e+57
          1713.11240	         8.78226e+57
          1713.91870	         8.04206e+57
          1714.72500	         7.79528e+57
          1715.53130	         8.04654e+57
          1716.33760	         7.01125e+57
          1717.14390	         5.93321e+57
          1717.95020	         7.74745e+57
          1718.75650	         9.54309e+57
          1719.56280	         8.46870e+57
          1720.36910	         6.74119e+57
          1721.17540	         6.95445e+57
          1721.98170	         6.79454e+57
          1722.78800	         7.17493e+57
          1723.59430	         7.39602e+57
          1724.40060	         7.98289e+57
          1725.20690	         8.57826e+57
          1726.01320	         8.57687e+57
          1726.81950	         8.42959e+57
          1727.62580	         7.87982e+57
          1728.43210	         7.29700e+57
          1729.23840	         7.51025e+57
          1730.04470	         8.04294e+57
          1730.85100	         8.41675e+57
          1731.65730	         8.89271e+57
          1732.46360	         8.16408e+57
          1733.26990	         7.36958e+57
          1734.07620	         6.50662e+57
          1734.88250	         6.89370e+57
          1735.68880	         7.03611e+57
          1736.49510	         8.43465e+57
          1737.30140	         7.82942e+57
          1738.10770	         6.11543e+57
          1738.91400	         6.94338e+57
          1739.72030	         7.12267e+57
          1740.52660	         6.25200e+57
          1741.33290	         6.28883e+57
          1742.13920	         6.90113e+57
          1742.94550	         7.00386e+57
          1743.75180	         7.02886e+57
          1744.55810	         7.26246e+57
          1745.36440	         7.10885e+57
          1746.17070	         5.36106e+57
          1746.97700	         5.30533e+57
          1747.78330	         6.62609e+57
          1748.58960	         6.96592e+57
          1749.39590	         7.24512e+57
          1750.20220	         6.54217e+57
          1751.00850	         6.20520e+57
          1751.81480	         6.76363e+57
          1752.62110	         6.99665e+57
          1753.42740	         7.75888e+57
          1754.23370	         7.19381e+57
          1755.04000	         6.54727e+57
          1755.84630	         6.42568e+57
          1756.65260	         7.87263e+57
          1757.45890	         7.71022e+57
          1758.26520	         7.06175e+57
          1759.07150	         9.43797e+57
          1759.87780	         8.16131e+57
          1760.68410	         6.79582e+57
          1761.49040	         7.65898e+57
          1762.29670	         6.24500e+57
          1763.10300	         6.87149e+57
          1763.90930	         7.90987e+57
          1764.71560	         6.28585e+57
          1765.52190	         7.43919e+57
          1766.32820	         9.35157e+57
          1767.13450	         7.82298e+57
          1767.94080	         6.75574e+57
          1768.74710	         7.10893e+57
          1769.55340	         7.08880e+57
          1770.35970	         6.12559e+57
          1771.16600	         7.07440e+57
          1771.97230	         8.20617e+57
          1772.77860	         8.84571e+57
          1773.58490	         7.67081e+57
          1774.39120	         5.77243e+57
          1775.19750	         5.71102e+57
          1776.00380	         5.95239e+57
          1776.81010	         5.87079e+57
          1777.61640	         6.61927e+57
          1778.42270	         7.19267e+57
          1779.22900	         6.50473e+57
          1780.03530	         6.33304e+57
          1780.84160	         7.29332e+57
          1781.64790	         8.36748e+57
          1782.45420	         8.28564e+57
          1783.26050	         6.34863e+57
          1784.06680	         6.26467e+57
          1784.87310	         7.39051e+57
          1785.67940	         7.53770e+57
          1786.48570	         6.48433e+57
          1787.29200	         6.10525e+57
          1788.09830	         5.89861e+57
          1788.90460	         5.77418e+57
          1789.71090	         4.93577e+57
          1790.51720	         5.21530e+57
          1791.32350	         7.68833e+57
          1792.12980	         9.05498e+57
          1792.93610	         7.24489e+57
          1793.74240	         6.58629e+57
          1794.54870	         7.94026e+57
          1795.35500	         8.72013e+57
          1796.16130	         8.16266e+57
          1796.96760	         7.38803e+57
          1797.77390	         6.66799e+57
          1798.58020	         6.90008e+57
          1799.38650	         5.92680e+57
          1800.19280	         6.36108e+57
          1800.99910	         6.80900e+57
          1801.80540	         6.91066e+57
          1802.61170	         7.40430e+57
          1803.41800	         8.76819e+57
          1804.22430	         7.47681e+57
          1805.03060	         5.61034e+57
          1805.83690	         6.70279e+57
          1806.64320	         7.17441e+57
          1807.44950	         7.62775e+57
          1808.25580	         7.45431e+57
          1809.06210	         8.69947e+57
          1809.86840	         7.58329e+57
          1810.67470	         7.11988e+57
          1811.48100	         8.17833e+57
          1812.28730	         7.67749e+57
          1813.09360	         7.38932e+57
          1813.89990	         7.25241e+57
          1814.70620	         6.99729e+57
          1815.51250	         8.77202e+57
          1816.31880	         8.90768e+57
          1817.12510	         7.22004e+57
          1817.93140	         7.19167e+57
          1818.73770	         8.07975e+57
          1819.54400	         8.55755e+57
          1820.35030	         7.91383e+57
          1821.15660	         6.45175e+57
          1821.96290	         5.36676e+57
          1822.76920	         6.62307e+57
          1823.57550	         7.35625e+57
          1824.38180	         7.31842e+57
          1825.18810	         7.17624e+57
          1825.99440	         8.71397e+57
          1826.80070	         7.59958e+57
          1827.60700	         7.16380e+57
          1828.41330	         6.43827e+57
          1829.21960	         6.52068e+57
          1830.02590	         7.65764e+57
          1830.83220	         7.82874e+57
          1831.63850	         7.14725e+57
          1832.44480	         7.31653e+57
          1833.25110	         8.20100e+57
          1834.05740	         7.87387e+57
          1834.86370	         7.49959e+57
          1835.67000	         6.99207e+57
          1836.47630	         7.06625e+57
          1837.28260	         8.32579e+57
          1838.08890	         8.34585e+57
          1838.89520	         7.52549e+57
          1839.70150	         7.02996e+57
          1840.50780	         7.82641e+57
          1841.31410	         6.81236e+57
          1842.12040	         5.67283e+57
          1842.92670	         7.53681e+57
          1843.73300	         7.81837e+57
          1844.53930	         6.46331e+57
          1845.34560	         6.71462e+57
          1846.15190	         7.89844e+57
          1846.95820	         8.17743e+57
          1847.76450	         6.99551e+57
          1848.57080	         6.75669e+57
          1849.37710	         7.07244e+57
          1850.18340	         7.55223e+57
          1850.98970	         7.92778e+57
          1851.79600	         7.24456e+57
          1852.60230	         6.71829e+57
          1853.40860	         7.40650e+57
          1854.21490	         5.68365e+57
          1855.02120	         5.37304e+57
          1855.82750	         4.29987e+57
          1856.63380	         6.06855e+57
          1857.44010	         7.48127e+57
          1858.24640	         6.58725e+57
          1859.05270	         7.08473e+57
          1859.85900	         5.50142e+57
          1860.66530	         5.26917e+57
          1861.47160	         6.34137e+57
          1862.27790	         6.92719e+57
          1863.08420	         7.56810e+57
          1863.89050	         7.83630e+57
          1864.69680	         7.30464e+57
          1865.50310	         7.01064e+57
          1866.30940	         6.79267e+57
          1867.11570	         6.98097e+57
          1867.92200	         7.39311e+57
          1868.72830	         8.05265e+57
          1869.53460	         6.99881e+57
          1870.34090	         6.88049e+57
          1871.14720	         7.54163e+57
          1871.95350	         6.54462e+57
          1872.75980	         6.43580e+57
          1873.56610	         6.43471e+57
          1874.37240	         5.55525e+57
          1875.17870	         6.13172e+57
          1875.98500	         7.67232e+57
          1876.79130	         7.33594e+57
          1877.59760	         6.84331e+57
          1878.40390	         6.61030e+57
          1879.21020	         5.98169e+57
          1880.01650	         7.24150e+57
          1880.82280	         8.72010e+57
          1881.62910	         9.45442e+57
          1882.43540	         9.91616e+57
          1883.24170	         8.23373e+57
          1884.04800	         6.62939e+57
          1884.85430	         6.09162e+57
          1885.66060	         7.70442e+57
          1886.46690	         8.04836e+57
          1887.27320	         7.56400e+57
          1888.07950	         6.12660e+57
          1888.88580	         6.84392e+57
          1889.69210	         8.19291e+57
          1890.49840	         8.15620e+57
          1891.30470	         6.88047e+57
          1892.11100	         7.39288e+57
          1892.91730	         7.57107e+57
          1893.72360	         6.72928e+57
          1894.52990	         5.92774e+57
          1895.33620	         6.87057e+57
          1896.14250	         7.41008e+57
          1896.94880	         6.00417e+57
          1897.75510	         4.57301e+57
          1898.56140	         6.44310e+57
          1899.36770	         7.30126e+57
          1900.17400	         6.47665e+57
          1900.98030	         5.92287e+57
          1901.78660	         6.87600e+57
          1902.59290	         7.90859e+57
          1903.39920	         9.05438e+57
          1904.20550	         8.77564e+57
          1905.01180	         8.46581e+57
          1905.81810	         9.64065e+57
          1906.62440	         1.21377e+58
          1907.43070	         1.43068e+58
          1908.23700	         1.53410e+58
          1909.04330	         1.28772e+58
          1909.84960	         1.04915e+58
          1910.65590	         9.85835e+57
          1911.46220	         9.75574e+57
          1912.26850	         7.89321e+57
          1913.07480	         5.64989e+57
          1913.88110	         5.18736e+57
          1914.68740	         5.72975e+57
          1915.49370	         5.52656e+57
          1916.30000	         5.93126e+57
          1917.10630	         6.54133e+57
          1917.91260	         5.33320e+57
          1918.71890	         5.27778e+57
          1919.52520	         5.96810e+57
          1920.33150	         6.05125e+57
          1921.13780	         6.92804e+57
          1921.94410	         8.00296e+57
          1922.75040	         7.32555e+57
          1923.55670	         7.91675e+57
          1924.36300	         7.94541e+57
          1925.16930	         5.66837e+57
          1925.97560	         5.28979e+57
          1926.78190	         4.35748e+57
          1927.58820	         5.92288e+57
          1928.39450	         6.05010e+57
          1929.20080	         5.79753e+57
          1930.00710	         6.93830e+57
          1930.81340	         7.39082e+57
          1931.61970	         6.80427e+57
          1932.42600	         7.03740e+57
          1933.23230	         7.38645e+57
          1934.03860	         6.38625e+57
          1934.84490	         5.36362e+57
          1935.65120	         7.90408e+57
          1936.45750	         8.02430e+57
          1937.26380	         6.89317e+57
          1938.07010	         7.61538e+57
          1938.87640	         6.91463e+57
          1939.68270	         6.80856e+57
          1940.48900	         7.06891e+57
          1941.29530	         7.79047e+57
          1942.10160	         7.15150e+57
          1942.90790	         6.39036e+57
          1943.71420	         6.41864e+57
          1944.52050	         5.77159e+57
          1945.32680	         4.93905e+57
          1946.13310	         6.41980e+57
          1946.93940	         8.46660e+57
          1947.74570	         6.41185e+57
          1948.55200	         5.79909e+57
          1949.35830	         6.52801e+57
          1950.16460	         5.44154e+57
          1950.97090	         5.36998e+57
          1951.77720	         7.03509e+57
          1952.58350	         7.65779e+57
          1953.38980	         7.08099e+57
          1954.19610	         4.63938e+57
          1955.00240	         5.28510e+57
          1955.80870	         6.00245e+57
          1956.61500	         5.78454e+57
          1957.42130	         5.90231e+57
          1958.22760	         6.26526e+57
          1959.03390	         6.72224e+57
          1959.84020	         7.11090e+57
          1960.64650	         6.22703e+57
          1961.45280	         6.92887e+57
          1962.25910	         6.14410e+57
          1963.06540	         5.81393e+57
          1963.87170	         7.36761e+57
          1964.67800	         6.15413e+57
          1965.48430	         6.62062e+57
          1966.29060	         6.71286e+57
          1967.09690	         6.43504e+57
          1967.90320	         5.75510e+57
          1968.70950	         6.51755e+57
          1969.51580	         6.06896e+57
          1970.32210	         6.03211e+57
          1971.12840	         6.71510e+57
          1971.93470	         4.74737e+57
          1972.74100	         4.72945e+57
          1973.54730	         6.70921e+57
          1974.35360	         7.40442e+57
          1975.15990	         7.62080e+57
          1975.96620	         7.23421e+57
          1976.77250	         8.09530e+57
          1977.57880	         7.20143e+57
          1978.38510	         6.51141e+57
          1979.19140	         6.27702e+57
          1979.99770	         7.39254e+57
          1980.80400	         7.26914e+57
          1981.61030	         6.89910e+57
          1982.41660	         6.41901e+57
          1983.22290	         6.25176e+57
          1984.02920	         5.88783e+57
          1984.83550	         5.83019e+57
          1985.64180	         6.29312e+57
          1986.44810	         6.18191e+57
          1987.25440	         6.37927e+57
          1988.06070	         5.38630e+57
          1988.86700	         6.02035e+57
          1989.67330	         7.46872e+57
          1990.47960	         7.19474e+57
          1991.28590	         6.87805e+57
          1992.09220	         5.36963e+57
          1992.89850	         4.64076e+57
          1993.70480	         5.04928e+57
          1994.51110	         4.03517e+57
          1995.31740	         4.64154e+57
          1996.12370	         4.52974e+57
          1996.93000	         5.63050e+57
          1997.73630	         7.61828e+57
          1998.54260	         8.31382e+57
          1999.34890	         7.15958e+57
          2000.15520	         6.07966e+57
          2000.96150	         6.14265e+57
          2001.76780	         6.02887e+57
          2002.57410	         4.68383e+57
          2003.38040	         5.11734e+57
          2004.18670	         6.95004e+57
          2004.99300	         6.13551e+57
          2005.79930	         6.57684e+57
          2006.60560	         6.39722e+57
          2007.41190	         6.48457e+57
          2008.21820	         6.50223e+57
          2009.02450	         7.16398e+57
          2009.83080	         6.64792e+57
          2010.63710	         6.35110e+57
          2011.44340	         6.46833e+57
          2012.24970	         7.47013e+57
          2013.05600	         7.27818e+57
          2013.86230	         5.83254e+57
          2014.66860	         5.27254e+57
          2015.47490	         5.59531e+57
          2016.28120	         5.97686e+57
          2017.08750	         6.20208e+57
          2017.89380	         6.34177e+57
          2018.70010	         5.93557e+57
          2019.50640	         6.01208e+57
          2020.31270	         7.03649e+57
          2021.11900	         7.04072e+57
          2021.92530	         5.81950e+57
          2022.73160	         6.41525e+57
          2023.53790	         7.03671e+57
          2024.34420	         6.26042e+57
          2025.15050	         4.85401e+57
          2025.95680	         5.06232e+57
          2026.76310	         6.52019e+57
          2027.56940	         6.58545e+57
          2028.37570	         5.82502e+57
          2029.18200	         6.20565e+57
          2029.98830	         6.45404e+57
          2030.79460	         6.55332e+57
          2031.60090	         6.21398e+57
          2032.40720	         6.09554e+57
          2033.21350	         6.11119e+57
          2034.01980	         4.33249e+57
          2034.82610	         3.33440e+57
          2035.63240	         4.31137e+57
          2036.43870	         5.80415e+57
          2037.24500	         5.86398e+57
          2038.05130	         6.06320e+57
          2038.85760	         5.90130e+57
          2039.66390	         5.96232e+57
          2040.47020	         5.02566e+57
          2041.27650	         4.98488e+57
          2042.08280	         5.70551e+57
          2042.88910	         5.83918e+57
          2043.69540	         6.08841e+57
          2044.50170	         6.23137e+57
          2045.30800	         4.51281e+57
          2046.11430	         4.69091e+57
          2046.92060	         5.59605e+57
          2047.72690	         6.03002e+57
          2048.53320	         5.19254e+57
          2049.33950	         4.38047e+57
          2050.14580	         5.18700e+57
          2050.95210	         5.90247e+57
          2051.75840	         7.32479e+57
          2052.56470	         5.23617e+57
          2053.37100	         3.87956e+57
          2054.17730	         4.38142e+57
          2054.98360	         4.53176e+57
          2055.78990	         4.31597e+57
          2056.59620	         3.74290e+57
          2057.40250	         5.76400e+57
          2058.20880	         6.50768e+57
          2059.01510	         7.97827e+57
          2059.82140	         6.89090e+57
          2060.62770	         8.92896e+57
          2061.43400	         1.59121e+58
          2062.24030	         1.08886e+58
          2063.04660	         5.07530e+57
          2063.85290	         1.85807e+57
          2064.65920	        -3.94291e+57
          2065.46550	        -1.06441e+58
          2066.27180	        -9.59252e+57
          2067.07810	         2.57541e+57
          2067.88440	         4.68129e+57
          2068.69070	         5.52792e+57
          2069.49700	         6.08033e+57
          2070.30330	         4.11443e+57
          2071.10960	         4.45507e+57
          2071.91590	         6.19620e+57
          2072.72220	         4.80000e+57
          2073.52850	         4.66132e+57
          2074.33480	         5.35267e+57
          2075.14110	         5.29116e+57
          2075.94740	         3.82752e+57
          2076.75370	         4.63154e+57
          2077.56000	         4.46324e+57
          2078.36630	         5.07499e+57
          2079.17260	         4.37674e+57
          2079.97890	         6.17092e+57
          2080.78520	         6.17608e+57
          2081.59150	         4.79995e+57
          2082.39780	         3.84933e+57
          2083.20410	         3.28282e+57
          2084.01040	         4.31530e+57
          2084.81670	         4.76100e+57
          2085.62300	         3.69876e+57
          2086.42930	         1.86106e+57
          2087.23560	         3.10125e+57
          2088.04190	         4.85468e+57
          2088.84820	         5.16246e+57
          2089.65450	         3.77245e+57
          2090.46080	         2.17580e+57
          2091.26710	         2.14964e+57
          2092.07340	         3.32537e+57
          2092.87970	         3.77572e+57
          2093.68600	        -9.18058e+56
          2094.49230	         1.06727e+57
          2095.29860	         4.79784e+57
          2096.10490	         6.62886e+56
          2096.91120	         1.51014e+56
          2097.71750	        -2.70496e+55
          2098.52380	         6.58516e+56
          2099.33010	         1.78747e+57
          2100.13640	         2.37238e+57
          2100.94270	         2.58043e+57
          2101.74900	         3.81161e+57
          2102.55530	         2.10885e+57
          2103.36160	         2.01160e+57
          2104.16790	         2.32118e+57
          2104.97420	         9.56426e+56
          2105.78050	         4.20342e+57
          2106.58680	         1.96531e+57
          2107.39310	        -2.51560e+57
          2108.19940	         4.37917e+56
          2109.00570	        -9.48426e+56
          2109.81200	         6.97409e+56
          2110.61830	         2.99684e+57
          2111.42460	         5.70232e+56
          2112.23090	         5.34952e+56
          2113.03720	         1.32821e+57
          2113.84350	         1.91576e+57
          2114.64980	         4.40293e+57
          2115.45610	        -1.68265e+56
          2116.26240	        -2.76341e+57
          2117.06870	        -1.30022e+57
          2117.87500	        -4.36682e+57
          2118.68130	         3.84825e+56
          2119.48760	         8.49282e+56
          2120.29390	        -1.15092e+57
          2121.10020	        -3.60484e+57
          2121.90650	        -6.02538e+57
          2122.71280	         4.04763e+57
          2123.51910	         6.12051e+57
          2124.32540	         2.32509e+57
          2125.13170	        -6.17106e+56
          2125.93800	         4.07775e+57
          2126.74430	        -2.90899e+57
          2127.55060	        -5.57661e+57
          2128.35690	         4.97472e+56
          2129.16320	        -9.93519e+56
          2129.96950	        -3.40207e+57
          2130.77580	        -2.95222e+57
          2131.58210	         1.93995e+57
          2132.38840	         1.71185e+57
          2133.19470	        -2.44050e+57
          2134.00100	         3.21128e+57
          2134.80730	        -3.47579e+57
          2135.61360	         6.48098e+57
          2136.41990	         3.53478e+56
          2137.22620	         9.15697e+57
          2138.03250	        -2.22853e+57
          2138.83880	        -5.88677e+57
          2139.64510	        -3.69917e+57
          2140.45140	        -2.28502e+57
          2141.25770	        -1.17125e+58
          2142.06400	        -3.72726e+56
          2142.87030	         4.43476e+57
          2143.67660	         1.43350e+57
          2144.48290	        -2.28209e+57
          2145.28920	         8.89463e+57
          2146.09550	        -9.35613e+57
          2146.90180	        -2.91578e+57
          2147.70810	        -1.45703e+57
          2148.51440	        -4.89284e+57
          2149.32070	        -1.29140e+58
          2150.12700	        -1.43362e+58
          2150.93330	        -3.81611e+57
          2151.73960	         6.73937e+57
          2152.54590	         2.02944e+57
          2153.35220	         3.64158e+56
          2154.15850	        -6.06947e+57
          2154.96480	         4.47104e+57
          2155.77110	         5.25069e+57
          2156.57740	        -9.61468e+57
          2157.38370	        -8.15951e+56
          2158.19000	         1.59839e+57
          2158.99630	         3.05690e+57
          2159.80260	        -5.43809e+57
          2160.60890	        -1.27293e+58
          2161.41520	        -4.68320e+57
          2162.22150	        -2.73731e+57
          2163.02780	        -4.80748e+57
          2163.83410	        -5.38818e+57
          2164.64040	        -4.38062e+57
          2165.44670	        -1.08099e+58
          2166.25300	        -1.08619e+58
          2167.05930	        -1.03186e+58
          2167.86560	        -5.98739e+57
          2168.67190	        -7.68057e+57
          2169.47820	        -5.63907e+57
          2170.28450	        -2.79544e+57
          2171.09080	         8.45827e+57
          2171.89710	         9.90033e+55
          2172.70340	         1.82169e+57
          2173.50970	        -7.95569e+57
          2174.31600	        -6.37641e+57
          2175.12230	        -1.25771e+57
          2175.92860	        -3.80441e+57
          2176.73490	        -1.02427e+58
          2177.54120	        -6.86432e+57
          2178.34750	        -4.57930e+57
          2179.15380	                 nan
          2179.96010	                 nan
          2180.76640	                 nan
          2181.57270	                 nan
          2182.37900	                 nan
          2183.18530	                 nan
          2183.99160	                 nan
          2184.79790	                 nan
          2185.60420	                 nan
          2186.41050	                 nan
          2187.21680	                 nan
          2188.02310	                 nan
          2188.82940	                 nan
          2189.63570	                 nan
          2190.44200	                 nan
          2191.24830	                 nan
          2192.05460	                 nan
          2192.86090	                 nan
          2193.66720	                 nan
          2194.47350	                 nan
          2195.27980	                 nan
          2196.08610	                 nan
          2196.89240	                 nan
          2197.69870	                 nan
          2198.50500	                 nan
          2199.31130	                 nan
          2200.11760	                 nan
          2200.92390	                 nan
          2201.73020	                 nan
          2202.53650	                 nan
          2203.34280	                 nan
          2204.14910	                 nan
          2204.95540	                 nan
          2205.76170	                 nan
          2206.56800	                 nan
          2207.37430	                 nan
          2208.18060	                 nan
          2208.98690	                 nan
          2209.79320	                 nan
          2210.59950	                 nan
          2211.40580	                 nan
          2212.21210	                 nan
          2213.01840	                 nan
          2213.82470	                 nan
          2214.63100	                 nan
          2215.43730	         0.00000e+00
