#sample_366_stacked_spectrum_rest_UV-bands_median_H-alpha_noDC.txt
#median Lum: 1.67380e+42
#Rest-frame wavelength (A) | Luminosity (erg/s/A)
#
          1110.00000	         0.00000e+00
          1110.80630	         4.46252e+59
          1111.61260	         4.36688e+59
          1112.41890	         1.24594e+59
          1113.22520	         3.65956e+58
          1114.03150	        -1.91977e+58
          1114.83780	         1.36301e+57
          1115.64410	         5.76331e+58
          1116.45040	         2.61280e+59
          1117.25670	         1.28878e+59
          1118.06300	         1.89825e+59
          1118.86930	         7.38442e+58
          1119.67560	         1.41725e+59
          1120.48190	        -1.06082e+57
          1121.28820	        -1.19078e+59
          1122.09450	        -1.88080e+58
          1122.90080	         2.14092e+58
          1123.70710	         1.12903e+59
          1124.51340	         5.82036e+58
          1125.31970	        -2.79184e+58
          1126.12600	         1.52669e+58
          1126.93230	        -1.26633e+58
          1127.73860	        -5.58675e+58
          1128.54490	        -2.67806e+58
          1129.35120	         4.93702e+58
          1130.15750	         4.08559e+57
          1130.96380	        -9.73032e+57
          1131.77010	         5.17520e+58
          1132.57640	         5.86551e+58
          1133.38270	         2.94700e+58
          1134.18900	         3.77058e+58
          1134.99530	         3.12772e+58
          1135.80160	         4.17217e+58
          1136.60790	         1.07350e+58
          1137.41420	        -9.02713e+57
          1138.22050	         5.44603e+58
          1139.02680	         2.57356e+58
          1139.83310	         8.94158e+57
          1140.63940	         2.96971e+58
          1141.44570	         5.30024e+57
          1142.25200	        -1.85760e+56
          1143.05830	         8.12780e+57
          1143.86460	         1.66990e+58
          1144.67090	         2.63271e+58
          1145.47720	         1.44055e+58
          1146.28350	         1.42638e+58
          1147.08980	         5.39057e+57
          1147.89610	         1.31385e+58
          1148.70240	         1.45231e+58
          1149.50870	         1.98343e+58
          1150.31500	         9.96649e+57
          1151.12130	         1.53915e+58
          1151.92760	         1.07294e+58
          1152.73390	         9.85822e+57
          1153.54020	         1.11866e+58
          1154.34650	         1.27594e+58
          1155.15280	         1.30781e+58
          1155.95910	         1.02740e+58
          1156.76540	         2.50224e+58
          1157.57170	         8.20389e+57
          1158.37800	        -5.66750e+56
          1159.18430	        -6.53637e+57
          1159.99060	         1.18472e+58
          1160.79690	         1.26709e+58
          1161.60320	         1.64205e+58
          1162.40950	         1.62130e+58
          1163.21580	         1.57551e+58
          1164.02210	         1.02805e+58
          1164.82840	         1.28738e+58
          1165.63470	         1.88368e+58
          1166.44100	         2.88471e+58
          1167.24730	         1.71289e+58
          1168.05360	         1.08268e+58
          1168.85990	         6.34404e+57
          1169.66620	         9.78097e+57
          1170.47250	         1.78413e+58
          1171.27880	         1.47194e+58
          1172.08510	         1.17120e+58
          1172.89140	         1.32010e+58
          1173.69770	         5.29931e+57
          1174.50400	         1.08160e+58
          1175.31030	         1.59433e+58
          1176.11660	         1.76628e+58
          1176.92290	         1.50624e+58
          1177.72920	         8.79065e+57
          1178.53550	         6.82368e+57
          1179.34180	         2.81109e+57
          1180.14810	         5.24762e+57
          1180.95440	         6.60672e+57
          1181.76070	         5.43697e+57
          1182.56700	         6.13705e+57
          1183.37330	         7.57671e+57
          1184.17960	         1.18866e+58
          1184.98590	         1.21961e+58
          1185.79220	         6.77585e+57
          1186.59850	         1.24449e+58
          1187.40480	         9.92458e+57
          1188.21110	         1.42205e+58
          1189.01740	         8.80936e+57
          1189.82370	         9.03582e+57
          1190.63000	         1.24151e+58
          1191.43630	         1.48099e+58
          1192.24260	         9.35974e+57
          1193.04890	         1.11307e+58
          1193.85520	         1.09143e+58
          1194.66150	         9.24119e+57
          1195.46780	         1.29637e+58
          1196.27410	         1.10265e+58
          1197.08040	         4.96255e+57
          1197.88670	         1.59011e+58
          1198.69300	         1.58273e+58
          1199.49930	         1.54178e+58
          1200.30560	         1.21830e+58
          1201.11190	         1.13559e+58
          1201.91820	         9.38448e+57
          1202.72450	         7.68803e+57
          1203.53080	         1.56923e+58
          1204.33710	         1.12533e+58
          1205.14340	         7.35963e+57
          1205.94970	         7.23331e+57
          1206.75600	         5.32911e+57
          1207.56230	         6.05444e+57
          1208.36860	         9.15918e+57
          1209.17490	         4.80839e+57
          1209.98120	         5.66652e+57
          1210.78750	         1.38247e+58
          1211.59380	         1.36539e+58
          1212.40010	         1.84152e+58
          1213.20640	         1.95960e+58
          1214.01270	         1.96017e+58
          1214.81900	         2.63051e+58
          1215.62530	         4.62140e+58
          1216.43160	         9.13556e+58
          1217.23790	         1.53195e+59
          1218.04420	         1.17094e+59
          1218.85050	         8.95938e+58
          1219.65680	         5.86269e+58
          1220.46310	         3.56290e+58
          1221.26940	         2.34841e+58
          1222.07570	         1.45490e+58
          1222.88200	         1.09946e+58
          1223.68830	         1.06008e+58
          1224.49460	         1.04836e+58
          1225.30090	         7.24270e+57
          1226.10720	         5.31108e+57
          1226.91350	         7.16567e+57
          1227.71980	         7.58837e+57
          1228.52610	         1.30331e+58
          1229.33240	         1.41988e+58
          1230.13870	         1.18570e+58
          1230.94500	         7.19045e+57
          1231.75130	         6.12520e+57
          1232.55760	         9.40150e+57
          1233.36390	         8.71253e+57
          1234.17020	         8.76769e+57
          1234.97650	         7.92832e+57
          1235.78280	         1.00396e+58
          1236.58910	         9.64889e+57
          1237.39540	         1.08489e+58
          1238.20170	         1.09956e+58
          1239.00800	         1.34826e+58
          1239.81430	         1.44989e+58
          1240.62060	         1.06644e+58
          1241.42690	         1.23834e+58
          1242.23320	         1.43861e+58
          1243.03950	         8.95882e+57
          1243.84580	         8.85192e+57
          1244.65210	         1.09841e+58
          1245.45840	         1.06221e+58
          1246.26470	         1.08854e+58
          1247.07100	         1.13610e+58
          1247.87730	         7.28507e+57
          1248.68360	         6.22501e+57
          1249.48990	         1.06433e+58
          1250.29620	         1.04252e+58
          1251.10250	         7.25730e+57
          1251.90880	         5.53251e+57
          1252.71510	         4.48587e+57
          1253.52140	         4.08458e+57
          1254.32770	         7.08357e+57
          1255.13400	         1.21240e+58
          1255.94030	         1.36445e+58
          1256.74660	         1.10410e+58
          1257.55290	         1.11642e+58
          1258.35920	         9.34050e+57
          1259.16550	         6.21813e+57
          1259.97180	         5.16894e+57
          1260.77810	         1.05410e+58
          1261.58440	         1.14331e+58
          1262.39070	         6.61658e+57
          1263.19700	         8.62091e+57
          1264.00330	         1.05211e+58
          1264.80960	         1.09315e+58
          1265.61590	         1.14176e+58
          1266.42220	         1.08652e+58
          1267.22850	         1.16079e+58
          1268.03480	         1.47496e+58
          1268.84110	         1.41396e+58
          1269.64740	         1.28116e+58
          1270.45370	         1.36791e+58
          1271.26000	         1.13465e+58
          1272.06630	         1.18488e+58
          1272.87260	         1.22242e+58
          1273.67890	         1.14035e+58
          1274.48520	         1.25193e+58
          1275.29150	         1.46125e+58
          1276.09780	         1.26357e+58
          1276.90410	         1.35568e+58
          1277.71040	         1.25658e+58
          1278.51670	         1.03527e+58
          1279.32300	         1.29521e+58
          1280.12930	         1.23849e+58
          1280.93560	         1.19893e+58
          1281.74190	         1.12473e+58
          1282.54820	         1.28798e+58
          1283.35450	         1.13945e+58
          1284.16080	         1.23465e+58
          1284.96710	         1.50113e+58
          1285.77340	         1.07117e+58
          1286.57970	         9.22828e+57
          1287.38600	         1.26876e+58
          1288.19230	         1.82478e+58
          1288.99860	         1.58693e+58
          1289.80490	         1.08693e+58
          1290.61120	         1.44426e+58
          1291.41750	         1.59218e+58
          1292.22380	         1.11373e+58
          1293.03010	         9.21177e+57
          1293.83640	         1.09471e+58
          1294.64270	         9.93380e+57
          1295.44900	         6.20060e+57
          1296.25530	         8.79168e+57
          1297.06160	         1.04757e+58
          1297.86790	         9.53498e+57
          1298.67420	         9.80064e+57
          1299.48050	         1.02172e+58
          1300.28680	         1.00346e+58
          1301.09310	         6.93057e+57
          1301.89940	         4.07502e+57
          1302.70570	         6.51699e+57
          1303.51200	         7.26455e+57
          1304.31830	         9.08195e+57
          1305.12460	         1.06314e+58
          1305.93090	         1.19919e+58
          1306.73720	         1.14726e+58
          1307.54350	         1.32994e+58
          1308.34980	         1.49190e+58
          1309.15610	         1.49424e+58
          1309.96240	         1.63528e+58
          1310.76870	         1.50241e+58
          1311.57500	         1.18247e+58
          1312.38130	         1.14594e+58
          1313.18760	         1.32820e+58
          1313.99390	         1.50942e+58
          1314.80020	         1.61564e+58
          1315.60650	         1.47382e+58
          1316.41280	         1.16404e+58
          1317.21910	         1.12598e+58
          1318.02540	         1.16418e+58
          1318.83170	         1.17574e+58
          1319.63800	         1.17479e+58
          1320.44430	         1.08676e+58
          1321.25060	         1.07375e+58
          1322.05690	         1.10416e+58
          1322.86320	         1.21428e+58
          1323.66950	         1.10559e+58
          1324.47580	         8.58885e+57
          1325.28210	         9.14392e+57
          1326.08840	         1.09795e+58
          1326.89470	         1.27365e+58
          1327.70100	         1.11423e+58
          1328.50730	         8.83120e+57
          1329.31360	         1.07076e+58
          1330.11990	         1.02451e+58
          1330.92620	         9.48642e+57
          1331.73250	         1.21581e+58
          1332.53880	         1.08770e+58
          1333.34510	         8.79400e+57
          1334.15140	         9.78962e+57
          1334.95770	         9.60500e+57
          1335.76400	         1.12864e+58
          1336.57030	         1.09690e+58
          1337.37660	         9.63920e+57
          1338.18290	         9.31945e+57
          1338.98920	         9.40090e+57
          1339.79550	         1.06684e+58
          1340.60180	         1.08873e+58
          1341.40810	         1.22538e+58
          1342.21440	         1.09199e+58
          1343.02070	         9.41077e+57
          1343.82700	         1.14503e+58
          1344.63330	         1.20763e+58
          1345.43960	         1.23820e+58
          1346.24590	         1.17960e+58
          1347.05220	         1.22853e+58
          1347.85850	         1.19179e+58
          1348.66480	         1.19736e+58
          1349.47110	         1.18646e+58
          1350.27740	         1.22933e+58
          1351.08370	         1.11707e+58
          1351.89000	         1.22440e+58
          1352.69630	         1.24734e+58
          1353.50260	         1.03623e+58
          1354.30890	         1.08974e+58
          1355.11520	         1.28152e+58
          1355.92150	         1.17835e+58
          1356.72780	         1.03344e+58
          1357.53410	         9.24883e+57
          1358.34040	         1.17479e+58
          1359.14670	         1.28527e+58
          1359.95300	         1.11054e+58
          1360.75930	         1.13594e+58
          1361.56560	         1.17761e+58
          1362.37190	         1.16937e+58
          1363.17820	         1.15828e+58
          1363.98450	         1.17210e+58
          1364.79080	         1.18099e+58
          1365.59710	         1.26178e+58
          1366.40340	         1.14915e+58
          1367.20970	         1.16126e+58
          1368.01600	         1.03211e+58
          1368.82230	         1.04848e+58
          1369.62860	         1.24504e+58
          1370.43490	         9.17614e+57
          1371.24120	         9.71142e+57
          1372.04750	         8.36175e+57
          1372.85380	         9.55046e+57
          1373.66010	         1.05778e+58
          1374.46640	         1.08658e+58
          1375.27270	         1.18806e+58
          1376.07900	         1.01800e+58
          1376.88530	         9.49375e+57
          1377.69160	         9.05784e+57
          1378.49790	         8.13729e+57
          1379.30420	         7.28227e+57
          1380.11050	         9.08882e+57
          1380.91680	         9.23046e+57
          1381.72310	         8.08475e+57
          1382.52940	         8.43449e+57
          1383.33570	         9.91249e+57
          1384.14200	         1.05713e+58
          1384.94830	         1.09602e+58
          1385.75460	         1.14936e+58
          1386.56090	         1.25415e+58
          1387.36720	         1.20729e+58
          1388.17350	         1.19498e+58
          1388.97980	         1.05659e+58
          1389.78610	         8.68050e+57
          1390.59240	         7.56807e+57
          1391.39870	         7.19576e+57
          1392.20500	         8.57464e+57
          1393.01130	         7.38348e+57
          1393.81760	         7.41681e+57
          1394.62390	         7.55067e+57
          1395.43020	         5.99435e+57
          1396.23650	         6.34247e+57
          1397.04280	         7.54876e+57
          1397.84910	         8.17974e+57
          1398.65540	         7.95127e+57
          1399.46170	         8.83151e+57
          1400.26800	         8.94466e+57
          1401.07430	         7.26705e+57
          1401.88060	         7.99263e+57
          1402.68690	         9.33931e+57
          1403.49320	         9.97167e+57
          1404.29950	         9.49933e+57
          1405.10580	         9.61540e+57
          1405.91210	         1.08734e+58
          1406.71840	         1.05545e+58
          1407.52470	         1.13694e+58
          1408.33100	         1.06010e+58
          1409.13730	         1.03159e+58
          1409.94360	         1.15267e+58
          1410.74990	         1.06297e+58
          1411.55620	         9.45062e+57
          1412.36250	         9.14071e+57
          1413.16880	         8.40023e+57
          1413.97510	         7.54749e+57
          1414.78140	         7.71710e+57
          1415.58770	         1.01578e+58
          1416.39400	         1.11553e+58
          1417.20030	         1.08327e+58
          1418.00660	         9.56841e+57
          1418.81290	         9.99421e+57
          1419.61920	         1.19057e+58
          1420.42550	         1.23503e+58
          1421.23180	         1.31144e+58
          1422.03810	         1.25227e+58
          1422.84440	         1.21068e+58
          1423.65070	         1.29963e+58
          1424.45700	         1.19982e+58
          1425.26330	         9.86717e+57
          1426.06960	         8.51344e+57
          1426.87590	         8.95374e+57
          1427.68220	         1.01508e+58
          1428.48850	         1.07383e+58
          1429.29480	         1.12744e+58
          1430.10110	         1.16409e+58
          1430.90740	         1.00428e+58
          1431.71370	         8.94223e+57
          1432.52000	         8.54836e+57
          1433.32630	         8.11073e+57
          1434.13260	         8.24460e+57
          1434.93890	         8.58950e+57
          1435.74520	         8.39244e+57
          1436.55150	         9.09192e+57
          1437.35780	         9.01203e+57
          1438.16410	         9.89562e+57
          1438.97040	         9.76805e+57
          1439.77670	         9.05700e+57
          1440.58300	         9.31257e+57
          1441.38930	         9.31259e+57
          1442.19560	         9.60214e+57
          1443.00190	         1.03165e+58
          1443.80820	         1.12496e+58
          1444.61450	         9.95935e+57
          1445.42080	         9.38892e+57
          1446.22710	         1.11445e+58
          1447.03340	         9.94979e+57
          1447.83970	         1.06123e+58
          1448.64600	         1.07641e+58
          1449.45230	         1.01745e+58
          1450.25860	         9.02812e+57
          1451.06490	         8.78461e+57
          1451.87120	         7.40635e+57
          1452.67750	         7.51034e+57
          1453.48380	         8.88624e+57
          1454.29010	         7.72490e+57
          1455.09640	         7.57217e+57
          1455.90270	         9.32850e+57
          1456.70900	         8.98117e+57
          1457.51530	         9.05627e+57
          1458.32160	         1.21202e+58
          1459.12790	         1.12938e+58
          1459.93420	         1.00333e+58
          1460.74050	         9.27866e+57
          1461.54680	         8.84674e+57
          1462.35310	         8.27307e+57
          1463.15940	         9.92029e+57
          1463.96570	         1.06503e+58
          1464.77200	         1.04741e+58
          1465.57830	         9.70737e+57
          1466.38460	         9.12559e+57
          1467.19090	         9.31415e+57
          1467.99720	         9.89173e+57
          1468.80350	         1.09111e+58
          1469.60980	         1.06006e+58
          1470.41610	         1.06380e+58
          1471.22240	         9.41575e+57
          1472.02870	         9.73975e+57
          1472.83500	         1.01493e+58
          1473.64130	         9.58703e+57
          1474.44760	         1.03362e+58
          1475.25390	         9.94844e+57
          1476.06020	         9.71648e+57
          1476.86650	         8.65009e+57
          1477.67280	         8.26574e+57
          1478.47910	         7.67022e+57
          1479.28540	         7.50251e+57
          1480.09170	         8.79713e+57
          1480.89800	         8.84588e+57
          1481.70430	         8.38309e+57
          1482.51060	         9.00542e+57
          1483.31690	         8.39031e+57
          1484.12320	         8.07858e+57
          1484.92950	         7.43522e+57
          1485.73580	         8.25024e+57
          1486.54210	         8.51422e+57
          1487.34840	         9.81881e+57
          1488.15470	         8.41090e+57
          1488.96100	         7.83867e+57
          1489.76730	         9.21144e+57
          1490.57360	         8.30398e+57
          1491.37990	         7.67481e+57
          1492.18620	         8.28162e+57
          1492.99250	         8.70791e+57
          1493.79880	         9.25103e+57
          1494.60510	         7.75231e+57
          1495.41140	         6.45589e+57
          1496.21770	         8.01943e+57
          1497.02400	         1.00412e+58
          1497.83030	         8.77079e+57
          1498.63660	         7.57955e+57
          1499.44290	         7.44626e+57
          1500.24920	         7.89032e+57
          1501.05550	         8.83600e+57
          1501.86180	         8.36865e+57
          1502.66810	         8.72101e+57
          1503.47440	         9.23961e+57
          1504.28070	         8.23678e+57
          1505.08700	         9.73015e+57
          1505.89330	         9.80729e+57
          1506.69960	         8.49229e+57
          1507.50590	         8.20510e+57
          1508.31220	         7.33730e+57
          1509.11850	         7.90089e+57
          1509.92480	         9.79397e+57
          1510.73110	         9.78810e+57
          1511.53740	         7.60807e+57
          1512.34370	         7.36266e+57
          1513.15000	         9.55770e+57
          1513.95630	         9.88887e+57
          1514.76260	         9.35333e+57
          1515.56890	         8.12815e+57
          1516.37520	         8.23262e+57
          1517.18150	         8.70849e+57
          1517.98780	         7.70951e+57
          1518.79410	         7.16851e+57
          1519.60040	         8.49734e+57
          1520.40670	         9.14564e+57
          1521.21300	         8.96037e+57
          1522.01930	         8.30751e+57
          1522.82560	         8.24069e+57
          1523.63190	         9.79336e+57
          1524.43820	         8.85431e+57
          1525.24450	         7.49981e+57
          1526.05080	         7.66912e+57
          1526.85710	         6.88580e+57
          1527.66340	         7.16914e+57
          1528.46970	         8.35929e+57
          1529.27600	         8.05735e+57
          1530.08230	         7.29226e+57
          1530.88860	         7.68980e+57
          1531.69490	         8.00313e+57
          1532.50120	         9.03089e+57
          1533.30750	         9.61386e+57
          1534.11380	         9.47645e+57
          1534.92010	         9.63230e+57
          1535.72640	         9.19627e+57
          1536.53270	         8.59142e+57
          1537.33900	         8.73614e+57
          1538.14530	         9.58764e+57
          1538.95160	         9.31551e+57
          1539.75790	         8.79345e+57
          1540.56420	         9.26593e+57
          1541.37050	         9.46556e+57
          1542.17680	         8.34191e+57
          1542.98310	         8.37474e+57
          1543.78940	         8.70367e+57
          1544.59570	         7.57864e+57
          1545.40200	         7.68820e+57
          1546.20830	         9.67140e+57
          1547.01460	         1.08046e+58
          1547.82090	         1.08185e+58
          1548.62720	         1.12479e+58
          1549.43350	         1.20306e+58
          1550.23980	         1.06166e+58
          1551.04610	         1.13127e+58
          1551.85240	         1.16888e+58
          1552.65870	         1.10803e+58
          1553.46500	         1.09288e+58
          1554.27130	         9.88930e+57
          1555.07760	         8.64871e+57
          1555.88390	         9.03105e+57
          1556.69020	         9.55136e+57
          1557.49650	         9.61739e+57
          1558.30280	         8.81317e+57
          1559.10910	         8.64314e+57
          1559.91540	         8.62621e+57
          1560.72170	         8.66157e+57
          1561.52800	         8.83466e+57
          1562.33430	         8.41149e+57
          1563.14060	         8.65339e+57
          1563.94690	         8.70612e+57
          1564.75320	         8.40612e+57
          1565.55950	         6.75869e+57
          1566.36580	         6.61109e+57
          1567.17210	         8.59947e+57
          1567.97840	         9.44785e+57
          1568.78470	         9.29048e+57
          1569.59100	         8.92152e+57
          1570.39730	         7.70114e+57
          1571.20360	         7.42699e+57
          1572.00990	         7.38698e+57
          1572.81620	         8.26665e+57
          1573.62250	         1.05284e+58
          1574.42880	         9.24153e+57
          1575.23510	         7.66803e+57
          1576.04140	         8.03396e+57
          1576.84770	         8.33769e+57
          1577.65400	         8.35868e+57
          1578.46030	         9.66027e+57
          1579.26660	         1.09892e+58
          1580.07290	         9.32449e+57
          1580.87920	         7.58659e+57
          1581.68550	         7.64941e+57
          1582.49180	         8.33613e+57
          1583.29810	         8.08349e+57
          1584.10440	         8.43584e+57
          1584.91070	         9.13886e+57
          1585.71700	         8.68936e+57
          1586.52330	         9.37576e+57
          1587.32960	         9.34987e+57
          1588.13590	         8.54070e+57
          1588.94220	         7.50392e+57
          1589.74850	         8.13968e+57
          1590.55480	         9.63656e+57
          1591.36110	         8.42275e+57
          1592.16740	         7.69673e+57
          1592.97370	         7.70521e+57
          1593.78000	         8.59782e+57
          1594.58630	         9.15144e+57
          1595.39260	         8.14679e+57
          1596.19890	         8.81650e+57
          1597.00520	         9.62823e+57
          1597.81150	         9.59042e+57
          1598.61780	         7.07873e+57
          1599.42410	         6.55974e+57
          1600.23040	         7.64917e+57
          1601.03670	         7.10438e+57
          1601.84300	         6.20167e+57
          1602.64930	         7.06344e+57
          1603.45560	         8.50064e+57
          1604.26190	         8.40535e+57
          1605.06820	         7.88329e+57
          1605.87450	         7.05020e+57
          1606.68080	         6.59318e+57
          1607.48710	         5.85164e+57
          1608.29340	         5.96078e+57
          1609.09970	         7.26935e+57
          1609.90600	         7.17339e+57
          1610.71230	         6.54248e+57
          1611.51860	         6.72576e+57
          1612.32490	         6.31852e+57
          1613.13120	         7.26100e+57
          1613.93750	         7.81723e+57
          1614.74380	         8.96492e+57
          1615.55010	         8.88312e+57
          1616.35640	         8.75018e+57
          1617.16270	         9.72642e+57
          1617.96900	         1.06357e+58
          1618.77530	         8.65458e+57
          1619.58160	         7.84209e+57
          1620.38790	         8.43747e+57
          1621.19420	         9.45084e+57
          1622.00050	         8.59347e+57
          1622.80680	         8.71576e+57
          1623.61310	         8.63569e+57
          1624.41940	         7.74593e+57
          1625.22570	         9.29250e+57
          1626.03200	         8.87995e+57
          1626.83830	         8.22784e+57
          1627.64460	         7.34617e+57
          1628.45090	         6.15812e+57
          1629.25720	         8.69480e+57
          1630.06350	         9.79335e+57
          1630.86980	         6.69661e+57
          1631.67610	         8.01064e+57
          1632.48240	         8.22268e+57
          1633.28870	         7.51767e+57
          1634.09500	         9.80561e+57
          1634.90130	         1.05183e+58
          1635.70760	         8.84344e+57
          1636.51390	         8.07941e+57
          1637.32020	         7.06531e+57
          1638.12650	         8.11761e+57
          1638.93280	         9.15840e+57
          1639.73910	         9.74210e+57
          1640.54540	         9.52672e+57
          1641.35170	         8.67778e+57
          1642.15800	         9.39383e+57
          1642.96430	         8.43038e+57
          1643.77060	         8.48691e+57
          1644.57690	         8.11642e+57
          1645.38320	         8.30842e+57
          1646.18950	         7.30802e+57
          1646.99580	         8.11277e+57
          1647.80210	         7.95544e+57
          1648.60840	         7.70912e+57
          1649.41470	         9.12957e+57
          1650.22100	         7.26714e+57
          1651.02730	         6.63938e+57
          1651.83360	         8.03088e+57
          1652.63990	         8.84351e+57
          1653.44620	         9.48644e+57
          1654.25250	         8.87216e+57
          1655.05880	         7.67709e+57
          1655.86510	         7.24901e+57
          1656.67140	         7.92349e+57
          1657.47770	         8.05107e+57
          1658.28400	         7.85795e+57
          1659.09030	         9.13498e+57
          1659.89660	         9.72146e+57
          1660.70290	         1.07067e+58
          1661.50920	         1.03654e+58
          1662.31550	         8.82766e+57
          1663.12180	         8.34496e+57
          1663.92810	         9.65172e+57
          1664.73440	         1.01795e+58
          1665.54070	         1.17062e+58
          1666.34700	         1.22704e+58
          1667.15330	         1.09514e+58
          1667.95960	         8.88483e+57
          1668.76590	         7.70310e+57
          1669.57220	         7.88465e+57
          1670.37850	         7.97205e+57
          1671.18480	         7.82403e+57
          1671.99110	         7.86286e+57
          1672.79740	         6.97769e+57
          1673.60370	         7.09021e+57
          1674.41000	         7.06214e+57
          1675.21630	         7.77176e+57
          1676.02260	         8.23677e+57
          1676.82890	         6.93855e+57
          1677.63520	         6.91430e+57
          1678.44150	         6.60736e+57
          1679.24780	         8.08053e+57
          1680.05410	         7.62702e+57
          1680.86040	         5.54163e+57
          1681.66670	         6.18781e+57
          1682.47300	         6.64458e+57
          1683.27930	         7.64220e+57
          1684.08560	         9.32053e+57
          1684.89190	         8.27158e+57
          1685.69820	         5.94180e+57
          1686.50450	         5.03350e+57
          1687.31080	         6.17631e+57
          1688.11710	         6.98367e+57
          1688.92340	         6.45879e+57
          1689.72970	         6.81262e+57
          1690.53600	         6.28194e+57
          1691.34230	         6.30504e+57
          1692.14860	         6.97092e+57
          1692.95490	         8.13132e+57
          1693.76120	         7.70045e+57
          1694.56750	         5.54515e+57
          1695.37380	         8.56735e+57
          1696.18010	         8.96032e+57
          1696.98640	         7.44322e+57
          1697.79270	         7.17603e+57
          1698.59900	         8.17637e+57
          1699.40530	         7.34512e+57
          1700.21160	         7.39365e+57
          1701.01790	         7.35609e+57
          1701.82420	         6.89396e+57
          1702.63050	         7.77184e+57
          1703.43680	         7.67105e+57
          1704.24310	         8.69359e+57
          1705.04940	         8.59247e+57
          1705.85570	         8.28483e+57
          1706.66200	         9.44588e+57
          1707.46830	         9.10734e+57
          1708.27460	         7.81187e+57
          1709.08090	         7.17839e+57
          1709.88720	         7.45852e+57
          1710.69350	         6.43198e+57
          1711.49980	         6.86317e+57
          1712.30610	         6.68473e+57
          1713.11240	         7.40192e+57
          1713.91870	         7.42648e+57
          1714.72500	         8.10279e+57
          1715.53130	         9.21830e+57
          1716.33760	         7.92974e+57
          1717.14390	         7.28527e+57
          1717.95020	         8.49419e+57
          1718.75650	         8.57668e+57
          1719.56280	         8.26376e+57
          1720.36910	         7.38839e+57
          1721.17540	         8.21771e+57
          1721.98170	         7.21497e+57
          1722.78800	         5.63797e+57
          1723.59430	         6.03148e+57
          1724.40060	         7.90486e+57
          1725.20690	         8.46592e+57
          1726.01320	         7.20447e+57
          1726.81950	         7.32225e+57
          1727.62580	         7.53529e+57
          1728.43210	         6.77477e+57
          1729.23840	         7.56077e+57
          1730.04470	         8.43104e+57
          1730.85100	         8.38720e+57
          1731.65730	         8.28783e+57
          1732.46360	         8.36215e+57
          1733.26990	         7.22284e+57
          1734.07620	         6.94438e+57
          1734.88250	         7.18604e+57
          1735.68880	         8.44784e+57
          1736.49510	         8.77728e+57
          1737.30140	         8.39110e+57
          1738.10770	         7.30099e+57
          1738.91400	         7.17984e+57
          1739.72030	         6.81707e+57
          1740.52660	         5.96472e+57
          1741.33290	         6.09092e+57
          1742.13920	         6.48350e+57
          1742.94550	         8.00894e+57
          1743.75180	         7.78945e+57
          1744.55810	         7.49741e+57
          1745.36440	         7.66795e+57
          1746.17070	         5.73215e+57
          1746.97700	         5.27896e+57
          1747.78330	         6.67543e+57
          1748.58960	         6.61499e+57
          1749.39590	         6.52631e+57
          1750.20220	         5.36520e+57
          1751.00850	         5.14104e+57
          1751.81480	         6.68149e+57
          1752.62110	         7.70085e+57
          1753.42740	         7.72223e+57
          1754.23370	         6.15298e+57
          1755.04000	         6.71246e+57
          1755.84630	         7.20754e+57
          1756.65260	         8.66022e+57
          1757.45890	         8.25477e+57
          1758.26520	         6.74138e+57
          1759.07150	         8.42898e+57
          1759.87780	         8.00414e+57
          1760.68410	         8.02733e+57
          1761.49040	         7.49478e+57
          1762.29670	         5.96825e+57
          1763.10300	         6.82871e+57
          1763.90930	         6.68250e+57
          1764.71560	         7.76513e+57
          1765.52190	         8.79414e+57
          1766.32820	         8.50612e+57
          1767.13450	         8.07427e+57
          1767.94080	         6.61837e+57
          1768.74710	         6.10882e+57
          1769.55340	         6.90651e+57
          1770.35970	         6.08359e+57
          1771.16600	         7.07500e+57
          1771.97230	         8.65642e+57
          1772.77860	         8.41254e+57
          1773.58490	         7.25872e+57
          1774.39120	         6.41150e+57
          1775.19750	         6.44574e+57
          1776.00380	         6.00935e+57
          1776.81010	         6.60621e+57
          1777.61640	         6.74659e+57
          1778.42270	         7.51555e+57
          1779.22900	         7.18964e+57
          1780.03530	         5.77529e+57
          1780.84160	         6.16111e+57
          1781.64790	         8.68557e+57
          1782.45420	         7.57055e+57
          1783.26050	         7.26955e+57
          1784.06680	         6.56273e+57
          1784.87310	         6.31892e+57
          1785.67940	         8.28603e+57
          1786.48570	         8.05772e+57
          1787.29200	         6.33067e+57
          1788.09830	         5.96444e+57
          1788.90460	         5.54856e+57
          1789.71090	         4.97222e+57
          1790.51720	         5.57373e+57
          1791.32350	         7.72995e+57
          1792.12980	         9.11019e+57
          1792.93610	         8.21364e+57
          1793.74240	         6.89661e+57
          1794.54870	         6.76002e+57
          1795.35500	         7.51495e+57
          1796.16130	         8.00788e+57
          1796.96760	         7.62281e+57
          1797.77390	         6.74399e+57
          1798.58020	         6.84911e+57
          1799.38650	         6.97805e+57
          1800.19280	         7.02386e+57
          1800.99910	         6.71436e+57
          1801.80540	         7.31621e+57
          1802.61170	         8.75286e+57
          1803.41800	         8.73160e+57
          1804.22430	         7.32087e+57
          1805.03060	         7.06878e+57
          1805.83690	         7.24225e+57
          1806.64320	         7.98907e+57
          1807.44950	         8.56119e+57
          1808.25580	         7.33325e+57
          1809.06210	         8.40319e+57
          1809.86840	         7.46094e+57
          1810.67470	         7.07567e+57
          1811.48100	         8.91940e+57
          1812.28730	         8.59516e+57
          1813.09360	         8.15263e+57
          1813.89990	         8.50055e+57
          1814.70620	         6.17136e+57
          1815.51250	         6.56727e+57
          1816.31880	         7.11399e+57
          1817.12510	         6.90331e+57
          1817.93140	         6.86036e+57
          1818.73770	         7.83139e+57
          1819.54400	         9.82347e+57
          1820.35030	         8.66039e+57
          1821.15660	         6.64779e+57
          1821.96290	         6.33641e+57
          1822.76920	         7.27341e+57
          1823.57550	         7.76854e+57
          1824.38180	         8.03636e+57
          1825.18810	         8.08086e+57
          1825.99440	         8.98160e+57
          1826.80070	         8.37066e+57
          1827.60700	         6.51799e+57
          1828.41330	         5.14484e+57
          1829.21960	         5.45955e+57
          1830.02590	         7.76793e+57
          1830.83220	         7.64504e+57
          1831.63850	         7.33603e+57
          1832.44480	         7.59415e+57
          1833.25110	         8.45891e+57
          1834.05740	         8.45643e+57
          1834.86370	         6.92311e+57
          1835.67000	         5.61209e+57
          1836.47630	         7.07815e+57
          1837.28260	         8.92126e+57
          1838.08890	         8.97349e+57
          1838.89520	         8.59845e+57
          1839.70150	         7.85701e+57
          1840.50780	         7.05880e+57
          1841.31410	         6.68786e+57
          1842.12040	         6.90821e+57
          1842.92670	         6.85342e+57
          1843.73300	         6.72275e+57
          1844.53930	         5.94505e+57
          1845.34560	         6.36425e+57
          1846.15190	         6.92692e+57
          1846.95820	         7.95482e+57
          1847.76450	         7.57279e+57
          1848.57080	         5.45405e+57
          1849.37710	         6.98559e+57
          1850.18340	         8.47563e+57
          1850.98970	         8.41634e+57
          1851.79600	         8.43582e+57
          1852.60230	         6.77941e+57
          1853.40860	         7.95870e+57
          1854.21490	         7.94257e+57
          1855.02120	         6.12088e+57
          1855.82750	         4.47054e+57
          1856.63380	         5.28040e+57
          1857.44010	         7.97354e+57
          1858.24640	         6.63829e+57
          1859.05270	         6.87818e+57
          1859.85900	         5.38223e+57
          1860.66530	         5.82647e+57
          1861.47160	         7.25101e+57
          1862.27790	         7.56066e+57
          1863.08420	         7.02316e+57
          1863.89050	         7.49493e+57
          1864.69680	         7.56887e+57
          1865.50310	         7.52619e+57
          1866.30940	         6.75273e+57
          1867.11570	         6.75719e+57
          1867.92200	         8.09143e+57
          1868.72830	         7.51022e+57
          1869.53460	         7.26145e+57
          1870.34090	         8.04986e+57
          1871.14720	         8.83279e+57
          1871.95350	         7.19397e+57
          1872.75980	         6.84963e+57
          1873.56610	         7.12753e+57
          1874.37240	         6.07790e+57
          1875.17870	         6.00771e+57
          1875.98500	         7.81248e+57
          1876.79130	         8.75291e+57
          1877.59760	         6.87098e+57
          1878.40390	         5.82533e+57
          1879.21020	         6.11715e+57
          1880.01650	         7.04213e+57
          1880.82280	         8.12345e+57
          1881.62910	         9.01873e+57
          1882.43540	         9.63333e+57
          1883.24170	         8.36398e+57
          1884.04800	         6.59876e+57
          1884.85430	         7.45153e+57
          1885.66060	         8.04646e+57
          1886.46690	         8.06343e+57
          1887.27320	         7.87369e+57
          1888.07950	         6.48006e+57
          1888.88580	         7.06544e+57
          1889.69210	         8.66876e+57
          1890.49840	         7.48932e+57
          1891.30470	         7.85187e+57
          1892.11100	         9.52505e+57
          1892.91730	         7.45254e+57
          1893.72360	         7.34797e+57
          1894.52990	         7.84708e+57
          1895.33620	         8.10937e+57
          1896.14250	         7.28003e+57
          1896.94880	         5.92948e+57
          1897.75510	         4.74395e+57
          1898.56140	         6.98206e+57
          1899.36770	         8.51309e+57
          1900.17400	         6.21125e+57
          1900.98030	         5.86959e+57
          1901.78660	         7.27638e+57
          1902.59290	         7.52480e+57
          1903.39920	         8.32497e+57
          1904.20550	         9.48216e+57
          1905.01180	         9.21008e+57
          1905.81810	         9.62695e+57
          1906.62440	         1.21764e+58
          1907.43070	         1.43984e+58
          1908.23700	         1.60885e+58
          1909.04330	         1.31344e+58
          1909.84960	         1.11072e+58
          1910.65590	         1.05248e+58
          1911.46220	         1.01854e+58
          1912.26850	         8.40061e+57
          1913.07480	         6.41529e+57
          1913.88110	         5.41419e+57
          1914.68740	         5.82285e+57
          1915.49370	         5.54114e+57
          1916.30000	         6.06111e+57
          1917.10630	         6.88964e+57
          1917.91260	         6.22813e+57
          1918.71890	         6.43386e+57
          1919.52520	         6.46248e+57
          1920.33150	         6.50247e+57
          1921.13780	         7.29252e+57
          1921.94410	         8.29750e+57
          1922.75040	         7.15300e+57
          1923.55670	         7.82794e+57
          1924.36300	         8.09301e+57
          1925.16930	         6.41495e+57
          1925.97560	         5.93035e+57
          1926.78190	         5.05914e+57
          1927.58820	         5.46878e+57
          1928.39450	         4.87325e+57
          1929.20080	         4.85894e+57
          1930.00710	         7.07509e+57
          1930.81340	         8.32540e+57
          1931.61970	         5.96097e+57
          1932.42600	         6.41360e+57
          1933.23230	         8.56532e+57
          1934.03860	         8.27717e+57
          1934.84490	         6.39606e+57
          1935.65120	         8.28931e+57
          1936.45750	         9.40133e+57
          1937.26380	         7.34610e+57
          1938.07010	         7.90971e+57
          1938.87640	         7.92217e+57
          1939.68270	         7.12318e+57
          1940.48900	         7.53926e+57
          1941.29530	         7.42484e+57
          1942.10160	         7.58128e+57
          1942.90790	         7.13073e+57
          1943.71420	         7.27861e+57
          1944.52050	         6.54895e+57
          1945.32680	         5.78242e+57
          1946.13310	         7.77997e+57
          1946.93940	         8.70571e+57
          1947.74570	         7.76521e+57
          1948.55200	         6.75363e+57
          1949.35830	         7.07794e+57
          1950.16460	         6.75867e+57
          1950.97090	         6.22328e+57
          1951.77720	         7.10832e+57
          1952.58350	         8.42489e+57
          1953.38980	         7.11295e+57
          1954.19610	         5.00684e+57
          1955.00240	         4.32329e+57
          1955.80870	         6.58589e+57
          1956.61500	         6.28264e+57
          1957.42130	         6.77786e+57
          1958.22760	         6.51608e+57
          1959.03390	         6.72864e+57
          1959.84020	         7.59892e+57
          1960.64650	         6.40594e+57
          1961.45280	         5.61722e+57
          1962.25910	         5.16349e+57
          1963.06540	         5.88494e+57
          1963.87170	         5.59480e+57
          1964.67800	         7.54998e+57
          1965.48430	         7.07480e+57
          1966.29060	         7.46460e+57
          1967.09690	         7.83426e+57
          1967.90320	         6.50363e+57
          1968.70950	         6.40202e+57
          1969.51580	         6.29331e+57
          1970.32210	         6.38007e+57
          1971.12840	         6.07678e+57
          1971.93470	         4.23670e+57
          1972.74100	         4.25268e+57
          1973.54730	         6.45913e+57
          1974.35360	         7.19562e+57
          1975.15990	         8.39923e+57
          1975.96620	         8.24857e+57
          1976.77250	         8.45486e+57
          1977.57880	         7.98604e+57
          1978.38510	         6.39500e+57
          1979.19140	         7.60385e+57
          1979.99770	         7.84276e+57
          1980.80400	         8.03538e+57
          1981.61030	         6.46760e+57
          1982.41660	         5.91048e+57
          1983.22290	         7.16981e+57
          1984.02920	         6.42136e+57
          1984.83550	         6.26887e+57
          1985.64180	         6.31412e+57
          1986.44810	         6.52098e+57
          1987.25440	         5.96990e+57
          1988.06070	         5.94293e+57
          1988.86700	         6.55581e+57
          1989.67330	         6.63367e+57
          1990.47960	         6.89475e+57
          1991.28590	         6.42927e+57
          1992.09220	         5.21437e+57
          1992.89850	         4.04243e+57
          1993.70480	         4.88782e+57
          1994.51110	         4.21513e+57
          1995.31740	         4.74426e+57
          1996.12370	         5.90230e+57
          1996.93000	         6.09364e+57
          1997.73630	         6.75908e+57
          1998.54260	         7.63298e+57
          1999.34890	         8.14499e+57
          2000.15520	         7.57887e+57
          2000.96150	         6.56238e+57
          2001.76780	         5.74218e+57
          2002.57410	         3.96108e+57
          2003.38040	         5.03643e+57
          2004.18670	         6.80226e+57
          2004.99300	         5.80219e+57
          2005.79930	         7.41859e+57
          2006.60560	         6.96695e+57
          2007.41190	         5.91597e+57
          2008.21820	         6.51313e+57
          2009.02450	         6.50360e+57
          2009.83080	         6.33805e+57
          2010.63710	         5.56553e+57
          2011.44340	         6.56822e+57
          2012.24970	         7.35482e+57
          2013.05600	         7.71651e+57
          2013.86230	         7.07910e+57
          2014.66860	         5.20673e+57
          2015.47490	         6.63617e+57
          2016.28120	         6.24637e+57
          2017.08750	         6.18549e+57
          2017.89380	         6.34275e+57
          2018.70010	         7.39911e+57
          2019.50640	         7.36612e+57
          2020.31270	         6.57641e+57
          2021.11900	         7.04865e+57
          2021.92530	         7.78739e+57
          2022.73160	         8.24382e+57
          2023.53790	         6.76323e+57
          2024.34420	         6.16608e+57
          2025.15050	         4.55081e+57
          2025.95680	         5.52974e+57
          2026.76310	         7.14257e+57
          2027.56940	         6.04768e+57
          2028.37570	         4.77626e+57
          2029.18200	         5.26575e+57
          2029.98830	         5.99816e+57
          2030.79460	         6.31586e+57
          2031.60090	         6.57048e+57
          2032.40720	         6.72975e+57
          2033.21350	         6.14428e+57
          2034.01980	         5.29494e+57
          2034.82610	         4.89979e+57
          2035.63240	         5.37579e+57
          2036.43870	         5.45504e+57
          2037.24500	         5.79355e+57
          2038.05130	         6.27662e+57
          2038.85760	         5.44128e+57
          2039.66390	         5.70426e+57
          2040.47020	         6.00796e+57
          2041.27650	         5.17634e+57
          2042.08280	         4.31753e+57
          2042.88910	         5.32338e+57
          2043.69540	         5.71066e+57
          2044.50170	         6.22500e+57
          2045.30800	         6.15153e+57
          2046.11430	         3.84826e+57
          2046.92060	         4.89545e+57
          2047.72690	         6.32372e+57
          2048.53320	         6.45546e+57
          2049.33950	         4.27885e+57
          2050.14580	         5.06764e+57
          2050.95210	         6.81919e+57
          2051.75840	         7.27098e+57
          2052.56470	         6.44831e+57
          2053.37100	         5.21902e+57
          2054.17730	         4.61681e+57
          2054.98360	         5.07567e+57
          2055.78990	         4.34173e+57
          2056.59620	         2.63191e+57
          2057.40250	         5.06174e+57
          2058.20880	         5.93568e+57
          2059.01510	         5.75367e+57
          2059.82140	         5.45393e+57
          2060.62770	         1.03964e+58
          2061.43400	         1.44633e+58
          2062.24030	         1.22405e+58
          2063.04660	         6.40710e+57
          2063.85290	        -1.72979e+57
          2064.65920	        -2.54540e+57
          2065.46550	        -7.64241e+57
          2066.27180	        -6.47303e+57
          2067.07810	         5.59103e+57
          2067.88440	         7.83171e+57
          2068.69070	         5.22023e+57
          2069.49700	         5.41803e+57
          2070.30330	         3.67970e+57
          2071.10960	         5.19136e+57
          2071.91590	         6.48925e+57
          2072.72220	         4.26595e+57
          2073.52850	         3.46922e+57
          2074.33480	         3.42901e+57
          2075.14110	         4.15559e+57
          2075.94740	         5.03711e+57
          2076.75370	         4.75640e+57
          2077.56000	         5.15674e+57
          2078.36630	         5.99837e+57
          2079.17260	         5.38704e+57
          2079.97890	         4.93021e+57
          2080.78520	         6.09638e+57
          2081.59150	         4.45917e+57
          2082.39780	         5.15872e+57
          2083.20410	         3.49820e+57
          2084.01040	         2.22594e+57
          2084.81670	         3.22107e+57
          2085.62300	         3.65845e+57
          2086.42930	         4.47048e+57
          2087.23560	         4.02803e+57
          2088.04190	         2.29742e+57
          2088.84820	         2.78929e+57
          2089.65450	         3.60029e+57
          2090.46080	         2.31840e+57
          2091.26710	         9.59649e+56
          2092.07340	         3.30953e+57
          2092.87970	         5.58789e+57
          2093.68600	         3.43209e+56
          2094.49230	         2.24651e+57
          2095.29860	         3.60287e+57
          2096.10490	         4.16436e+57
          2096.91120	         8.14941e+56
          2097.71750	        -1.93442e+57
          2098.52380	         9.99336e+56
          2099.33010	         1.18337e+57
          2100.13640	        -7.25050e+56
          2100.94270	        -6.77998e+56
          2101.74900	         5.33797e+56
          2102.55530	         1.13485e+57
          2103.36160	         2.93498e+57
          2104.16790	         3.96756e+57
          2104.97420	         1.60276e+57
          2105.78050	         3.37138e+57
          2106.58680	         4.53326e+57
          2107.39310	         5.34386e+56
          2108.19940	         2.32183e+57
          2109.00570	         5.69987e+55
          2109.81200	        -2.12634e+57
          2110.61830	         2.99971e+57
          2111.42460	         3.49877e+57
          2112.23090	         7.88961e+56
          2113.03720	         1.11666e+57
          2113.84350	         2.35661e+56
          2114.64980	        -5.28621e+56
          2115.45610	         2.56008e+57
          2116.26240	        -3.47216e+57
          2117.06870	        -2.89346e+57
          2117.87500	         1.67808e+57
          2118.68130	        -3.72704e+55
          2119.48760	         1.33294e+56
          2120.29390	         1.86976e+57
          2121.10020	        -2.07885e+57
          2121.90650	         4.30714e+57
          2122.71280	         2.84801e+57
          2123.51910	         5.63991e+57
          2124.32540	         1.93275e+57
          2125.13170	         4.83496e+57
          2125.93800	         8.40368e+57
          2126.74430	         1.07700e+57
          2127.55060	        -5.96765e+57
          2128.35690	        -3.08365e+57
          2129.16320	        -9.98987e+56
          2129.96950	        -2.79486e+57
          2130.77580	        -3.18646e+56
          2131.58210	         3.53287e+57
          2132.38840	         4.21842e+56
          2133.19470	        -2.27507e+57
          2134.00100	         2.49736e+56
          2134.80730	        -5.05350e+57
          2135.61360	         7.31493e+57
          2136.41990	         1.76859e+56
          2137.22620	         7.65605e+57
          2138.03250	         4.74257e+56
          2138.83880	        -1.50734e+57
          2139.64510	        -5.82256e+57
          2140.45140	        -3.39324e+57
          2141.25770	        -6.49121e+57
          2142.06400	        -5.88370e+57
          2142.87030	         2.24135e+57
          2143.67660	         4.98849e+57
          2144.48290	         1.17211e+58
          2145.28920	         1.43427e+58
          2146.09550	        -2.29141e+57
          2146.90180	        -8.03380e+57
          2147.70810	        -3.44991e+57
          2148.51440	        -9.96929e+57
          2149.32070	        -3.80707e+57
          2150.12700	        -1.01070e+58
          2150.93330	        -6.01183e+57
          2151.73960	        -5.31086e+57
          2152.54590	         2.55071e+56
          2153.35220	         8.19045e+57
          2154.15850	        -1.37826e+56
          2154.96480	        -4.45388e+57
          2155.77110	        -2.29760e+56
          2156.57740	        -6.46648e+57
          2157.38370	         7.69944e+56
          2158.19000	        -9.67248e+56
          2158.99630	        -3.39653e+57
          2159.80260	        -1.62726e+58
          2160.60890	        -1.20959e+58
          2161.41520	         1.67931e+57
          2162.22150	        -4.22768e+57
          2163.02780	         4.83102e+57
          2163.83410	        -5.73661e+57
          2164.64040	        -6.83533e+57
          2165.44670	        -9.16916e+57
          2166.25300	        -3.46890e+57
          2167.05930	         1.64622e+57
          2167.86560	        -5.50039e+56
          2168.67190	        -1.24733e+58
          2169.47820	        -3.38390e+57
          2170.28450	        -3.09063e+57
          2171.09080	        -2.84626e+57
          2171.89710	        -5.69062e+57
          2172.70340	         9.48422e+56
          2173.50970	        -3.30670e+57
          2174.31600	        -4.51333e+57
          2175.12230	         1.08600e+57
          2175.92860	        -2.37058e+57
          2176.73490	        -3.03726e+57
          2177.54120	        -8.40422e+57
          2178.34750	        -5.42121e+57
          2179.15380	                 nan
          2179.96010	                 nan
          2180.76640	                 nan
          2181.57270	                 nan
          2182.37900	                 nan
          2183.18530	                 nan
          2183.99160	                 nan
          2184.79790	                 nan
          2185.60420	                 nan
          2186.41050	                 nan
          2187.21680	                 nan
          2188.02310	                 nan
          2188.82940	                 nan
          2189.63570	                 nan
          2190.44200	                 nan
          2191.24830	                 nan
          2192.05460	                 nan
          2192.86090	                 nan
          2193.66720	                 nan
          2194.47350	                 nan
          2195.27980	                 nan
          2196.08610	                 nan
          2196.89240	                 nan
          2197.69870	                 nan
          2198.50500	                 nan
          2199.31130	                 nan
          2200.11760	                 nan
          2200.92390	                 nan
          2201.73020	                 nan
          2202.53650	                 nan
          2203.34280	                 nan
          2204.14910	                 nan
          2204.95540	                 nan
          2205.76170	                 nan
          2206.56800	                 nan
          2207.37430	                 nan
          2208.18060	                 nan
          2208.98690	                 nan
          2209.79320	                 nan
          2210.59950	                 nan
          2211.40580	                 nan
          2212.21210	                 nan
          2213.01840	                 nan
          2213.82470	                 nan
          2214.63100	                 nan
          2215.43730	         0.00000e+00
