#sample_43_stacked_spectrum_rest_UV-bands_median_H-alpha_noDC.txt
#median Lum: 1.69821e+42
#Rest-frame wavelength (A) | Luminosity (erg/s/A)
#
          1110.00000	         0.00000e+00
          1110.80630	         6.65377e+58
          1111.61260	        -1.76798e+59
          1112.41890	         2.70717e+59
          1113.22520	         1.63526e+59
          1114.03150	         9.99056e+58
          1114.83780	         4.72890e+59
          1115.64410	         2.65782e+59
          1116.45040	         1.24314e+59
          1117.25670	         1.52924e+59
          1118.06300	         1.50935e+59
          1118.86930	         3.52874e+58
          1119.67560	         1.20097e+59
          1120.48190	         2.47704e+58
          1121.28820	        -9.49924e+58
          1122.09450	         5.48313e+58
          1122.90080	         2.79728e+58
          1123.70710	         2.08264e+58
          1124.51340	         7.61894e+58
          1125.31970	        -1.51317e+58
          1126.12600	        -5.56295e+58
          1126.93230	        -5.86061e+58
          1127.73860	        -4.48306e+58
          1128.54490	        -1.24124e+58
          1129.35120	        -2.32557e+58
          1130.15750	         1.20365e+57
          1130.96380	        -2.33339e+58
          1131.77010	         8.49923e+58
          1132.57640	         4.97593e+57
          1133.38270	         3.06348e+58
          1134.18900	         1.73943e+58
          1134.99530	         1.80035e+58
          1135.80160	         2.24218e+58
          1136.60790	         3.12569e+57
          1137.41420	        -2.45490e+58
          1138.22050	         2.96431e+58
          1139.02680	         4.09437e+58
          1139.83310	         1.49356e+58
          1140.63940	         7.02496e+57
          1141.44570	        -1.79143e+58
          1142.25200	        -1.77653e+58
          1143.05830	         5.66652e+56
          1143.86460	         2.39374e+58
          1144.67090	         2.24735e+58
          1145.47720	         1.66915e+57
          1146.28350	         2.30233e+57
          1147.08980	         1.22026e+58
          1147.89610	         1.74350e+58
          1148.70240	         2.23985e+58
          1149.50870	         2.42163e+58
          1150.31500	         2.07314e+58
          1151.12130	         7.93265e+57
          1151.92760	        -2.03250e+57
          1152.73390	         1.05901e+58
          1153.54020	         1.70972e+58
          1154.34650	         2.69227e+58
          1155.15280	         2.03186e+58
          1155.95910	         9.81234e+57
          1156.76540	         4.95663e+57
          1157.57170	         6.84705e+57
          1158.37800	        -6.72230e+57
          1159.18430	        -5.88033e+57
          1159.99060	         3.55853e+57
          1160.79690	         7.41732e+57
          1161.60320	         1.01735e+58
          1162.40950	         1.82973e+58
          1163.21580	         2.21408e+58
          1164.02210	         1.57717e+58
          1164.82840	         1.88496e+58
          1165.63470	         2.24006e+58
          1166.44100	         2.61801e+58
          1167.24730	         1.86830e+58
          1168.05360	         9.15070e+57
          1168.85990	         1.06375e+58
          1169.66620	         8.42064e+57
          1170.47250	         1.02060e+58
          1171.27880	         1.63805e+58
          1172.08510	         2.59666e+58
          1172.89140	         1.16176e+58
          1173.69770	         1.19839e+58
          1174.50400	         1.13500e+58
          1175.31030	         1.41883e+58
          1176.11660	         1.68165e+58
          1176.92290	         1.35910e+58
          1177.72920	         1.19145e+58
          1178.53550	         6.95297e+57
          1179.34180	         6.27648e+57
          1180.14810	         5.86137e+57
          1180.95440	         1.06348e+58
          1181.76070	         1.16274e+58
          1182.56700	         6.64521e+57
          1183.37330	         4.58099e+57
          1184.17960	         1.00433e+58
          1184.98590	         9.34498e+57
          1185.79220	         3.71469e+57
          1186.59850	         1.01285e+58
          1187.40480	         1.24434e+58
          1188.21110	         1.67649e+58
          1189.01740	         1.00534e+58
          1189.82370	         5.61577e+57
          1190.63000	         1.11057e+58
          1191.43630	         1.72731e+58
          1192.24260	         1.49473e+58
          1193.04890	         1.56769e+58
          1193.85520	         9.43962e+57
          1194.66150	         5.43660e+57
          1195.46780	         1.23007e+58
          1196.27410	         1.39193e+58
          1197.08040	         1.07315e+58
          1197.88670	         1.22827e+58
          1198.69300	         1.61040e+58
          1199.49930	         1.90394e+58
          1200.30560	         1.34020e+58
          1201.11190	         1.05342e+58
          1201.91820	         1.17366e+58
          1202.72450	         8.27202e+57
          1203.53080	         1.70322e+58
          1204.33710	         1.11207e+58
          1205.14340	         5.48134e+57
          1205.94970	         7.06572e+57
          1206.75600	         5.73011e+57
          1207.56230	         4.09725e+57
          1208.36860	         5.33141e+57
          1209.17490	         8.75100e+56
          1209.98120	         2.53480e+57
          1210.78750	         5.62862e+57
          1211.59380	         1.26395e+58
          1212.40010	         1.85750e+58
          1213.20640	         2.09933e+58
          1214.01270	         1.84818e+58
          1214.81900	         2.32887e+58
          1215.62530	         4.37897e+58
          1216.43160	         8.70734e+58
          1217.23790	         1.49799e+59
          1218.04420	         1.16760e+59
          1218.85050	         9.06355e+58
          1219.65680	         5.86156e+58
          1220.46310	         3.09143e+58
          1221.26940	         2.21544e+58
          1222.07570	         1.69168e+58
          1222.88200	         1.10036e+58
          1223.68830	         7.66442e+57
          1224.49460	         9.25042e+57
          1225.30090	         8.82697e+57
          1226.10720	         7.00771e+57
          1226.91350	         9.22320e+57
          1227.71980	         1.14377e+58
          1228.52610	         1.36223e+58
          1229.33240	         8.53336e+57
          1230.13870	         6.28320e+57
          1230.94500	         4.51036e+57
          1231.75130	         8.54249e+57
          1232.55760	         1.06723e+58
          1233.36390	         8.77865e+57
          1234.17020	         6.71112e+57
          1234.97650	         7.59227e+57
          1235.78280	         7.15422e+57
          1236.58910	         7.78562e+57
          1237.39540	         1.15981e+58
          1238.20170	         1.15875e+58
          1239.00800	         1.18031e+58
          1239.81430	         1.18714e+58
          1240.62060	         1.03326e+58
          1241.42690	         1.20911e+58
          1242.23320	         1.08011e+58
          1243.03950	         7.72085e+57
          1243.84580	         8.84415e+57
          1244.65210	         9.11467e+57
          1245.45840	         7.51171e+57
          1246.26470	         8.76710e+57
          1247.07100	         8.54627e+57
          1247.87730	         8.05168e+57
          1248.68360	         4.01066e+57
          1249.48990	         7.31477e+57
          1250.29620	         7.04158e+57
          1251.10250	         6.35823e+57
          1251.90880	         4.57408e+57
          1252.71510	         4.68713e+57
          1253.52140	         9.97724e+57
          1254.32770	         1.34478e+58
          1255.13400	         1.20944e+58
          1255.94030	         8.82979e+57
          1256.74660	         1.06667e+58
          1257.55290	         1.21248e+58
          1258.35920	         1.00178e+58
          1259.16550	         4.84632e+57
          1259.97180	         4.60799e+57
          1260.77810	         8.25847e+57
          1261.58440	         1.24614e+58
          1262.39070	         9.47537e+57
          1263.19700	         7.15556e+57
          1264.00330	         8.29746e+57
          1264.80960	         8.48295e+57
          1265.61590	         1.17885e+58
          1266.42220	         1.47309e+58
          1267.22850	         1.21044e+58
          1268.03480	         1.56754e+58
          1268.84110	         1.65210e+58
          1269.64740	         1.40469e+58
          1270.45370	         1.33628e+58
          1271.26000	         1.09175e+58
          1272.06630	         1.06539e+58
          1272.87260	         1.03982e+58
          1273.67890	         1.40679e+58
          1274.48520	         1.43664e+58
          1275.29150	         1.27465e+58
          1276.09780	         1.19319e+58
          1276.90410	         1.35918e+58
          1277.71040	         1.34250e+58
          1278.51670	         1.30428e+58
          1279.32300	         1.38366e+58
          1280.12930	         1.20580e+58
          1280.93560	         1.24758e+58
          1281.74190	         1.25810e+58
          1282.54820	         1.06439e+58
          1283.35450	         1.00673e+58
          1284.16080	         1.14881e+58
          1284.96710	         1.48469e+58
          1285.77340	         1.43331e+58
          1286.57970	         1.22939e+58
          1287.38600	         1.56022e+58
          1288.19230	         1.52979e+58
          1288.99860	         1.15441e+58
          1289.80490	         1.06243e+58
          1290.61120	         1.14839e+58
          1291.41750	         1.11179e+58
          1292.22380	         1.20117e+58
          1293.03010	         1.29032e+58
          1293.83640	         1.20816e+58
          1294.64270	         9.72543e+57
          1295.44900	         5.57510e+57
          1296.25530	         5.01837e+57
          1297.06160	         8.89930e+57
          1297.86790	         1.03963e+58
          1298.67420	         9.28033e+57
          1299.48050	         1.02959e+58
          1300.28680	         9.81673e+57
          1301.09310	         7.75519e+57
          1301.89940	         4.07626e+57
          1302.70570	         5.83901e+57
          1303.51200	         7.25751e+57
          1304.31830	         8.79533e+57
          1305.12460	         1.00271e+58
          1305.93090	         1.06619e+58
          1306.73720	         1.20049e+58
          1307.54350	         1.39664e+58
          1308.34980	         1.50799e+58
          1309.15610	         1.60759e+58
          1309.96240	         1.53341e+58
          1310.76870	         1.29988e+58
          1311.57500	         1.31427e+58
          1312.38130	         1.28740e+58
          1313.18760	         1.28742e+58
          1313.99390	         1.70646e+58
          1314.80020	         1.68594e+58
          1315.60650	         1.49983e+58
          1316.41280	         1.13169e+58
          1317.21910	         1.04617e+58
          1318.02540	         1.29042e+58
          1318.83170	         1.23017e+58
          1319.63800	         1.16006e+58
          1320.44430	         1.16500e+58
          1321.25060	         1.12059e+58
          1322.05690	         1.13574e+58
          1322.86320	         1.13756e+58
          1323.66950	         1.04805e+58
          1324.47580	         9.91801e+57
          1325.28210	         1.07358e+58
          1326.08840	         1.10932e+58
          1326.89470	         1.20248e+58
          1327.70100	         1.00009e+58
          1328.50730	         8.38524e+57
          1329.31360	         8.27451e+57
          1330.11990	         9.54683e+57
          1330.92620	         8.78135e+57
          1331.73250	         1.05479e+58
          1332.53880	         1.03220e+58
          1333.34510	         8.45522e+57
          1334.15140	         8.12956e+57
          1334.95770	         8.90871e+57
          1335.76400	         1.09189e+58
          1336.57030	         1.08179e+58
          1337.37660	         9.39113e+57
          1338.18290	         9.45208e+57
          1338.98920	         1.05937e+58
          1339.79550	         1.17582e+58
          1340.60180	         1.27967e+58
          1341.40810	         1.35480e+58
          1342.21440	         1.01205e+58
          1343.02070	         1.09688e+58
          1343.82700	         1.36431e+58
          1344.63330	         1.24132e+58
          1345.43960	         1.04751e+58
          1346.24590	         1.18677e+58
          1347.05220	         1.45840e+58
          1347.85850	         1.00146e+58
          1348.66480	         1.15964e+58
          1349.47110	         1.27630e+58
          1350.27740	         1.13899e+58
          1351.08370	         1.25342e+58
          1351.89000	         1.26492e+58
          1352.69630	         1.25962e+58
          1353.50260	         1.34502e+58
          1354.30890	         1.25783e+58
          1355.11520	         1.18368e+58
          1355.92150	         1.17118e+58
          1356.72780	         1.02243e+58
          1357.53410	         8.92423e+57
          1358.34040	         1.02976e+58
          1359.14670	         1.02053e+58
          1359.95300	         1.09701e+58
          1360.75930	         1.09562e+58
          1361.56560	         1.01918e+58
          1362.37190	         1.13038e+58
          1363.17820	         1.20334e+58
          1363.98450	         1.28250e+58
          1364.79080	         1.19230e+58
          1365.59710	         1.16492e+58
          1366.40340	         1.27315e+58
          1367.20970	         1.14629e+58
          1368.01600	         9.24523e+57
          1368.82230	         8.75663e+57
          1369.62860	         1.07373e+58
          1370.43490	         9.31802e+57
          1371.24120	         9.36442e+57
          1372.04750	         9.78637e+57
          1372.85380	         1.10407e+58
          1373.66010	         1.09090e+58
          1374.46640	         1.07058e+58
          1375.27270	         1.12625e+58
          1376.07900	         1.02759e+58
          1376.88530	         9.21105e+57
          1377.69160	         8.15007e+57
          1378.49790	         5.82493e+57
          1379.30420	         6.45140e+57
          1380.11050	         1.00424e+58
          1380.91680	         8.77765e+57
          1381.72310	         6.32650e+57
          1382.52940	         7.52053e+57
          1383.33570	         9.34132e+57
          1384.14200	         9.85162e+57
          1384.94830	         1.18424e+58
          1385.75460	         1.16949e+58
          1386.56090	         9.93412e+57
          1387.36720	         1.06168e+58
          1388.17350	         1.17436e+58
          1388.97980	         9.92405e+57
          1389.78610	         9.36229e+57
          1390.59240	         8.57370e+57
          1391.39870	         8.44497e+57
          1392.20500	         9.40137e+57
          1393.01130	         7.13612e+57
          1393.81760	         7.73180e+57
          1394.62390	         6.96960e+57
          1395.43020	         5.25221e+57
          1396.23650	         6.74262e+57
          1397.04280	         7.66748e+57
          1397.84910	         8.01812e+57
          1398.65540	         8.40456e+57
          1399.46170	         1.02801e+58
          1400.26800	         9.34197e+57
          1401.07430	         7.65131e+57
          1401.88060	         8.21879e+57
          1402.68690	         9.30480e+57
          1403.49320	         1.04434e+58
          1404.29950	         9.63989e+57
          1405.10580	         9.96401e+57
          1405.91210	         1.12537e+58
          1406.71840	         1.10263e+58
          1407.52470	         9.17280e+57
          1408.33100	         9.82118e+57
          1409.13730	         1.23723e+58
          1409.94360	         1.27929e+58
          1410.74990	         1.09159e+58
          1411.55620	         8.84755e+57
          1412.36250	         8.57447e+57
          1413.16880	         9.14066e+57
          1413.97510	         8.34603e+57
          1414.78140	         8.03911e+57
          1415.58770	         1.04507e+58
          1416.39400	         1.09312e+58
          1417.20030	         1.06961e+58
          1418.00660	         1.01847e+58
          1418.81290	         9.57170e+57
          1419.61920	         1.07965e+58
          1420.42550	         1.38428e+58
          1421.23180	         1.50980e+58
          1422.03810	         1.23294e+58
          1422.84440	         1.07743e+58
          1423.65070	         1.26481e+58
          1424.45700	         1.11902e+58
          1425.26330	         9.51589e+57
          1426.06960	         9.40012e+57
          1426.87590	         9.98799e+57
          1427.68220	         9.48401e+57
          1428.48850	         1.12781e+58
          1429.29480	         1.20709e+58
          1430.10110	         1.11000e+58
          1430.90740	         9.67204e+57
          1431.71370	         8.45120e+57
          1432.52000	         8.38879e+57
          1433.32630	         8.59161e+57
          1434.13260	         8.78483e+57
          1434.93890	         9.83878e+57
          1435.74520	         9.57367e+57
          1436.55150	         9.44075e+57
          1437.35780	         8.57826e+57
          1438.16410	         8.76966e+57
          1438.97040	         9.36476e+57
          1439.77670	         9.27188e+57
          1440.58300	         9.62355e+57
          1441.38930	         9.69373e+57
          1442.19560	         9.23655e+57
          1443.00190	         9.61543e+57
          1443.80820	         1.16632e+58
          1444.61450	         1.12128e+58
          1445.42080	         8.43217e+57
          1446.22710	         9.71270e+57
          1447.03340	         9.55444e+57
          1447.83970	         9.64222e+57
          1448.64600	         1.08710e+58
          1449.45230	         1.10937e+58
          1450.25860	         1.14431e+58
          1451.06490	         9.91576e+57
          1451.87120	         8.28863e+57
          1452.67750	         7.50419e+57
          1453.48380	         8.74883e+57
          1454.29010	         8.27157e+57
          1455.09640	         7.33556e+57
          1455.90270	         9.88493e+57
          1456.70900	         9.46470e+57
          1457.51530	         9.41489e+57
          1458.32160	         1.17427e+58
          1459.12790	         1.20206e+58
          1459.93420	         1.00934e+58
          1460.74050	         7.66992e+57
          1461.54680	         7.63620e+57
          1462.35310	         8.15141e+57
          1463.15940	         9.68798e+57
          1463.96570	         1.14347e+58
          1464.77200	         1.17201e+58
          1465.57830	         1.10190e+58
          1466.38460	         8.65778e+57
          1467.19090	         7.40727e+57
          1467.99720	         1.02573e+58
          1468.80350	         1.04415e+58
          1469.60980	         9.56355e+57
          1470.41610	         9.83813e+57
          1471.22240	         9.82537e+57
          1472.02870	         1.07301e+58
          1472.83500	         9.25020e+57
          1473.64130	         8.34286e+57
          1474.44760	         8.23193e+57
          1475.25390	         8.49052e+57
          1476.06020	         9.42261e+57
          1476.86650	         9.44040e+57
          1477.67280	         8.31050e+57
          1478.47910	         7.15045e+57
          1479.28540	         7.54297e+57
          1480.09170	         8.50236e+57
          1480.89800	         8.31996e+57
          1481.70430	         1.01385e+58
          1482.51060	         9.39493e+57
          1483.31690	         8.19924e+57
          1484.12320	         7.46252e+57
          1484.92950	         7.24201e+57
          1485.73580	         8.64373e+57
          1486.54210	         8.57021e+57
          1487.34840	         9.04681e+57
          1488.15470	         8.87671e+57
          1488.96100	         8.65499e+57
          1489.76730	         9.54347e+57
          1490.57360	         8.68268e+57
          1491.37990	         7.85133e+57
          1492.18620	         8.84612e+57
          1492.99250	         8.97707e+57
          1493.79880	         8.32614e+57
          1494.60510	         8.80357e+57
          1495.41140	         7.96501e+57
          1496.21770	         8.53053e+57
          1497.02400	         9.76519e+57
          1497.83030	         7.85642e+57
          1498.63660	         5.96708e+57
          1499.44290	         5.72708e+57
          1500.24920	         6.70533e+57
          1501.05550	         8.40774e+57
          1501.86180	         8.65635e+57
          1502.66810	         1.02390e+58
          1503.47440	         9.73976e+57
          1504.28070	         8.64689e+57
          1505.08700	         9.97904e+57
          1505.89330	         1.00866e+58
          1506.69960	         8.42546e+57
          1507.50590	         8.86193e+57
          1508.31220	         9.80298e+57
          1509.11850	         8.72122e+57
          1509.92480	         8.47846e+57
          1510.73110	         8.43621e+57
          1511.53740	         7.63122e+57
          1512.34370	         6.24363e+57
          1513.15000	         7.74818e+57
          1513.95630	         9.96707e+57
          1514.76260	         9.70790e+57
          1515.56890	         8.44032e+57
          1516.37520	         8.79257e+57
          1517.18150	         8.68389e+57
          1517.98780	         7.70252e+57
          1518.79410	         7.95092e+57
          1519.60040	         8.56505e+57
          1520.40670	         8.98045e+57
          1521.21300	         9.45670e+57
          1522.01930	         8.93774e+57
          1522.82560	         9.34148e+57
          1523.63190	         1.01216e+58
          1524.43820	         8.15955e+57
          1525.24450	         6.77800e+57
          1526.05080	         6.30723e+57
          1526.85710	         6.21117e+57
          1527.66340	         6.27804e+57
          1528.46970	         7.19631e+57
          1529.27600	         7.50316e+57
          1530.08230	         6.77295e+57
          1530.88860	         7.65223e+57
          1531.69490	         8.69289e+57
          1532.50120	         9.08552e+57
          1533.30750	         9.41977e+57
          1534.11380	         9.43555e+57
          1534.92010	         9.47512e+57
          1535.72640	         8.83195e+57
          1536.53270	         9.33775e+57
          1537.33900	         8.76484e+57
          1538.14530	         8.68440e+57
          1538.95160	         9.78885e+57
          1539.75790	         8.93527e+57
          1540.56420	         8.46851e+57
          1541.37050	         8.07173e+57
          1542.17680	         7.89169e+57
          1542.98310	         8.26979e+57
          1543.78940	         7.86263e+57
          1544.59570	         6.00644e+57
          1545.40200	         7.23060e+57
          1546.20830	         1.02101e+58
          1547.01460	         1.16575e+58
          1547.82090	         1.25837e+58
          1548.62720	         1.21335e+58
          1549.43350	         1.19945e+58
          1550.23980	         1.13408e+58
          1551.04610	         1.24552e+58
          1551.85240	         1.16128e+58
          1552.65870	         1.08827e+58
          1553.46500	         1.02508e+58
          1554.27130	         9.57108e+57
          1555.07760	         9.88087e+57
          1555.88390	         9.26670e+57
          1556.69020	         9.89225e+57
          1557.49650	         9.68589e+57
          1558.30280	         8.72616e+57
          1559.10910	         7.96536e+57
          1559.91540	         8.27615e+57
          1560.72170	         8.54873e+57
          1561.52800	         8.83446e+57
          1562.33430	         9.06363e+57
          1563.14060	         8.68016e+57
          1563.94690	         9.10911e+57
          1564.75320	         9.21238e+57
          1565.55950	         7.09950e+57
          1566.36580	         6.51575e+57
          1567.17210	         8.53309e+57
          1567.97840	         9.62355e+57
          1568.78470	         8.98900e+57
          1569.59100	         9.57366e+57
          1570.39730	         8.63459e+57
          1571.20360	         6.44004e+57
          1572.00990	         7.31852e+57
          1572.81620	         8.70591e+57
          1573.62250	         9.77157e+57
          1574.42880	         9.08959e+57
          1575.23510	         7.70907e+57
          1576.04140	         7.93749e+57
          1576.84770	         9.79650e+57
          1577.65400	         8.72960e+57
          1578.46030	         9.30172e+57
          1579.26660	         1.08211e+58
          1580.07290	         9.41837e+57
          1580.87920	         6.90679e+57
          1581.68550	         6.96857e+57
          1582.49180	         7.98923e+57
          1583.29810	         7.65642e+57
          1584.10440	         7.75081e+57
          1584.91070	         8.07906e+57
          1585.71700	         8.44758e+57
          1586.52330	         8.21967e+57
          1587.32960	         8.87334e+57
          1588.13590	         8.95640e+57
          1588.94220	         8.55799e+57
          1589.74850	         8.96335e+57
          1590.55480	         1.02254e+58
          1591.36110	         9.08972e+57
          1592.16740	         7.85465e+57
          1592.97370	         8.37602e+57
          1593.78000	         9.16163e+57
          1594.58630	         9.70882e+57
          1595.39260	         8.78444e+57
          1596.19890	         8.35163e+57
          1597.00520	         9.21980e+57
          1597.81150	         9.39254e+57
          1598.61780	         8.15973e+57
          1599.42410	         6.70074e+57
          1600.23040	         6.46879e+57
          1601.03670	         8.81235e+57
          1601.84300	         8.67626e+57
          1602.64930	         8.68004e+57
          1603.45560	         9.26047e+57
          1604.26190	         7.70606e+57
          1605.06820	         7.76185e+57
          1605.87450	         8.13458e+57
          1606.68080	         7.20757e+57
          1607.48710	         5.51339e+57
          1608.29340	         5.36534e+57
          1609.09970	         7.33037e+57
          1609.90600	         8.06324e+57
          1610.71230	         8.23868e+57
          1611.51860	         8.18809e+57
          1612.32490	         7.40087e+57
          1613.13120	         7.36511e+57
          1613.93750	         7.66670e+57
          1614.74380	         8.02493e+57
          1615.55010	         8.71329e+57
          1616.35640	         9.28734e+57
          1617.16270	         9.99420e+57
          1617.96900	         1.00398e+58
          1618.77530	         8.65074e+57
          1619.58160	         9.18424e+57
          1620.38790	         7.88779e+57
          1621.19420	         8.42400e+57
          1622.00050	         8.59428e+57
          1622.80680	         8.37547e+57
          1623.61310	         8.40803e+57
          1624.41940	         8.56385e+57
          1625.22570	         8.54223e+57
          1626.03200	         8.58055e+57
          1626.83830	         8.17166e+57
          1627.64460	         7.42464e+57
          1628.45090	         6.40644e+57
          1629.25720	         7.68647e+57
          1630.06350	         8.55960e+57
          1630.86980	         6.43409e+57
          1631.67610	         7.31950e+57
          1632.48240	         7.35500e+57
          1633.28870	         6.87536e+57
          1634.09500	         8.18856e+57
          1634.90130	         1.06171e+58
          1635.70760	         9.11232e+57
          1636.51390	         7.06197e+57
          1637.32020	         7.72828e+57
          1638.12650	         9.82753e+57
          1638.93280	         1.03217e+58
          1639.73910	         1.09003e+58
          1640.54540	         1.00660e+58
          1641.35170	         8.50618e+57
          1642.15800	         9.35757e+57
          1642.96430	         8.97871e+57
          1643.77060	         8.42058e+57
          1644.57690	         7.48698e+57
          1645.38320	         8.17108e+57
          1646.18950	         6.72924e+57
          1646.99580	         7.25496e+57
          1647.80210	         7.97633e+57
          1648.60840	         7.55194e+57
          1649.41470	         8.25677e+57
          1650.22100	         8.08162e+57
          1651.02730	         7.12625e+57
          1651.83360	         7.83763e+57
          1652.63990	         8.70470e+57
          1653.44620	         1.05429e+58
          1654.25250	         9.10906e+57
          1655.05880	         7.76837e+57
          1655.86510	         8.47007e+57
          1656.67140	         7.12845e+57
          1657.47770	         7.16161e+57
          1658.28400	         8.95603e+57
          1659.09030	         8.26255e+57
          1659.89660	         8.39756e+57
          1660.70290	         9.74937e+57
          1661.50920	         9.23155e+57
          1662.31550	         8.22484e+57
          1663.12180	         8.15564e+57
          1663.92810	         8.75496e+57
          1664.73440	         1.00931e+58
          1665.54070	         1.12539e+58
          1666.34700	         1.16146e+58
          1667.15330	         1.10654e+58
          1667.95960	         9.19271e+57
          1668.76590	         8.04914e+57
          1669.57220	         7.29787e+57
          1670.37850	         7.12167e+57
          1671.18480	         7.66189e+57
          1671.99110	         8.48719e+57
          1672.79740	         7.44944e+57
          1673.60370	         6.46221e+57
          1674.41000	         7.23098e+57
          1675.21630	         7.27883e+57
          1676.02260	         6.57913e+57
          1676.82890	         6.54638e+57
          1677.63520	         7.91500e+57
          1678.44150	         8.76926e+57
          1679.24780	         9.13209e+57
          1680.05410	         7.72703e+57
          1680.86040	         6.85074e+57
          1681.66670	         7.31447e+57
          1682.47300	         8.48946e+57
          1683.27930	         8.36952e+57
          1684.08560	         8.00981e+57
          1684.89190	         7.55414e+57
          1685.69820	         6.04508e+57
          1686.50450	         5.84625e+57
          1687.31080	         6.73463e+57
          1688.11710	         7.56297e+57
          1688.92340	         5.86796e+57
          1689.72970	         5.43775e+57
          1690.53600	         6.57837e+57
          1691.34230	         7.44770e+57
          1692.14860	         7.71564e+57
          1692.95490	         6.19596e+57
          1693.76120	         6.39798e+57
          1694.56750	         6.07722e+57
          1695.37380	         7.32942e+57
          1696.18010	         8.33013e+57
          1696.98640	         7.76513e+57
          1697.79270	         8.16519e+57
          1698.59900	         8.18810e+57
          1699.40530	         6.70996e+57
          1700.21160	         7.52847e+57
          1701.01790	         8.80602e+57
          1701.82420	         7.52168e+57
          1702.63050	         8.44007e+57
          1703.43680	         8.28850e+57
          1704.24310	         7.95415e+57
          1705.04940	         8.34409e+57
          1705.85570	         8.02592e+57
          1706.66200	         8.33809e+57
          1707.46830	         8.80672e+57
          1708.27460	         8.10276e+57
          1709.08090	         7.16446e+57
          1709.88720	         6.98882e+57
          1710.69350	         6.66799e+57
          1711.49980	         6.52840e+57
          1712.30610	         6.79662e+57
          1713.11240	         8.06544e+57
          1713.91870	         7.14773e+57
          1714.72500	         7.88739e+57
          1715.53130	         8.78297e+57
          1716.33760	         7.59692e+57
          1717.14390	         7.22200e+57
          1717.95020	         8.14127e+57
          1718.75650	         8.03707e+57
          1719.56280	         7.20719e+57
          1720.36910	         5.85499e+57
          1721.17540	         6.31481e+57
          1721.98170	         5.82053e+57
          1722.78800	         5.96644e+57
          1723.59430	         6.50770e+57
          1724.40060	         7.80691e+57
          1725.20690	         8.81338e+57
          1726.01320	         8.78305e+57
          1726.81950	         7.62949e+57
          1727.62580	         7.32047e+57
          1728.43210	         6.94676e+57
          1729.23840	         7.11281e+57
          1730.04470	         7.92517e+57
          1730.85100	         7.51414e+57
          1731.65730	         7.60658e+57
          1732.46360	         7.70313e+57
          1733.26990	         6.33803e+57
          1734.07620	         6.43655e+57
          1734.88250	         7.65098e+57
          1735.68880	         8.01736e+57
          1736.49510	         7.78812e+57
          1737.30140	         8.16525e+57
          1738.10770	         8.01701e+57
          1738.91400	         7.59938e+57
          1739.72030	         7.29432e+57
          1740.52660	         6.96977e+57
          1741.33290	         6.96765e+57
          1742.13920	         6.79518e+57
          1742.94550	         7.36633e+57
          1743.75180	         8.21491e+57
          1744.55810	         8.23007e+57
          1745.36440	         8.29127e+57
          1746.17070	         6.51534e+57
          1746.97700	         5.36807e+57
          1747.78330	         7.07798e+57
          1748.58960	         7.32377e+57
          1749.39590	         7.38549e+57
          1750.20220	         7.02848e+57
          1751.00850	         5.83315e+57
          1751.81480	         5.73295e+57
          1752.62110	         8.15361e+57
          1753.42740	         9.62304e+57
          1754.23370	         7.10045e+57
          1755.04000	         7.11655e+57
          1755.84630	         8.42568e+57
          1756.65260	         8.26237e+57
          1757.45890	         8.27456e+57
          1758.26520	         7.62645e+57
          1759.07150	         8.75556e+57
          1759.87780	         8.36827e+57
          1760.68410	         7.69663e+57
          1761.49040	         7.42565e+57
          1762.29670	         6.32120e+57
          1763.10300	         6.85227e+57
          1763.90930	         7.52227e+57
          1764.71560	         7.13431e+57
          1765.52190	         7.20089e+57
          1766.32820	         8.62097e+57
          1767.13450	         8.26798e+57
          1767.94080	         7.53004e+57
          1768.74710	         7.34846e+57
          1769.55340	         6.99800e+57
          1770.35970	         7.23471e+57
          1771.16600	         8.42819e+57
          1771.97230	         8.76254e+57
          1772.77860	         8.87065e+57
          1773.58490	         7.84090e+57
          1774.39120	         5.62867e+57
          1775.19750	         5.35096e+57
          1776.00380	         6.26049e+57
          1776.81010	         7.22774e+57
          1777.61640	         7.62424e+57
          1778.42270	         6.97985e+57
          1779.22900	         7.01673e+57
          1780.03530	         7.39075e+57
          1780.84160	         8.04515e+57
          1781.64790	         9.12625e+57
          1782.45420	         7.74938e+57
          1783.26050	         6.27563e+57
          1784.06680	         6.52563e+57
          1784.87310	         7.66749e+57
          1785.67940	         7.76309e+57
          1786.48570	         7.39358e+57
          1787.29200	         6.35335e+57
          1788.09830	         5.77090e+57
          1788.90460	         5.73792e+57
          1789.71090	         5.99687e+57
          1790.51720	         6.36121e+57
          1791.32350	         6.73756e+57
          1792.12980	         7.29410e+57
          1792.93610	         7.29246e+57
          1793.74240	         7.44790e+57
          1794.54870	         8.21098e+57
          1795.35500	         8.98121e+57
          1796.16130	         8.07537e+57
          1796.96760	         6.70760e+57
          1797.77390	         6.89443e+57
          1798.58020	         7.05678e+57
          1799.38650	         7.07601e+57
          1800.19280	         7.64417e+57
          1800.99910	         7.15350e+57
          1801.80540	         6.22494e+57
          1802.61170	         7.43118e+57
          1803.41800	         7.91336e+57
          1804.22430	         7.14983e+57
          1805.03060	         7.33029e+57
          1805.83690	         6.91725e+57
          1806.64320	         7.30352e+57
          1807.44950	         7.95126e+57
          1808.25580	         7.53361e+57
          1809.06210	         8.24294e+57
          1809.86840	         7.71072e+57
          1810.67470	         7.51144e+57
          1811.48100	         8.33130e+57
          1812.28730	         8.24080e+57
          1813.09360	         8.31356e+57
          1813.89990	         8.23130e+57
          1814.70620	         8.03971e+57
          1815.51250	         9.17311e+57
          1816.31880	         8.28218e+57
          1817.12510	         7.53565e+57
          1817.93140	         7.30505e+57
          1818.73770	         8.10008e+57
          1819.54400	         9.09207e+57
          1820.35030	         7.99534e+57
          1821.15660	         7.08784e+57
          1821.96290	         7.29227e+57
          1822.76920	         7.81898e+57
          1823.57550	         8.18259e+57
          1824.38180	         8.13821e+57
          1825.18810	         8.36130e+57
          1825.99440	         8.42410e+57
          1826.80070	         8.39993e+57
          1827.60700	         6.28407e+57
          1828.41330	         5.31405e+57
          1829.21960	         6.31089e+57
          1830.02590	         7.27227e+57
          1830.83220	         7.79120e+57
          1831.63850	         6.32381e+57
          1832.44480	         6.10949e+57
          1833.25110	         7.35203e+57
          1834.05740	         7.80206e+57
          1834.86370	         6.83046e+57
          1835.67000	         5.32154e+57
          1836.47630	         7.17238e+57
          1837.28260	         9.16408e+57
          1838.08890	         9.08609e+57
          1838.89520	         8.73549e+57
          1839.70150	         7.13203e+57
          1840.50780	         7.33414e+57
          1841.31410	         7.23853e+57
          1842.12040	         7.17257e+57
          1842.92670	         6.79040e+57
          1843.73300	         6.71671e+57
          1844.53930	         6.99458e+57
          1845.34560	         7.17969e+57
          1846.15190	         7.83347e+57
          1846.95820	         7.85211e+57
          1847.76450	         6.60673e+57
          1848.57080	         5.24108e+57
          1849.37710	         5.23166e+57
          1850.18340	         7.02726e+57
          1850.98970	         7.85687e+57
          1851.79600	         8.50568e+57
          1852.60230	         8.02373e+57
          1853.40860	         7.04774e+57
          1854.21490	         7.18416e+57
          1855.02120	         6.14624e+57
          1855.82750	         4.39224e+57
          1856.63380	         6.37463e+57
          1857.44010	         8.44164e+57
          1858.24640	         6.89097e+57
          1859.05270	         6.99020e+57
          1859.85900	         5.93936e+57
          1860.66530	         5.61204e+57
          1861.47160	         6.68212e+57
          1862.27790	         7.57226e+57
          1863.08420	         8.14117e+57
          1863.89050	         8.01106e+57
          1864.69680	         7.11132e+57
          1865.50310	         6.72603e+57
          1866.30940	         6.16965e+57
          1867.11570	         6.72654e+57
          1867.92200	         7.44495e+57
          1868.72830	         8.03314e+57
          1869.53460	         7.30799e+57
          1870.34090	         7.45787e+57
          1871.14720	         8.42288e+57
          1871.95350	         7.53729e+57
          1872.75980	         7.09741e+57
          1873.56610	         7.03646e+57
          1874.37240	         6.53618e+57
          1875.17870	         6.05101e+57
          1875.98500	         7.24944e+57
          1876.79130	         7.58400e+57
          1877.59760	         6.58444e+57
          1878.40390	         6.23031e+57
          1879.21020	         5.67490e+57
          1880.01650	         6.13716e+57
          1880.82280	         8.19862e+57
          1881.62910	         9.33623e+57
          1882.43540	         1.00808e+58
          1883.24170	         8.23775e+57
          1884.04800	         6.75053e+57
          1884.85430	         7.47227e+57
          1885.66060	         7.53233e+57
          1886.46690	         8.12401e+57
          1887.27320	         7.02394e+57
          1888.07950	         5.46416e+57
          1888.88580	         6.21834e+57
          1889.69210	         8.81820e+57
          1890.49840	         8.86258e+57
          1891.30470	         7.80073e+57
          1892.11100	         8.24188e+57
          1892.91730	         7.76788e+57
          1893.72360	         8.10309e+57
          1894.52990	         7.07903e+57
          1895.33620	         8.17278e+57
          1896.14250	         6.50818e+57
          1896.94880	         6.18490e+57
          1897.75510	         6.32271e+57
          1898.56140	         6.83989e+57
          1899.36770	         8.49570e+57
          1900.17400	         6.98300e+57
          1900.98030	         5.89074e+57
          1901.78660	         6.52445e+57
          1902.59290	         7.42669e+57
          1903.39920	         9.22690e+57
          1904.20550	         9.44235e+57
          1905.01180	         8.62313e+57
          1905.81810	         9.54703e+57
          1906.62440	         1.20301e+58
          1907.43070	         1.48167e+58
          1908.23700	         1.59914e+58
          1909.04330	         1.34255e+58
          1909.84960	         1.11663e+58
          1910.65590	         9.30620e+57
          1911.46220	         8.27141e+57
          1912.26850	         7.28345e+57
          1913.07480	         5.90106e+57
          1913.88110	         5.93851e+57
          1914.68740	         5.87395e+57
          1915.49370	         5.44054e+57
          1916.30000	         6.41055e+57
          1917.10630	         6.72591e+57
          1917.91260	         6.65324e+57
          1918.71890	         6.64438e+57
          1919.52520	         6.24159e+57
          1920.33150	         5.50588e+57
          1921.13780	         6.10825e+57
          1921.94410	         8.26882e+57
          1922.75040	         8.31623e+57
          1923.55670	         7.80591e+57
          1924.36300	         6.78696e+57
          1925.16930	         6.42064e+57
          1925.97560	         6.33706e+57
          1926.78190	         5.31366e+57
          1927.58820	         7.41165e+57
          1928.39450	         7.71995e+57
          1929.20080	         5.89619e+57
          1930.00710	         7.01244e+57
          1930.81340	         8.26657e+57
          1931.61970	         7.82576e+57
          1932.42600	         7.69609e+57
          1933.23230	         7.47199e+57
          1934.03860	         7.11624e+57
          1934.84490	         5.05453e+57
          1935.65120	         7.01798e+57
          1936.45750	         7.98360e+57
          1937.26380	         7.51531e+57
          1938.07010	         7.48698e+57
          1938.87640	         7.85276e+57
          1939.68270	         7.54239e+57
          1940.48900	         8.82751e+57
          1941.29530	         8.52194e+57
          1942.10160	         7.28116e+57
          1942.90790	         5.76354e+57
          1943.71420	         5.89725e+57
          1944.52050	         5.97170e+57
          1945.32680	         5.22748e+57
          1946.13310	         6.94135e+57
          1946.93940	         8.23214e+57
          1947.74570	         7.39659e+57
          1948.55200	         6.14915e+57
          1949.35830	         7.47831e+57
          1950.16460	         7.12584e+57
          1950.97090	         6.35194e+57
          1951.77720	         7.59518e+57
          1952.58350	         9.03338e+57
          1953.38980	         7.17673e+57
          1954.19610	         4.97635e+57
          1955.00240	         5.72276e+57
          1955.80870	         5.99392e+57
          1956.61500	         5.90171e+57
          1957.42130	         6.42807e+57
          1958.22760	         6.02002e+57
          1959.03390	         7.35018e+57
          1959.84020	         8.15019e+57
          1960.64650	         7.12476e+57
          1961.45280	         6.24051e+57
          1962.25910	         6.10439e+57
          1963.06540	         6.85675e+57
          1963.87170	         6.85065e+57
          1964.67800	         7.47501e+57
          1965.48430	         6.40168e+57
          1966.29060	         5.26745e+57
          1967.09690	         7.66598e+57
          1967.90320	         7.59641e+57
          1968.70950	         7.12267e+57
          1969.51580	         6.11670e+57
          1970.32210	         7.48778e+57
          1971.12840	         7.20559e+57
          1971.93470	         4.49154e+57
          1972.74100	         5.38833e+57
          1973.54730	         7.17956e+57
          1974.35360	         7.47558e+57
          1975.15990	         7.86835e+57
          1975.96620	         7.20206e+57
          1976.77250	         7.88399e+57
          1977.57880	         7.19663e+57
          1978.38510	         5.89325e+57
          1979.19140	         7.76667e+57
          1979.99770	         9.08316e+57
          1980.80400	         7.47640e+57
          1981.61030	         6.29131e+57
          1982.41660	         6.10310e+57
          1983.22290	         7.10969e+57
          1984.02920	         6.27091e+57
          1984.83550	         5.18207e+57
          1985.64180	         5.39614e+57
          1986.44810	         6.73714e+57
          1987.25440	         6.08340e+57
          1988.06070	         5.49423e+57
          1988.86700	         5.78795e+57
          1989.67330	         6.31226e+57
          1990.47960	         6.34980e+57
          1991.28590	         5.99147e+57
          1992.09220	         5.56245e+57
          1992.89850	         5.17776e+57
          1993.70480	         5.76867e+57
          1994.51110	         5.15276e+57
          1995.31740	         4.86382e+57
          1996.12370	         5.11970e+57
          1996.93000	         6.01882e+57
          1997.73630	         7.70412e+57
          1998.54260	         8.03679e+57
          1999.34890	         7.66759e+57
          2000.15520	         7.17784e+57
          2000.96150	         5.97524e+57
          2001.76780	         6.88111e+57
          2002.57410	         5.04188e+57
          2003.38040	         5.19517e+57
          2004.18670	         6.18114e+57
          2004.99300	         5.40776e+57
          2005.79930	         6.55668e+57
          2006.60560	         6.80833e+57
          2007.41190	         6.31555e+57
          2008.21820	         5.72390e+57
          2009.02450	         6.34586e+57
          2009.83080	         6.23463e+57
          2010.63710	         6.38783e+57
          2011.44340	         7.27312e+57
          2012.24970	         6.93047e+57
          2013.05600	         5.60577e+57
          2013.86230	         5.60785e+57
          2014.66860	         5.87719e+57
          2015.47490	         6.32600e+57
          2016.28120	         5.48005e+57
          2017.08750	         5.50608e+57
          2017.89380	         6.38607e+57
          2018.70010	         6.90283e+57
          2019.50640	         5.41632e+57
          2020.31270	         5.52048e+57
          2021.11900	         7.06107e+57
          2021.92530	         6.29110e+57
          2022.73160	         6.37582e+57
          2023.53790	         6.33418e+57
          2024.34420	         6.17321e+57
          2025.15050	         5.01726e+57
          2025.95680	         5.86042e+57
          2026.76310	         4.84778e+57
          2027.56940	         6.21931e+57
          2028.37570	         6.80063e+57
          2029.18200	         6.57547e+57
          2029.98830	         5.89009e+57
          2030.79460	         6.29371e+57
          2031.60090	         5.92317e+57
          2032.40720	         5.15517e+57
          2033.21350	         4.64224e+57
          2034.01980	         4.43741e+57
          2034.82610	         3.98116e+57
          2035.63240	         4.26671e+57
          2036.43870	         6.11734e+57
          2037.24500	         6.63042e+57
          2038.05130	         7.07187e+57
          2038.85760	         6.40748e+57
          2039.66390	         6.22559e+57
          2040.47020	         6.29833e+57
          2041.27650	         6.14962e+57
          2042.08280	         4.70799e+57
          2042.88910	         4.52895e+57
          2043.69540	         4.24889e+57
          2044.50170	         4.43487e+57
          2045.30800	         4.40731e+57
          2046.11430	         4.40692e+57
          2046.92060	         5.52739e+57
          2047.72690	         6.80707e+57
          2048.53320	         5.23691e+57
          2049.33950	         3.81522e+57
          2050.14580	         4.82803e+57
          2050.95210	         7.54626e+57
          2051.75840	         8.28264e+57
          2052.56470	         4.86042e+57
          2053.37100	         4.46004e+57
          2054.17730	         5.67206e+57
          2054.98360	         5.47064e+57
          2055.78990	         3.86792e+57
          2056.59620	         3.28552e+57
          2057.40250	         4.18210e+57
          2058.20880	         6.56367e+57
          2059.01510	         7.49007e+57
          2059.82140	         8.01098e+57
          2060.62770	         1.02267e+58
          2061.43400	         1.56823e+58
          2062.24030	         1.16410e+58
          2063.04660	         5.59925e+57
          2063.85290	         4.08546e+57
          2064.65920	        -2.87954e+57
          2065.46550	        -7.09292e+57
          2066.27180	        -8.33309e+57
          2067.07810	         2.25176e+57
          2067.88440	         4.67568e+57
          2068.69070	         5.79798e+57
          2069.49700	         5.99662e+57
          2070.30330	         3.91817e+57
          2071.10960	         7.20030e+57
          2071.91590	         5.89775e+57
          2072.72220	         3.91044e+57
          2073.52850	         5.20320e+57
          2074.33480	         4.74089e+57
          2075.14110	         5.24190e+57
          2075.94740	         5.42255e+57
          2076.75370	         4.77189e+57
          2077.56000	         5.10517e+57
          2078.36630	         5.32551e+57
          2079.17260	         5.65800e+57
          2079.97890	         6.08496e+57
          2080.78520	         6.33616e+57
          2081.59150	         6.23626e+57
          2082.39780	         4.19427e+57
          2083.20410	         2.59238e+57
          2084.01040	         2.40039e+57
          2084.81670	         4.18867e+57
          2085.62300	         3.68818e+57
          2086.42930	         3.05902e+57
          2087.23560	         2.31641e+57
          2088.04190	         3.51846e+57
          2088.84820	         3.74872e+57
          2089.65450	         4.11145e+57
          2090.46080	         1.62920e+57
          2091.26710	         2.78934e+57
          2092.07340	         3.74206e+57
          2092.87970	         3.06485e+57
          2093.68600	        -8.21223e+56
          2094.49230	        -2.21343e+56
          2095.29860	         4.73859e+57
          2096.10490	         8.70528e+56
          2096.91120	         5.40343e+56
          2097.71750	         1.82162e+57
          2098.52380	         9.40080e+56
          2099.33010	         1.99690e+57
          2100.13640	         1.69917e+57
          2100.94270	         1.34042e+57
          2101.74900	         2.72631e+57
          2102.55530	         2.84727e+57
          2103.36160	         3.02615e+57
          2104.16790	         4.14874e+57
          2104.97420	         2.67246e+57
          2105.78050	        -7.91150e+56
          2106.58680	        -1.51582e+57
          2107.39310	        -1.00299e+57
          2108.19940	         3.04743e+57
          2109.00570	        -1.17559e+57
          2109.81200	        -1.34577e+57
          2110.61830	         1.88491e+57
          2111.42460	         1.07083e+57
          2112.23090	         3.03380e+57
          2113.03720	         6.61583e+56
          2113.84350	        -9.66336e+56
          2114.64980	         1.37123e+57
          2115.45610	        -4.38132e+57
          2116.26240	        -5.67880e+57
          2117.06870	         1.05346e+56
          2117.87500	        -2.33193e+57
          2118.68130	        -2.10364e+57
          2119.48760	         2.62918e+57
          2120.29390	         2.39111e+57
          2121.10020	        -4.11069e+57
          2121.90650	        -1.47557e+57
          2122.71280	        -9.78386e+56
          2123.51910	         3.81229e+57
          2124.32540	         2.74507e+57
          2125.13170	         1.44248e+57
          2125.93800	         4.43328e+57
          2126.74430	        -3.18918e+56
          2127.55060	        -8.53524e+57
          2128.35690	        -7.39780e+57
          2129.16320	         3.25859e+56
          2129.96950	         1.68450e+57
          2130.77580	        -7.22863e+56
          2131.58210	        -3.16619e+57
          2132.38840	        -4.43568e+57
          2133.19470	         5.15526e+57
          2134.00100	         4.02180e+57
          2134.80730	        -6.35288e+57
          2135.61360	         9.06182e+56
          2136.41990	         6.78451e+57
          2137.22620	        -4.70799e+57
          2138.03250	         8.20548e+56
          2138.83880	        -4.74671e+57
          2139.64510	        -4.38651e+57
          2140.45140	        -1.07854e+57
          2141.25770	        -9.00433e+57
          2142.06400	         7.66702e+56
          2142.87030	         2.30305e+57
          2143.67660	         1.25985e+58
          2144.48290	         1.83583e+58
          2145.28920	         1.70059e+58
          2146.09550	        -6.77532e+57
          2146.90180	        -4.01031e+57
          2147.70810	        -9.57936e+57
          2148.51440	        -1.28796e+57
          2149.32070	        -1.35139e+58
          2150.12700	        -1.46919e+58
          2150.93330	        -4.46248e+57
          2151.73960	        -1.04594e+57
          2152.54590	        -5.06805e+57
          2153.35220	         1.00460e+57
          2154.15850	        -7.00856e+57
          2154.96480	         3.78368e+57
          2155.77110	        -8.22731e+57
          2156.57740	        -7.63334e+57
          2157.38370	        -1.36235e+58
          2158.19000	        -6.30640e+56
          2158.99630	         5.23138e+57
          2159.80260	         6.41911e+56
          2160.60890	        -4.36400e+57
          2161.41520	         3.32082e+56
          2162.22150	        -3.23834e+57
          2163.02780	        -2.24276e+57
          2163.83410	        -1.60556e+57
          2164.64040	        -8.80211e+57
          2165.44670	        -8.69347e+57
          2166.25300	        -7.88377e+57
          2167.05930	        -2.17352e+57
          2167.86560	        -1.41580e+58
          2168.67190	        -1.07681e+58
          2169.47820	        -2.08265e+58
          2170.28450	        -1.53764e+58
          2171.09080	         8.06664e+56
          2171.89710	        -4.46995e+57
          2172.70340	        -1.29501e+56
          2173.50970	        -8.18109e+57
          2174.31600	        -7.90453e+57
          2175.12230	        -2.13749e+57
          2175.92860	        -4.32118e+57
          2176.73490	        -3.38633e+57
          2177.54120	        -5.85529e+57
          2178.34750	        -4.20818e+57
          2179.15380	                 nan
          2179.96010	                 nan
          2180.76640	                 nan
          2181.57270	                 nan
          2182.37900	                 nan
          2183.18530	                 nan
          2183.99160	                 nan
          2184.79790	                 nan
          2185.60420	                 nan
          2186.41050	                 nan
          2187.21680	                 nan
          2188.02310	                 nan
          2188.82940	                 nan
          2189.63570	                 nan
          2190.44200	                 nan
          2191.24830	                 nan
          2192.05460	                 nan
          2192.86090	                 nan
          2193.66720	                 nan
          2194.47350	                 nan
          2195.27980	                 nan
          2196.08610	                 nan
          2196.89240	                 nan
          2197.69870	                 nan
          2198.50500	                 nan
          2199.31130	                 nan
          2200.11760	                 nan
          2200.92390	                 nan
          2201.73020	                 nan
          2202.53650	                 nan
          2203.34280	                 nan
          2204.14910	                 nan
          2204.95540	                 nan
          2205.76170	                 nan
          2206.56800	                 nan
          2207.37430	                 nan
          2208.18060	                 nan
          2208.98690	                 nan
          2209.79320	                 nan
          2210.59950	                 nan
          2211.40580	                 nan
          2212.21210	                 nan
          2213.01840	                 nan
          2213.82470	                 nan
          2214.63100	                 nan
          2215.43730	         0.00000e+00
