#sample_265_stacked_spectrum_rest_UV-bands_median_H-alpha_noDC.txt
#median Lum: 1.72714e+42
#Rest-frame wavelength (A) | Luminosity (erg/s/A)
#
          1110.00000	         0.00000e+00
          1110.80630	         3.98977e+59
          1111.61260	         2.95183e+59
          1112.41890	        -7.63771e+58
          1113.22520	         1.83236e+59
          1114.03150	        -1.14982e+58
          1114.83780	         2.22356e+59
          1115.64410	         2.31366e+58
          1116.45040	         5.27670e+57
          1117.25670	        -4.45342e+58
          1118.06300	         2.49642e+58
          1118.86930	         1.24103e+59
          1119.67560	         2.07958e+59
          1120.48190	         4.75692e+58
          1121.28820	        -7.24425e+58
          1122.09450	         1.00523e+59
          1122.90080	         9.95799e+58
          1123.70710	        -5.59901e+58
          1124.51340	         5.75735e+58
          1125.31970	        -2.65056e+58
          1126.12600	        -2.15137e+58
          1126.93230	        -1.40674e+57
          1127.73860	        -5.65422e+58
          1128.54490	        -9.70848e+57
          1129.35120	         2.20539e+58
          1130.15750	        -3.18299e+58
          1130.96380	         6.21653e+57
          1131.77010	         4.24513e+58
          1132.57640	         2.71829e+58
          1133.38270	         3.35350e+58
          1134.18900	         3.39385e+58
          1134.99530	         1.67139e+55
          1135.80160	         1.21782e+57
          1136.60790	        -2.09112e+57
          1137.41420	         1.82265e+57
          1138.22050	         3.07358e+58
          1139.02680	         6.77229e+57
          1139.83310	         8.15140e+57
          1140.63940	         1.87439e+58
          1141.44570	         3.89956e+56
          1142.25200	         1.48501e+58
          1143.05830	         1.03879e+58
          1143.86460	         1.28799e+58
          1144.67090	         8.69452e+57
          1145.47720	         8.46889e+57
          1146.28350	         1.78888e+58
          1147.08980	         1.27667e+58
          1147.89610	         6.20887e+57
          1148.70240	         1.42943e+58
          1149.50870	         2.44939e+58
          1150.31500	         4.15214e+57
          1151.12130	         1.24421e+58
          1151.92760	         1.41179e+58
          1152.73390	         8.16120e+57
          1153.54020	         1.10158e+58
          1154.34650	         3.06543e+58
          1155.15280	         2.52847e+58
          1155.95910	         5.54610e+57
          1156.76540	         4.30160e+57
          1157.57170	        -4.82147e+57
          1158.37800	         1.46302e+57
          1159.18430	        -6.94832e+57
          1159.99060	         1.81570e+57
          1160.79690	         4.15934e+56
          1161.60320	         7.22610e+57
          1162.40950	         1.97688e+58
          1163.21580	         2.27303e+58
          1164.02210	         1.12663e+58
          1164.82840	         8.53596e+57
          1165.63470	         1.73647e+58
          1166.44100	         2.99402e+58
          1167.24730	         1.86367e+58
          1168.05360	         1.12678e+58
          1168.85990	         7.93193e+57
          1169.66620	         1.11254e+58
          1170.47250	         2.29005e+57
          1171.27880	        -2.13117e+57
          1172.08510	         9.91883e+57
          1172.89140	         1.07677e+58
          1173.69770	         1.06337e+58
          1174.50400	         1.42030e+58
          1175.31030	         1.48552e+58
          1176.11660	         1.59491e+58
          1176.92290	         1.14556e+58
          1177.72920	         1.52549e+58
          1178.53550	         8.74573e+57
          1179.34180	         2.07518e+57
          1180.14810	         1.74410e+57
          1180.95440	         4.10334e+57
          1181.76070	         3.98043e+57
          1182.56700	         5.08179e+57
          1183.37330	         6.00907e+57
          1184.17960	         1.11569e+58
          1184.98590	         1.33869e+58
          1185.79220	         9.16396e+57
          1186.59850	         1.23229e+58
          1187.40480	         1.02764e+58
          1188.21110	         8.42483e+57
          1189.01740	         1.09649e+58
          1189.82370	         1.28826e+58
          1190.63000	         1.35112e+58
          1191.43630	         1.37507e+58
          1192.24260	         1.18742e+58
          1193.04890	         9.62315e+57
          1193.85520	         8.08972e+57
          1194.66150	         8.15688e+57
          1195.46780	         1.22905e+58
          1196.27410	         1.63433e+58
          1197.08040	         1.36436e+58
          1197.88670	         1.55784e+58
          1198.69300	         1.45844e+58
          1199.49930	         1.69436e+58
          1200.30560	         1.01994e+58
          1201.11190	         5.55409e+57
          1201.91820	         6.53982e+57
          1202.72450	         4.89754e+57
          1203.53080	         1.36982e+58
          1204.33710	         9.34644e+57
          1205.14340	         9.07858e+57
          1205.94970	         1.10083e+58
          1206.75600	         9.34440e+57
          1207.56230	         3.99184e+57
          1208.36860	         7.97506e+57
          1209.17490	         5.32480e+57
          1209.98120	         1.00619e+58
          1210.78750	         1.06227e+58
          1211.59380	         1.07656e+58
          1212.40010	         1.83356e+58
          1213.20640	         2.14610e+58
          1214.01270	         2.01908e+58
          1214.81900	         2.37117e+58
          1215.62530	         4.58954e+58
          1216.43160	         9.11982e+58
          1217.23790	         1.51473e+59
          1218.04420	         1.15800e+59
          1218.85050	         8.61206e+58
          1219.65680	         5.86993e+58
          1220.46310	         3.41578e+58
          1221.26940	         2.15404e+58
          1222.07570	         1.29107e+58
          1222.88200	         1.21171e+58
          1223.68830	         1.18040e+58
          1224.49460	         9.88141e+57
          1225.30090	         8.71079e+57
          1226.10720	         1.02404e+58
          1226.91350	         9.39122e+57
          1227.71980	         1.33020e+58
          1228.52610	         1.39324e+58
          1229.33240	         7.94701e+57
          1230.13870	         8.13734e+57
          1230.94500	         8.06767e+57
          1231.75130	         6.17666e+57
          1232.55760	         8.17615e+57
          1233.36390	         8.97189e+57
          1234.17020	         9.18992e+57
          1234.97650	         7.85661e+57
          1235.78280	         6.13778e+57
          1236.58910	         7.09968e+57
          1237.39540	         8.34507e+57
          1238.20170	         1.02526e+58
          1239.00800	         1.39698e+58
          1239.81430	         1.73900e+58
          1240.62060	         1.44392e+58
          1241.42690	         1.04795e+58
          1242.23320	         9.70058e+57
          1243.03950	         7.40645e+57
          1243.84580	         5.69013e+57
          1244.65210	         8.25247e+57
          1245.45840	         1.09078e+58
          1246.26470	         1.17960e+58
          1247.07100	         1.22181e+58
          1247.87730	         8.63262e+57
          1248.68360	         7.57984e+57
          1249.48990	         1.18442e+58
          1250.29620	         1.07552e+58
          1251.10250	         5.93080e+57
          1251.90880	         4.88390e+57
          1252.71510	         5.17354e+57
          1253.52140	         5.63636e+57
          1254.32770	         9.64985e+57
          1255.13400	         1.54303e+58
          1255.94030	         1.12390e+58
          1256.74660	         9.14311e+57
          1257.55290	         1.05256e+58
          1258.35920	         7.50165e+57
          1259.16550	         6.52152e+57
          1259.97180	         5.41785e+57
          1260.77810	         7.43249e+57
          1261.58440	         1.03105e+58
          1262.39070	         8.29160e+57
          1263.19700	         8.52549e+57
          1264.00330	         7.43683e+57
          1264.80960	         1.04257e+58
          1265.61590	         1.19604e+58
          1266.42220	         1.02046e+58
          1267.22850	         1.02778e+58
          1268.03480	         1.47793e+58
          1268.84110	         1.61034e+58
          1269.64740	         1.40913e+58
          1270.45370	         1.31919e+58
          1271.26000	         1.17054e+58
          1272.06630	         1.17152e+58
          1272.87260	         1.25639e+58
          1273.67890	         1.25170e+58
          1274.48520	         1.37996e+58
          1275.29150	         1.30695e+58
          1276.09780	         1.01140e+58
          1276.90410	         1.34104e+58
          1277.71040	         1.19800e+58
          1278.51670	         1.00508e+58
          1279.32300	         1.32423e+58
          1280.12930	         1.44357e+58
          1280.93560	         1.11040e+58
          1281.74190	         1.01725e+58
          1282.54820	         1.38408e+58
          1283.35450	         1.27721e+58
          1284.16080	         1.17885e+58
          1284.96710	         1.27077e+58
          1285.77340	         1.09903e+58
          1286.57970	         1.03135e+58
          1287.38600	         1.41579e+58
          1288.19230	         1.80252e+58
          1288.99860	         1.69194e+58
          1289.80490	         1.24403e+58
          1290.61120	         1.43937e+58
          1291.41750	         1.50302e+58
          1292.22380	         1.17081e+58
          1293.03010	         9.51868e+57
          1293.83640	         1.31301e+58
          1294.64270	         1.09823e+58
          1295.44900	         6.79991e+57
          1296.25530	         6.97145e+57
          1297.06160	         9.20687e+57
          1297.86790	         1.09959e+58
          1298.67420	         9.83490e+57
          1299.48050	         9.74276e+57
          1300.28680	         8.32238e+57
          1301.09310	         6.78742e+57
          1301.89940	         5.46925e+57
          1302.70570	         7.17238e+57
          1303.51200	         8.86068e+57
          1304.31830	         1.10006e+58
          1305.12460	         1.18718e+58
          1305.93090	         1.12017e+58
          1306.73720	         1.28225e+58
          1307.54350	         1.43911e+58
          1308.34980	         1.39583e+58
          1309.15610	         1.49932e+58
          1309.96240	         1.55360e+58
          1310.76870	         1.41304e+58
          1311.57500	         1.11783e+58
          1312.38130	         1.05478e+58
          1313.18760	         1.35262e+58
          1313.99390	         1.57522e+58
          1314.80020	         1.79384e+58
          1315.60650	         1.49844e+58
          1316.41280	         1.14682e+58
          1317.21910	         1.02434e+58
          1318.02540	         1.13799e+58
          1318.83170	         1.18543e+58
          1319.63800	         1.23829e+58
          1320.44430	         1.27100e+58
          1321.25060	         1.27742e+58
          1322.05690	         1.29298e+58
          1322.86320	         1.24508e+58
          1323.66950	         1.24515e+58
          1324.47580	         1.04195e+58
          1325.28210	         9.37239e+57
          1326.08840	         1.08866e+58
          1326.89470	         1.26898e+58
          1327.70100	         9.15711e+57
          1328.50730	         5.18849e+57
          1329.31360	         8.42029e+57
          1330.11990	         1.01315e+58
          1330.92620	         9.17218e+57
          1331.73250	         1.02731e+58
          1332.53880	         1.09725e+58
          1333.34510	         9.86957e+57
          1334.15140	         9.12902e+57
          1334.95770	         8.00528e+57
          1335.76400	         9.91191e+57
          1336.57030	         1.09082e+58
          1337.37660	         1.04730e+58
          1338.18290	         9.67302e+57
          1338.98920	         1.00697e+58
          1339.79550	         1.21439e+58
          1340.60180	         1.24781e+58
          1341.40810	         1.32920e+58
          1342.21440	         1.34874e+58
          1343.02070	         1.21090e+58
          1343.82700	         1.29348e+58
          1344.63330	         1.36701e+58
          1345.43960	         1.32684e+58
          1346.24590	         1.03091e+58
          1347.05220	         1.08000e+58
          1347.85850	         1.02603e+58
          1348.66480	         1.12150e+58
          1349.47110	         1.30220e+58
          1350.27740	         1.32486e+58
          1351.08370	         1.12242e+58
          1351.89000	         1.00998e+58
          1352.69630	         1.05644e+58
          1353.50260	         1.08203e+58
          1354.30890	         1.08444e+58
          1355.11520	         1.22014e+58
          1355.92150	         1.18298e+58
          1356.72780	         1.03480e+58
          1357.53410	         1.01034e+58
          1358.34040	         1.02147e+58
          1359.14670	         9.45408e+57
          1359.95300	         1.01946e+58
          1360.75930	         1.13731e+58
          1361.56560	         1.13174e+58
          1362.37190	         1.14281e+58
          1363.17820	         1.11821e+58
          1363.98450	         1.17080e+58
          1364.79080	         1.25390e+58
          1365.59710	         1.15788e+58
          1366.40340	         1.09123e+58
          1367.20970	         1.09980e+58
          1368.01600	         1.02710e+58
          1368.82230	         8.48539e+57
          1369.62860	         9.48890e+57
          1370.43490	         1.02581e+58
          1371.24120	         9.70455e+57
          1372.04750	         9.60642e+57
          1372.85380	         1.14729e+58
          1373.66010	         1.12881e+58
          1374.46640	         1.03082e+58
          1375.27270	         1.07523e+58
          1376.07900	         9.36839e+57
          1376.88530	         7.81804e+57
          1377.69160	         8.28614e+57
          1378.49790	         7.43155e+57
          1379.30420	         8.33275e+57
          1380.11050	         8.92176e+57
          1380.91680	         7.54130e+57
          1381.72310	         8.42406e+57
          1382.52940	         7.59592e+57
          1383.33570	         6.18097e+57
          1384.14200	         8.68422e+57
          1384.94830	         1.10730e+58
          1385.75460	         1.01269e+58
          1386.56090	         1.16421e+58
          1387.36720	         1.24725e+58
          1388.17350	         1.20795e+58
          1388.97980	         1.06018e+58
          1389.78610	         8.82895e+57
          1390.59240	         7.38529e+57
          1391.39870	         8.11388e+57
          1392.20500	         9.57767e+57
          1393.01130	         8.39216e+57
          1393.81760	         7.58644e+57
          1394.62390	         7.86253e+57
          1395.43020	         7.19193e+57
          1396.23650	         7.21604e+57
          1397.04280	         7.90122e+57
          1397.84910	         8.58076e+57
          1398.65540	         9.98665e+57
          1399.46170	         1.14847e+58
          1400.26800	         8.72774e+57
          1401.07430	         6.85343e+57
          1401.88060	         8.74868e+57
          1402.68690	         9.53031e+57
          1403.49320	         9.90658e+57
          1404.29950	         9.52860e+57
          1405.10580	         1.05608e+58
          1405.91210	         1.11319e+58
          1406.71840	         9.82519e+57
          1407.52470	         9.76270e+57
          1408.33100	         9.72977e+57
          1409.13730	         1.18171e+58
          1409.94360	         1.30776e+58
          1410.74990	         1.09786e+58
          1411.55620	         9.02666e+57
          1412.36250	         9.98251e+57
          1413.16880	         9.60612e+57
          1413.97510	         9.39465e+57
          1414.78140	         9.54879e+57
          1415.58770	         9.73974e+57
          1416.39400	         9.85468e+57
          1417.20030	         1.03923e+58
          1418.00660	         1.06638e+58
          1418.81290	         1.04402e+58
          1419.61920	         1.11838e+58
          1420.42550	         1.33251e+58
          1421.23180	         1.47120e+58
          1422.03810	         1.39804e+58
          1422.84440	         1.17604e+58
          1423.65070	         1.18491e+58
          1424.45700	         1.18261e+58
          1425.26330	         9.06923e+57
          1426.06960	         8.13035e+57
          1426.87590	         9.65548e+57
          1427.68220	         9.38363e+57
          1428.48850	         1.07240e+58
          1429.29480	         1.02208e+58
          1430.10110	         9.10045e+57
          1430.90740	         8.27724e+57
          1431.71370	         8.08252e+57
          1432.52000	         8.50738e+57
          1433.32630	         8.21969e+57
          1434.13260	         7.99711e+57
          1434.93890	         7.78257e+57
          1435.74520	         9.11709e+57
          1436.55150	         9.38915e+57
          1437.35780	         9.23858e+57
          1438.16410	         8.96561e+57
          1438.97040	         9.68867e+57
          1439.77670	         1.02024e+58
          1440.58300	         9.90603e+57
          1441.38930	         9.43281e+57
          1442.19560	         9.66567e+57
          1443.00190	         1.03165e+58
          1443.80820	         1.15666e+58
          1444.61450	         9.57570e+57
          1445.42080	         8.57888e+57
          1446.22710	         1.12711e+58
          1447.03340	         9.26426e+57
          1447.83970	         9.34459e+57
          1448.64600	         9.75023e+57
          1449.45230	         9.21703e+57
          1450.25860	         1.05429e+58
          1451.06490	         9.00971e+57
          1451.87120	         7.53983e+57
          1452.67750	         7.16367e+57
          1453.48380	         8.71752e+57
          1454.29010	         8.37217e+57
          1455.09640	         7.32303e+57
          1455.90270	         7.81639e+57
          1456.70900	         7.54611e+57
          1457.51530	         9.48104e+57
          1458.32160	         1.20155e+58
          1459.12790	         1.28026e+58
          1459.93420	         1.11802e+58
          1460.74050	         8.93041e+57
          1461.54680	         8.07359e+57
          1462.35310	         7.65647e+57
          1463.15940	         8.70090e+57
          1463.96570	         1.10265e+58
          1464.77200	         1.11690e+58
          1465.57830	         1.02735e+58
          1466.38460	         8.97425e+57
          1467.19090	         7.43866e+57
          1467.99720	         8.08120e+57
          1468.80350	         9.04616e+57
          1469.60980	         9.77259e+57
          1470.41610	         1.04471e+58
          1471.22240	         9.97591e+57
          1472.02870	         1.02057e+58
          1472.83500	         9.52182e+57
          1473.64130	         8.98833e+57
          1474.44760	         1.00848e+58
          1475.25390	         8.63942e+57
          1476.06020	         8.72929e+57
          1476.86650	         8.98262e+57
          1477.67280	         8.45594e+57
          1478.47910	         7.44812e+57
          1479.28540	         6.78653e+57
          1480.09170	         7.42199e+57
          1480.89800	         8.62702e+57
          1481.70430	         8.50322e+57
          1482.51060	         8.16503e+57
          1483.31690	         8.48566e+57
          1484.12320	         7.96426e+57
          1484.92950	         7.31556e+57
          1485.73580	         8.88718e+57
          1486.54210	         9.30154e+57
          1487.34840	         8.56031e+57
          1488.15470	         8.13488e+57
          1488.96100	         8.53101e+57
          1489.76730	         9.23157e+57
          1490.57360	         9.32731e+57
          1491.37990	         7.90135e+57
          1492.18620	         8.50239e+57
          1492.99250	         8.23225e+57
          1493.79880	         8.59515e+57
          1494.60510	         9.82366e+57
          1495.41140	         8.87654e+57
          1496.21770	         8.39888e+57
          1497.02400	         1.00943e+58
          1497.83030	         8.76482e+57
          1498.63660	         7.07885e+57
          1499.44290	         6.53423e+57
          1500.24920	         6.51022e+57
          1501.05550	         7.64843e+57
          1501.86180	         8.67916e+57
          1502.66810	         8.71864e+57
          1503.47440	         7.97322e+57
          1504.28070	         7.85513e+57
          1505.08700	         9.41190e+57
          1505.89330	         9.26969e+57
          1506.69960	         8.43175e+57
          1507.50590	         8.31743e+57
          1508.31220	         9.33098e+57
          1509.11850	         9.32015e+57
          1509.92480	         9.41816e+57
          1510.73110	         8.59048e+57
          1511.53740	         7.17075e+57
          1512.34370	         7.57668e+57
          1513.15000	         8.26246e+57
          1513.95630	         9.09025e+57
          1514.76260	         8.35353e+57
          1515.56890	         8.06417e+57
          1516.37520	         9.43993e+57
          1517.18150	         9.34120e+57
          1517.98780	         7.76183e+57
          1518.79410	         6.60148e+57
          1519.60040	         7.17278e+57
          1520.40670	         9.12008e+57
          1521.21300	         9.68287e+57
          1522.01930	         8.60761e+57
          1522.82560	         9.33945e+57
          1523.63190	         1.12038e+58
          1524.43820	         9.30732e+57
          1525.24450	         6.16877e+57
          1526.05080	         5.82083e+57
          1526.85710	         5.67732e+57
          1527.66340	         5.90674e+57
          1528.46970	         7.41832e+57
          1529.27600	         7.59533e+57
          1530.08230	         7.63895e+57
          1530.88860	         7.51434e+57
          1531.69490	         8.03366e+57
          1532.50120	         9.12218e+57
          1533.30750	         9.77642e+57
          1534.11380	         9.54390e+57
          1534.92010	         7.95355e+57
          1535.72640	         8.97475e+57
          1536.53270	         1.05945e+58
          1537.33900	         9.22892e+57
          1538.14530	         8.79770e+57
          1538.95160	         9.11142e+57
          1539.75790	         8.81887e+57
          1540.56420	         8.27651e+57
          1541.37050	         6.76478e+57
          1542.17680	         5.61205e+57
          1542.98310	         5.88279e+57
          1543.78940	         6.79579e+57
          1544.59570	         6.87135e+57
          1545.40200	         8.67773e+57
          1546.20830	         1.02842e+58
          1547.01460	         9.66719e+57
          1547.82090	         1.16698e+58
          1548.62720	         1.17019e+58
          1549.43350	         1.21269e+58
          1550.23980	         1.11307e+58
          1551.04610	         1.17465e+58
          1551.85240	         1.24867e+58
          1552.65870	         1.14095e+58
          1553.46500	         1.06130e+58
          1554.27130	         1.02059e+58
          1555.07760	         9.88481e+57
          1555.88390	         9.05883e+57
          1556.69020	         9.12516e+57
          1557.49650	         9.92995e+57
          1558.30280	         1.02047e+58
          1559.10910	         9.81143e+57
          1559.91540	         9.50282e+57
          1560.72170	         9.10051e+57
          1561.52800	         8.36958e+57
          1562.33430	         8.73340e+57
          1563.14060	         8.67068e+57
          1563.94690	         7.67990e+57
          1564.75320	         7.96209e+57
          1565.55950	         6.93388e+57
          1566.36580	         7.15659e+57
          1567.17210	         9.34200e+57
          1567.97840	         9.03118e+57
          1568.78470	         8.56241e+57
          1569.59100	         9.13070e+57
          1570.39730	         8.79114e+57
          1571.20360	         7.28178e+57
          1572.00990	         7.60789e+57
          1572.81620	         9.41591e+57
          1573.62250	         1.06454e+58
          1574.42880	         8.59012e+57
          1575.23510	         7.25679e+57
          1576.04140	         7.69349e+57
          1576.84770	         9.48380e+57
          1577.65400	         9.46775e+57
          1578.46030	         9.13855e+57
          1579.26660	         9.96412e+57
          1580.07290	         9.33219e+57
          1580.87920	         7.91376e+57
          1581.68550	         7.99261e+57
          1582.49180	         8.40676e+57
          1583.29810	         8.25349e+57
          1584.10440	         8.50076e+57
          1584.91070	         7.84559e+57
          1585.71700	         8.33186e+57
          1586.52330	         9.02840e+57
          1587.32960	         8.44041e+57
          1588.13590	         8.78301e+57
          1588.94220	         9.01405e+57
          1589.74850	         9.49756e+57
          1590.55480	         1.00475e+58
          1591.36110	         9.30575e+57
          1592.16740	         8.99875e+57
          1592.97370	         9.24052e+57
          1593.78000	         9.72468e+57
          1594.58630	         9.93097e+57
          1595.39260	         8.27884e+57
          1596.19890	         7.80876e+57
          1597.00520	         8.47674e+57
          1597.81150	         8.49699e+57
          1598.61780	         7.87139e+57
          1599.42410	         7.01607e+57
          1600.23040	         6.47873e+57
          1601.03670	         7.31739e+57
          1601.84300	         8.13068e+57
          1602.64930	         8.48935e+57
          1603.45560	         8.66367e+57
          1604.26190	         8.68078e+57
          1605.06820	         7.59408e+57
          1605.87450	         7.01399e+57
          1606.68080	         6.76762e+57
          1607.48710	         6.18654e+57
          1608.29340	         6.52700e+57
          1609.09970	         7.40824e+57
          1609.90600	         7.56323e+57
          1610.71230	         6.82154e+57
          1611.51860	         6.99164e+57
          1612.32490	         6.56202e+57
          1613.13120	         7.68488e+57
          1613.93750	         7.82867e+57
          1614.74380	         7.72405e+57
          1615.55010	         7.84260e+57
          1616.35640	         8.36618e+57
          1617.16270	         1.00861e+58
          1617.96900	         1.03671e+58
          1618.77530	         9.01663e+57
          1619.58160	         8.71006e+57
          1620.38790	         8.35275e+57
          1621.19420	         9.54104e+57
          1622.00050	         8.54344e+57
          1622.80680	         8.74000e+57
          1623.61310	         9.15302e+57
          1624.41940	         7.97886e+57
          1625.22570	         9.27125e+57
          1626.03200	         9.85410e+57
          1626.83830	         8.01698e+57
          1627.64460	         6.01802e+57
          1628.45090	         5.81660e+57
          1629.25720	         8.17769e+57
          1630.06350	         9.58353e+57
          1630.86980	         7.55350e+57
          1631.67610	         8.65393e+57
          1632.48240	         9.54317e+57
          1633.28870	         9.52711e+57
          1634.09500	         9.59343e+57
          1634.90130	         9.93332e+57
          1635.70760	         9.12061e+57
          1636.51390	         8.00068e+57
          1637.32020	         6.39515e+57
          1638.12650	         8.83442e+57
          1638.93280	         1.02119e+58
          1639.73910	         1.05614e+58
          1640.54540	         1.09111e+58
          1641.35170	         8.92354e+57
          1642.15800	         9.44061e+57
          1642.96430	         9.02929e+57
          1643.77060	         7.72454e+57
          1644.57690	         7.63927e+57
          1645.38320	         8.93572e+57
          1646.18950	         7.73163e+57
          1646.99580	         7.59763e+57
          1647.80210	         7.72856e+57
          1648.60840	         7.82462e+57
          1649.41470	         8.86653e+57
          1650.22100	         7.49344e+57
          1651.02730	         6.69839e+57
          1651.83360	         7.21389e+57
          1652.63990	         7.82706e+57
          1653.44620	         9.01454e+57
          1654.25250	         8.38214e+57
          1655.05880	         7.31749e+57
          1655.86510	         7.27699e+57
          1656.67140	         8.53322e+57
          1657.47770	         8.67193e+57
          1658.28400	         8.61361e+57
          1659.09030	         8.71601e+57
          1659.89660	         8.60860e+57
          1660.70290	         1.02359e+58
          1661.50920	         9.59870e+57
          1662.31550	         8.71640e+57
          1663.12180	         8.62246e+57
          1663.92810	         1.00632e+58
          1664.73440	         1.17131e+58
          1665.54070	         1.24296e+58
          1666.34700	         1.27409e+58
          1667.15330	         1.11512e+58
          1667.95960	         8.84046e+57
          1668.76590	         7.50430e+57
          1669.57220	         7.28152e+57
          1670.37850	         7.33796e+57
          1671.18480	         7.92296e+57
          1671.99110	         8.30048e+57
          1672.79740	         7.38040e+57
          1673.60370	         6.93225e+57
          1674.41000	         7.59061e+57
          1675.21630	         7.62098e+57
          1676.02260	         6.89058e+57
          1676.82890	         6.24754e+57
          1677.63520	         6.85591e+57
          1678.44150	         8.20328e+57
          1679.24780	         8.90196e+57
          1680.05410	         7.54903e+57
          1680.86040	         6.02196e+57
          1681.66670	         6.77917e+57
          1682.47300	         7.39561e+57
          1683.27930	         7.89062e+57
          1684.08560	         8.84370e+57
          1684.89190	         8.17540e+57
          1685.69820	         6.05701e+57
          1686.50450	         4.74751e+57
          1687.31080	         6.31027e+57
          1688.11710	         7.74300e+57
          1688.92340	         6.83785e+57
          1689.72970	         6.28107e+57
          1690.53600	         6.16615e+57
          1691.34230	         7.12343e+57
          1692.14860	         7.75689e+57
          1692.95490	         6.91605e+57
          1693.76120	         6.81350e+57
          1694.56750	         7.07462e+57
          1695.37380	         8.55691e+57
          1696.18010	         8.77561e+57
          1696.98640	         8.02964e+57
          1697.79270	         7.79481e+57
          1698.59900	         7.75890e+57
          1699.40530	         8.41703e+57
          1700.21160	         7.38020e+57
          1701.01790	         7.35887e+57
          1701.82420	         7.48577e+57
          1702.63050	         8.37058e+57
          1703.43680	         8.97580e+57
          1704.24310	         8.60014e+57
          1705.04940	         8.74511e+57
          1705.85570	         8.44743e+57
          1706.66200	         8.78804e+57
          1707.46830	         8.61967e+57
          1708.27460	         7.16797e+57
          1709.08090	         7.33466e+57
          1709.88720	         6.03442e+57
          1710.69350	         5.60564e+57
          1711.49980	         6.44467e+57
          1712.30610	         7.56910e+57
          1713.11240	         8.51580e+57
          1713.91870	         7.85236e+57
          1714.72500	         7.98570e+57
          1715.53130	         9.15548e+57
          1716.33760	         8.48178e+57
          1717.14390	         7.18852e+57
          1717.95020	         8.35290e+57
          1718.75650	         8.56443e+57
          1719.56280	         8.19765e+57
          1720.36910	         7.89982e+57
          1721.17540	         7.01874e+57
          1721.98170	         6.25930e+57
          1722.78800	         6.03724e+57
          1723.59430	         6.99240e+57
          1724.40060	         8.93671e+57
          1725.20690	         8.26166e+57
          1726.01320	         7.56055e+57
          1726.81950	         8.24553e+57
          1727.62580	         7.64007e+57
          1728.43210	         7.38363e+57
          1729.23840	         7.20901e+57
          1730.04470	         7.64416e+57
          1730.85100	         9.22132e+57
          1731.65730	         9.57483e+57
          1732.46360	         8.13992e+57
          1733.26990	         6.99608e+57
          1734.07620	         6.88486e+57
          1734.88250	         7.77960e+57
          1735.68880	         7.35816e+57
          1736.49510	         8.61917e+57
          1737.30140	         8.11810e+57
          1738.10770	         7.21287e+57
          1738.91400	         7.79639e+57
          1739.72030	         7.35998e+57
          1740.52660	         6.94424e+57
          1741.33290	         7.06322e+57
          1742.13920	         7.07738e+57
          1742.94550	         7.18564e+57
          1743.75180	         7.51169e+57
          1744.55810	         7.61595e+57
          1745.36440	         7.03371e+57
          1746.17070	         5.74385e+57
          1746.97700	         5.90658e+57
          1747.78330	         7.01384e+57
          1748.58960	         6.49289e+57
          1749.39590	         6.67623e+57
          1750.20220	         6.04567e+57
          1751.00850	         5.24153e+57
          1751.81480	         6.60537e+57
          1752.62110	         7.37215e+57
          1753.42740	         7.31322e+57
          1754.23370	         6.00522e+57
          1755.04000	         7.55089e+57
          1755.84630	         8.14910e+57
          1756.65260	         8.56775e+57
          1757.45890	         7.54333e+57
          1758.26520	         7.34356e+57
          1759.07150	         8.74324e+57
          1759.87780	         9.41199e+57
          1760.68410	         9.15536e+57
          1761.49040	         8.74217e+57
          1762.29670	         6.15187e+57
          1763.10300	         6.18071e+57
          1763.90930	         7.94701e+57
          1764.71560	         8.34453e+57
          1765.52190	         7.21250e+57
          1766.32820	         7.93275e+57
          1767.13450	         8.40756e+57
          1767.94080	         6.84749e+57
          1768.74710	         7.11751e+57
          1769.55340	         6.93096e+57
          1770.35970	         6.32766e+57
          1771.16600	         7.25463e+57
          1771.97230	         8.17386e+57
          1772.77860	         8.48055e+57
          1773.58490	         7.87934e+57
          1774.39120	         6.79709e+57
          1775.19750	         6.09913e+57
          1776.00380	         7.06779e+57
          1776.81010	         6.64945e+57
          1777.61640	         5.49275e+57
          1778.42270	         6.03657e+57
          1779.22900	         6.97673e+57
          1780.03530	         6.13412e+57
          1780.84160	         7.54422e+57
          1781.64790	         9.43282e+57
          1782.45420	         8.32419e+57
          1783.26050	         6.78049e+57
          1784.06680	         6.49957e+57
          1784.87310	         7.03340e+57
          1785.67940	         6.26860e+57
          1786.48570	         6.05895e+57
          1787.29200	         6.86736e+57
          1788.09830	         7.11829e+57
          1788.90460	         6.82160e+57
          1789.71090	         6.22932e+57
          1790.51720	         5.71593e+57
          1791.32350	         6.87348e+57
          1792.12980	         8.04773e+57
          1792.93610	         7.97275e+57
          1793.74240	         8.25287e+57
          1794.54870	         8.16412e+57
          1795.35500	         8.80977e+57
          1796.16130	         8.12553e+57
          1796.96760	         6.28173e+57
          1797.77390	         6.59731e+57
          1798.58020	         7.95477e+57
          1799.38650	         7.04629e+57
          1800.19280	         7.44188e+57
          1800.99910	         8.75219e+57
          1801.80540	         8.27053e+57
          1802.61170	         8.44872e+57
          1803.41800	         9.05701e+57
          1804.22430	         7.96651e+57
          1805.03060	         7.59120e+57
          1805.83690	         7.56147e+57
          1806.64320	         8.53754e+57
          1807.44950	         8.16685e+57
          1808.25580	         6.24152e+57
          1809.06210	         6.98248e+57
          1809.86840	         6.34696e+57
          1810.67470	         5.90081e+57
          1811.48100	         7.93279e+57
          1812.28730	         8.32639e+57
          1813.09360	         7.57461e+57
          1813.89990	         8.00048e+57
          1814.70620	         6.80728e+57
          1815.51250	         7.11761e+57
          1816.31880	         7.68315e+57
          1817.12510	         7.03216e+57
          1817.93140	         6.51094e+57
          1818.73770	         7.14120e+57
          1819.54400	         8.74118e+57
          1820.35030	         8.84762e+57
          1821.15660	         6.66992e+57
          1821.96290	         7.11530e+57
          1822.76920	         7.92372e+57
          1823.57550	         8.16452e+57
          1824.38180	         7.52754e+57
          1825.18810	         7.91943e+57
          1825.99440	         8.79760e+57
          1826.80070	         8.39945e+57
          1827.60700	         6.95231e+57
          1828.41330	         5.77312e+57
          1829.21960	         6.72882e+57
          1830.02590	         7.24108e+57
          1830.83220	         8.54742e+57
          1831.63850	         8.23377e+57
          1832.44480	         7.38165e+57
          1833.25110	         7.26282e+57
          1834.05740	         7.73701e+57
          1834.86370	         7.32483e+57
          1835.67000	         5.89158e+57
          1836.47630	         7.24495e+57
          1837.28260	         9.22751e+57
          1838.08890	         9.45670e+57
          1838.89520	         9.11034e+57
          1839.70150	         8.20148e+57
          1840.50780	         7.87905e+57
          1841.31410	         7.50655e+57
          1842.12040	         6.79276e+57
          1842.92670	         6.57016e+57
          1843.73300	         6.12325e+57
          1844.53930	         6.51544e+57
          1845.34560	         7.71583e+57
          1846.15190	         7.81306e+57
          1846.95820	         7.60313e+57
          1847.76450	         7.31232e+57
          1848.57080	         6.01669e+57
          1849.37710	         5.68808e+57
          1850.18340	         6.41489e+57
          1850.98970	         7.31062e+57
          1851.79600	         6.76912e+57
          1852.60230	         7.24535e+57
          1853.40860	         7.35864e+57
          1854.21490	         7.48021e+57
          1855.02120	         6.90248e+57
          1855.82750	         6.52589e+57
          1856.63380	         7.13732e+57
          1857.44010	         8.10469e+57
          1858.24640	         7.37046e+57
          1859.05270	         6.99023e+57
          1859.85900	         6.38217e+57
          1860.66530	         5.58410e+57
          1861.47160	         6.57197e+57
          1862.27790	         7.76680e+57
          1863.08420	         8.49887e+57
          1863.89050	         8.80310e+57
          1864.69680	         8.12170e+57
          1865.50310	         7.09977e+57
          1866.30940	         6.50586e+57
          1867.11570	         6.52815e+57
          1867.92200	         7.66315e+57
          1868.72830	         8.31617e+57
          1869.53460	         8.05720e+57
          1870.34090	         8.28696e+57
          1871.14720	         8.41935e+57
          1871.95350	         7.37700e+57
          1872.75980	         7.33698e+57
          1873.56610	         6.97265e+57
          1874.37240	         6.80007e+57
          1875.17870	         6.06359e+57
          1875.98500	         7.03470e+57
          1876.79130	         7.17961e+57
          1877.59760	         6.34599e+57
          1878.40390	         6.27976e+57
          1879.21020	         6.96115e+57
          1880.01650	         7.73439e+57
          1880.82280	         7.50985e+57
          1881.62910	         8.89112e+57
          1882.43540	         1.01325e+58
          1883.24170	         8.32487e+57
          1884.04800	         6.87995e+57
          1884.85430	         7.70788e+57
          1885.66060	         7.99922e+57
          1886.46690	         8.08737e+57
          1887.27320	         7.70354e+57
          1888.07950	         6.66784e+57
          1888.88580	         6.75261e+57
          1889.69210	         8.87004e+57
          1890.49840	         9.39722e+57
          1891.30470	         7.61143e+57
          1892.11100	         8.09032e+57
          1892.91730	         7.14921e+57
          1893.72360	         6.42005e+57
          1894.52990	         5.61602e+57
          1895.33620	         7.22065e+57
          1896.14250	         7.15466e+57
          1896.94880	         5.61199e+57
          1897.75510	         4.42049e+57
          1898.56140	         5.31338e+57
          1899.36770	         7.66908e+57
          1900.17400	         7.27241e+57
          1900.98030	         6.33145e+57
          1901.78660	         6.39920e+57
          1902.59290	         6.98485e+57
          1903.39920	         8.26704e+57
          1904.20550	         8.63371e+57
          1905.01180	         8.78270e+57
          1905.81810	         1.01802e+58
          1906.62440	         1.18525e+58
          1907.43070	         1.51216e+58
          1908.23700	         1.70888e+58
          1909.04330	         1.39851e+58
          1909.84960	         1.07703e+58
          1910.65590	         9.41053e+57
          1911.46220	         9.42828e+57
          1912.26850	         8.24264e+57
          1913.07480	         6.05230e+57
          1913.88110	         5.81095e+57
          1914.68740	         5.98976e+57
          1915.49370	         5.42602e+57
          1916.30000	         5.71480e+57
          1917.10630	         6.25281e+57
          1917.91260	         6.42701e+57
          1918.71890	         6.57099e+57
          1919.52520	         6.11619e+57
          1920.33150	         5.83791e+57
          1921.13780	         6.71664e+57
          1921.94410	         7.51354e+57
          1922.75040	         7.22639e+57
          1923.55670	         7.58293e+57
          1924.36300	         8.00038e+57
          1925.16930	         6.76849e+57
          1925.97560	         5.63860e+57
          1926.78190	         4.88482e+57
          1927.58820	         5.73576e+57
          1928.39450	         5.69079e+57
          1929.20080	         5.38511e+57
          1930.00710	         7.37942e+57
          1930.81340	         7.70680e+57
          1931.61970	         7.20092e+57
          1932.42600	         7.12483e+57
          1933.23230	         7.62869e+57
          1934.03860	         6.31743e+57
          1934.84490	         4.60492e+57
          1935.65120	         7.30426e+57
          1936.45750	         8.79039e+57
          1937.26380	         6.93411e+57
          1938.07010	         7.84414e+57
          1938.87640	         7.10369e+57
          1939.68270	         6.66245e+57
          1940.48900	         7.39400e+57
          1941.29530	         7.93240e+57
          1942.10160	         8.02952e+57
          1942.90790	         7.58663e+57
          1943.71420	         6.76650e+57
          1944.52050	         6.48550e+57
          1945.32680	         6.73263e+57
          1946.13310	         7.51525e+57
          1946.93940	         9.06929e+57
          1947.74570	         7.55750e+57
          1948.55200	         6.14643e+57
          1949.35830	         6.80529e+57
          1950.16460	         5.77341e+57
          1950.97090	         6.32831e+57
          1951.77720	         7.71155e+57
          1952.58350	         7.99991e+57
          1953.38980	         6.37879e+57
          1954.19610	         4.88858e+57
          1955.00240	         5.31742e+57
          1955.80870	         5.38758e+57
          1956.61500	         6.06127e+57
          1957.42130	         6.31151e+57
          1958.22760	         5.96823e+57
          1959.03390	         7.04362e+57
          1959.84020	         7.71014e+57
          1960.64650	         6.76383e+57
          1961.45280	         6.68228e+57
          1962.25910	         5.82198e+57
          1963.06540	         6.16970e+57
          1963.87170	         6.77968e+57
          1964.67800	         7.88154e+57
          1965.48430	         6.94026e+57
          1966.29060	         7.02925e+57
          1967.09690	         7.62414e+57
          1967.90320	         7.65858e+57
          1968.70950	         7.37658e+57
          1969.51580	         6.94291e+57
          1970.32210	         7.27260e+57
          1971.12840	         6.51124e+57
          1971.93470	         4.98160e+57
          1972.74100	         5.30018e+57
          1973.54730	         6.59645e+57
          1974.35360	         7.35121e+57
          1975.15990	         7.74223e+57
          1975.96620	         5.49736e+57
          1976.77250	         6.34388e+57
          1977.57880	         8.45040e+57
          1978.38510	         6.72303e+57
          1979.19140	         7.30920e+57
          1979.99770	         8.11821e+57
          1980.80400	         7.37329e+57
          1981.61030	         6.96142e+57
          1982.41660	         6.16418e+57
          1983.22290	         6.66103e+57
          1984.02920	         6.59637e+57
          1984.83550	         5.63159e+57
          1985.64180	         5.65786e+57
          1986.44810	         6.50821e+57
          1987.25440	         6.27397e+57
          1988.06070	         6.04714e+57
          1988.86700	         6.39126e+57
          1989.67330	         6.99160e+57
          1990.47960	         6.94621e+57
          1991.28590	         7.10128e+57
          1992.09220	         6.87094e+57
          1992.89850	         5.31825e+57
          1993.70480	         4.55337e+57
          1994.51110	         4.58062e+57
          1995.31740	         5.30694e+57
          1996.12370	         5.54738e+57
          1996.93000	         6.39352e+57
          1997.73630	         7.63289e+57
          1998.54260	         7.16548e+57
          1999.34890	         7.41384e+57
          2000.15520	         6.97053e+57
          2000.96150	         6.03787e+57
          2001.76780	         5.25583e+57
          2002.57410	         5.65851e+57
          2003.38040	         5.90397e+57
          2004.18670	         6.58143e+57
          2004.99300	         6.80862e+57
          2005.79930	         6.73669e+57
          2006.60560	         6.13983e+57
          2007.41190	         5.36038e+57
          2008.21820	         5.99074e+57
          2009.02450	         6.69491e+57
          2009.83080	         6.53144e+57
          2010.63710	         6.85396e+57
          2011.44340	         8.02021e+57
          2012.24970	         7.70926e+57
          2013.05600	         7.70897e+57
          2013.86230	         7.26815e+57
          2014.66860	         5.98387e+57
          2015.47490	         6.50106e+57
          2016.28120	         6.69719e+57
          2017.08750	         5.81903e+57
          2017.89380	         5.95841e+57
          2018.70010	         6.26301e+57
          2019.50640	         5.79734e+57
          2020.31270	         6.86352e+57
          2021.11900	         7.33588e+57
          2021.92530	         7.80154e+57
          2022.73160	         6.87671e+57
          2023.53790	         6.83378e+57
          2024.34420	         6.30823e+57
          2025.15050	         5.40437e+57
          2025.95680	         6.08850e+57
          2026.76310	         5.83478e+57
          2027.56940	         5.71251e+57
          2028.37570	         7.72350e+57
          2029.18200	         6.70606e+57
          2029.98830	         6.30431e+57
          2030.79460	         6.81723e+57
          2031.60090	         5.81987e+57
          2032.40720	         5.16699e+57
          2033.21350	         5.20489e+57
          2034.01980	         4.76157e+57
          2034.82610	         4.39335e+57
          2035.63240	         5.27127e+57
          2036.43870	         5.52303e+57
          2037.24500	         6.83378e+57
          2038.05130	         5.79571e+57
          2038.85760	         5.04503e+57
          2039.66390	         5.96424e+57
          2040.47020	         6.48776e+57
          2041.27650	         5.64492e+57
          2042.08280	         6.21452e+57
          2042.88910	         6.75828e+57
          2043.69540	         6.11175e+57
          2044.50170	         5.64279e+57
          2045.30800	         5.19249e+57
          2046.11430	         4.74676e+57
          2046.92060	         5.56608e+57
          2047.72690	         6.80378e+57
          2048.53320	         5.38539e+57
          2049.33950	         3.74614e+57
          2050.14580	         5.90415e+57
          2050.95210	         8.66071e+57
          2051.75840	         8.22777e+57
          2052.56470	         6.01058e+57
          2053.37100	         4.53916e+57
          2054.17730	         4.48170e+57
          2054.98360	         6.03493e+57
          2055.78990	         4.47882e+57
          2056.59620	         3.36749e+57
          2057.40250	         5.24279e+57
          2058.20880	         7.15975e+57
          2059.01510	         5.04236e+57
          2059.82140	         6.65899e+57
          2060.62770	         1.02236e+58
          2061.43400	         1.71530e+58
          2062.24030	         8.87803e+57
          2063.04660	         6.15919e+57
          2063.85290	         1.62040e+57
          2064.65920	        -1.93144e+57
          2065.46550	        -7.23008e+57
          2066.27180	        -6.50959e+57
          2067.07810	         2.83693e+56
          2067.88440	         5.61835e+57
          2068.69070	         6.51996e+57
          2069.49700	         5.49417e+57
          2070.30330	         3.42259e+57
          2071.10960	         7.21979e+57
          2071.91590	         6.60536e+57
          2072.72220	         3.71688e+57
          2073.52850	         4.91662e+57
          2074.33480	         5.22011e+57
          2075.14110	         5.24758e+57
          2075.94740	         4.76180e+57
          2076.75370	         3.50375e+57
          2077.56000	         2.82795e+57
          2078.36630	         5.26879e+57
          2079.17260	         5.59923e+57
          2079.97890	         6.38163e+57
          2080.78520	         5.74140e+57
          2081.59150	         4.09974e+57
          2082.39780	         3.85400e+57
          2083.20410	         2.52553e+57
          2084.01040	         3.07953e+57
          2084.81670	         4.82285e+57
          2085.62300	         3.21783e+57
          2086.42930	         3.59062e+57
          2087.23560	         4.45251e+57
          2088.04190	         4.23931e+57
          2088.84820	         3.39028e+57
          2089.65450	         1.91374e+57
          2090.46080	         1.83555e+57
          2091.26710	         2.81658e+57
          2092.07340	         3.86498e+57
          2092.87970	         2.73680e+57
          2093.68600	        -7.34985e+56
          2094.49230	         4.21101e+57
          2095.29860	         4.49525e+57
          2096.10490	         2.10055e+57
          2096.91120	         3.23878e+56
          2097.71750	        -9.31798e+55
          2098.52380	         4.48734e+56
          2099.33010	         8.17400e+56
          2100.13640	         1.76881e+57
          2100.94270	         2.33073e+57
          2101.74900	         3.10531e+57
          2102.55530	         4.75054e+57
          2103.36160	         2.96479e+57
          2104.16790	         3.65100e+57
          2104.97420	         3.51012e+57
          2105.78050	         2.03323e+57
          2106.58680	         3.26289e+57
          2107.39310	        -1.57526e+57
          2108.19940	         6.50029e+56
          2109.00570	        -8.86504e+56
          2109.81200	        -3.55834e+56
          2110.61830	         2.22822e+57
          2111.42460	         1.05494e+57
          2112.23090	        -1.10399e+57
          2113.03720	         1.52320e+57
          2113.84350	         1.39746e+57
          2114.64980	         3.69528e+57
          2115.45610	        -1.83188e+57
          2116.26240	        -2.66734e+57
          2117.06870	        -5.68919e+57
          2117.87500	        -3.90351e+57
          2118.68130	        -2.07510e+57
          2119.48760	         1.20317e+57
          2120.29390	        -1.03516e+57
          2121.10020	        -3.28369e+57
          2121.90650	        -6.96509e+56
          2122.71280	        -8.38281e+56
          2123.51910	         1.96086e+57
          2124.32540	         6.72640e+57
          2125.13170	        -6.54663e+56
          2125.93800	         3.17569e+57
          2126.74430	         3.74964e+57
          2127.55060	        -6.35853e+57
          2128.35690	        -2.82742e+57
          2129.16320	         2.91858e+57
          2129.96950	        -2.74526e+56
          2130.77580	         1.60155e+57
          2131.58210	         5.74536e+57
          2132.38840	        -4.34267e+57
          2133.19470	        -2.16214e+57
          2134.00100	         3.51728e+57
          2134.80730	        -4.23188e+57
          2135.61360	         6.96952e+57
          2136.41990	         6.47258e+57
          2137.22620	         9.78513e+56
          2138.03250	         2.88090e+57
          2138.83880	        -1.46518e+57
          2139.64510	         1.33158e+57
          2140.45140	        -5.25745e+57
          2141.25770	        -1.05440e+58
          2142.06400	        -3.00246e+56
          2142.87030	         7.62939e+57
          2143.67660	         7.07264e+57
          2144.48290	         1.10594e+58
          2145.28920	         9.55548e+57
          2146.09550	        -1.73126e+57
          2146.90180	         1.65830e+57
          2147.70810	        -3.56808e+57
          2148.51440	        -6.96863e+57
          2149.32070	        -1.03913e+58
          2150.12700	        -1.21774e+58
          2150.93330	         9.82747e+56
          2151.73960	        -1.76858e+56
          2152.54590	         4.99073e+57
          2153.35220	         4.83706e+57
          2154.15850	         2.95986e+57
          2154.96480	         8.98549e+57
          2155.77110	        -8.49433e+57
          2156.57740	        -1.98776e+58
          2157.38370	        -1.84902e+57
          2158.19000	        -8.11425e+57
          2158.99630	        -5.13674e+57
          2159.80260	        -1.01476e+58
          2160.60890	        -3.53007e+57
          2161.41520	        -6.08284e+57
          2162.22150	        -1.04313e+57
          2163.02780	        -1.40524e+57
          2163.83410	        -8.24515e+57
          2164.64040	        -9.50061e+57
          2165.44670	        -6.50219e+57
          2166.25300	        -1.68752e+58
          2167.05930	        -1.92719e+58
          2167.86560	        -1.19856e+58
          2168.67190	        -1.79270e+58
          2169.47820	        -1.25574e+58
          2170.28450	        -6.09181e+57
          2171.09080	        -3.51468e+57
          2171.89710	         3.64310e+55
          2172.70340	         7.88462e+57
          2173.50970	        -2.97646e+57
          2174.31600	        -4.45699e+57
          2175.12230	        -7.41886e+57
          2175.92860	        -3.31044e+57
          2176.73490	        -4.26173e+57
          2177.54120	        -6.28106e+57
          2178.34750	        -4.76867e+57
          2179.15380	                 nan
          2179.96010	                 nan
          2180.76640	                 nan
          2181.57270	                 nan
          2182.37900	                 nan
          2183.18530	                 nan
          2183.99160	                 nan
          2184.79790	                 nan
          2185.60420	                 nan
          2186.41050	                 nan
          2187.21680	                 nan
          2188.02310	                 nan
          2188.82940	                 nan
          2189.63570	                 nan
          2190.44200	                 nan
          2191.24830	                 nan
          2192.05460	                 nan
          2192.86090	                 nan
          2193.66720	                 nan
          2194.47350	                 nan
          2195.27980	                 nan
          2196.08610	                 nan
          2196.89240	                 nan
          2197.69870	                 nan
          2198.50500	                 nan
          2199.31130	                 nan
          2200.11760	                 nan
          2200.92390	                 nan
          2201.73020	                 nan
          2202.53650	                 nan
          2203.34280	                 nan
          2204.14910	                 nan
          2204.95540	                 nan
          2205.76170	                 nan
          2206.56800	                 nan
          2207.37430	                 nan
          2208.18060	                 nan
          2208.98690	                 nan
          2209.79320	                 nan
          2210.59950	                 nan
          2211.40580	                 nan
          2212.21210	                 nan
          2213.01840	                 nan
          2213.82470	                 nan
          2214.63100	                 nan
          2215.43730	         0.00000e+00
