#sample_166_stacked_spectrum_rest_UV-bands_median_H-alpha_noDC.txt
#median Lum: 1.70244e+42
#Rest-frame wavelength (A) | Luminosity (erg/s/A)
#
          1110.00000	         0.00000e+00
          1110.80630	        -4.45527e+59
          1111.61260	         7.38161e+58
          1112.41890	        -5.78225e+58
          1113.22520	        -5.39071e+58
          1114.03150	        -7.43030e+58
          1114.83780	         8.22013e+58
          1115.64410	         1.59921e+59
          1116.45040	         2.18528e+59
          1117.25670	         1.73228e+59
          1118.06300	         2.52692e+59
          1118.86930	        -1.47643e+59
          1119.67560	         2.84434e+58
          1120.48190	         4.43620e+58
          1121.28820	        -9.60773e+58
          1122.09450	        -5.57705e+58
          1122.90080	        -2.84766e+58
          1123.70710	         4.34843e+58
          1124.51340	         6.47478e+58
          1125.31970	         3.12854e+58
          1126.12600	         4.00171e+58
          1126.93230	        -3.51935e+58
          1127.73860	         1.86726e+58
          1128.54490	         1.50960e+57
          1129.35120	        -3.68841e+57
          1130.15750	        -3.44592e+58
          1130.96380	        -2.72181e+58
          1131.77010	         4.26535e+58
          1132.57640	         2.81334e+58
          1133.38270	         5.58693e+57
          1134.18900	         1.32418e+56
          1134.99530	         1.82989e+58
          1135.80160	         2.86418e+58
          1136.60790	         8.26119e+57
          1137.41420	        -2.79704e+57
          1138.22050	         3.04336e+58
          1139.02680	         3.28517e+58
          1139.83310	         1.09799e+58
          1140.63940	         2.77819e+58
          1141.44570	         8.40804e+57
          1142.25200	         1.58769e+58
          1143.05830	         3.21016e+58
          1143.86460	         3.61434e+58
          1144.67090	         2.99700e+58
          1145.47720	         1.05915e+58
          1146.28350	         1.46374e+58
          1147.08980	         2.37638e+58
          1147.89610	         2.61434e+58
          1148.70240	         2.45138e+58
          1149.50870	         3.21673e+58
          1150.31500	         8.39239e+57
          1151.12130	         5.71137e+57
          1151.92760	         1.60838e+58
          1152.73390	        -3.33610e+57
          1153.54020	        -5.25022e+57
          1154.34650	         1.93404e+58
          1155.15280	         2.55407e+58
          1155.95910	         2.15754e+57
          1156.76540	         1.25505e+58
          1157.57170	         1.05396e+58
          1158.37800	         4.34478e+57
          1159.18430	        -1.40035e+56
          1159.99060	         4.02875e+57
          1160.79690	         3.66136e+56
          1161.60320	         7.01130e+57
          1162.40950	         1.92608e+58
          1163.21580	         6.25695e+57
          1164.02210	         1.11383e+58
          1164.82840	         7.87031e+57
          1165.63470	         1.22707e+58
          1166.44100	         3.27445e+58
          1167.24730	         3.15234e+58
          1168.05360	         9.76358e+57
          1168.85990	         3.81845e+57
          1169.66620	         9.32324e+57
          1170.47250	         1.59464e+58
          1171.27880	         1.31439e+58
          1172.08510	         1.92285e+58
          1172.89140	         1.85410e+58
          1173.69770	         1.58461e+58
          1174.50400	         1.96459e+58
          1175.31030	         2.11827e+58
          1176.11660	         1.75584e+58
          1176.92290	         1.76312e+58
          1177.72920	         1.18181e+58
          1178.53550	         5.74537e+57
          1179.34180	         4.40824e+57
          1180.14810	         1.39790e+58
          1180.95440	         1.52403e+58
          1181.76070	         7.16496e+57
          1182.56700	         9.86422e+57
          1183.37330	         9.77577e+57
          1184.17960	         1.32117e+58
          1184.98590	         1.25294e+58
          1185.79220	         8.71500e+57
          1186.59850	         1.10726e+58
          1187.40480	         7.42721e+57
          1188.21110	         1.76788e+58
          1189.01740	         1.33973e+58
          1189.82370	         1.50726e+58
          1190.63000	         1.40888e+58
          1191.43630	         1.53805e+58
          1192.24260	         7.01307e+57
          1193.04890	         7.50442e+57
          1193.85520	         8.93762e+57
          1194.66150	         2.73479e+57
          1195.46780	         7.35119e+57
          1196.27410	         1.11433e+58
          1197.08040	         1.20435e+58
          1197.88670	         1.37670e+58
          1198.69300	         1.41752e+58
          1199.49930	         1.45672e+58
          1200.30560	         1.27667e+58
          1201.11190	         1.22539e+58
          1201.91820	         7.75009e+57
          1202.72450	         1.17428e+58
          1203.53080	         1.89352e+58
          1204.33710	         1.38174e+58
          1205.14340	         6.83096e+57
          1205.94970	         5.77826e+57
          1206.75600	         2.97107e+57
          1207.56230	         3.36503e+57
          1208.36860	         7.29328e+57
          1209.17490	         3.83956e+57
          1209.98120	         7.09843e+57
          1210.78750	         6.15520e+57
          1211.59380	         9.38555e+57
          1212.40010	         1.24952e+58
          1213.20640	         1.85021e+58
          1214.01270	         2.24728e+58
          1214.81900	         2.61095e+58
          1215.62530	         4.20293e+58
          1216.43160	         8.62345e+58
          1217.23790	         1.50622e+59
          1218.04420	         1.18596e+59
          1218.85050	         9.02438e+58
          1219.65680	         5.55471e+58
          1220.46310	         2.77348e+58
          1221.26940	         2.11585e+58
          1222.07570	         7.92838e+57
          1222.88200	         4.83369e+57
          1223.68830	         9.64639e+57
          1224.49460	         8.27529e+57
          1225.30090	         7.60249e+57
          1226.10720	         7.22809e+57
          1226.91350	         6.29385e+57
          1227.71980	         1.03473e+58
          1228.52610	         1.20025e+58
          1229.33240	         7.78271e+57
          1230.13870	         5.66656e+57
          1230.94500	         6.86684e+57
          1231.75130	         6.23530e+57
          1232.55760	         8.18831e+57
          1233.36390	         7.52048e+57
          1234.17020	         6.17063e+57
          1234.97650	         7.40790e+57
          1235.78280	         8.84276e+57
          1236.58910	         7.54184e+57
          1237.39540	         9.56013e+57
          1238.20170	         1.07379e+58
          1239.00800	         1.19130e+58
          1239.81430	         1.78476e+58
          1240.62060	         1.44668e+58
          1241.42690	         9.84016e+57
          1242.23320	         9.85730e+57
          1243.03950	         7.49686e+57
          1243.84580	         6.32673e+57
          1244.65210	         8.92586e+57
          1245.45840	         9.74236e+57
          1246.26470	         9.06707e+57
          1247.07100	         5.35362e+57
          1247.87730	         6.52144e+57
          1248.68360	         7.11308e+57
          1249.48990	         1.08000e+58
          1250.29620	         1.00717e+58
          1251.10250	         8.56599e+57
          1251.90880	         6.82191e+57
          1252.71510	         4.85731e+57
          1253.52140	         5.55613e+57
          1254.32770	         9.83999e+57
          1255.13400	         1.29877e+58
          1255.94030	         1.20381e+58
          1256.74660	         1.02447e+58
          1257.55290	         9.92236e+57
          1258.35920	         8.11594e+57
          1259.16550	         5.93317e+57
          1259.97180	         5.22804e+57
          1260.77810	         7.35476e+57
          1261.58440	         9.95128e+57
          1262.39070	         9.92140e+57
          1263.19700	         1.00415e+58
          1264.00330	         9.66691e+57
          1264.80960	         1.08580e+58
          1265.61590	         1.22381e+58
          1266.42220	         1.17700e+58
          1267.22850	         1.08470e+58
          1268.03480	         1.49562e+58
          1268.84110	         1.57371e+58
          1269.64740	         1.28362e+58
          1270.45370	         1.35231e+58
          1271.26000	         1.24166e+58
          1272.06630	         1.24500e+58
          1272.87260	         1.48610e+58
          1273.67890	         1.47879e+58
          1274.48520	         1.21578e+58
          1275.29150	         1.29506e+58
          1276.09780	         1.26407e+58
          1276.90410	         1.44258e+58
          1277.71040	         1.35241e+58
          1278.51670	         1.19510e+58
          1279.32300	         1.32695e+58
          1280.12930	         1.36508e+58
          1280.93560	         1.11136e+58
          1281.74190	         1.21961e+58
          1282.54820	         1.29670e+58
          1283.35450	         9.09245e+57
          1284.16080	         1.17215e+58
          1284.96710	         1.46562e+58
          1285.77340	         1.25711e+58
          1286.57970	         1.08517e+58
          1287.38600	         1.25787e+58
          1288.19230	         1.65436e+58
          1288.99860	         1.81801e+58
          1289.80490	         1.43612e+58
          1290.61120	         1.32656e+58
          1291.41750	         1.42427e+58
          1292.22380	         1.29639e+58
          1293.03010	         1.00625e+58
          1293.83640	         9.74145e+57
          1294.64270	         9.44646e+57
          1295.44900	         6.61371e+57
          1296.25530	         8.52942e+57
          1297.06160	         1.21784e+58
          1297.86790	         1.28949e+58
          1298.67420	         1.05229e+58
          1299.48050	         1.05874e+58
          1300.28680	         1.18234e+58
          1301.09310	         9.74358e+57
          1301.89940	         4.10294e+57
          1302.70570	         8.07529e+57
          1303.51200	         9.90229e+57
          1304.31830	         9.41538e+57
          1305.12460	         1.06094e+58
          1305.93090	         1.09783e+58
          1306.73720	         1.31464e+58
          1307.54350	         1.58101e+58
          1308.34980	         1.69638e+58
          1309.15610	         1.71188e+58
          1309.96240	         1.75788e+58
          1310.76870	         1.60583e+58
          1311.57500	         1.32919e+58
          1312.38130	         1.29062e+58
          1313.18760	         1.54825e+58
          1313.99390	         1.54573e+58
          1314.80020	         1.55386e+58
          1315.60650	         1.34911e+58
          1316.41280	         1.25780e+58
          1317.21910	         1.06265e+58
          1318.02540	         1.11677e+58
          1318.83170	         1.38048e+58
          1319.63800	         1.21615e+58
          1320.44430	         1.07863e+58
          1321.25060	         1.06575e+58
          1322.05690	         1.16437e+58
          1322.86320	         1.27413e+58
          1323.66950	         1.07474e+58
          1324.47580	         9.92220e+57
          1325.28210	         9.14939e+57
          1326.08840	         9.88989e+57
          1326.89470	         1.11305e+58
          1327.70100	         8.48916e+57
          1328.50730	         6.64302e+57
          1329.31360	         8.40547e+57
          1330.11990	         9.23408e+57
          1330.92620	         8.71611e+57
          1331.73250	         9.67060e+57
          1332.53880	         1.06128e+58
          1333.34510	         1.01330e+58
          1334.15140	         1.04039e+58
          1334.95770	         1.04875e+58
          1335.76400	         1.15577e+58
          1336.57030	         1.29009e+58
          1337.37660	         1.19643e+58
          1338.18290	         1.09755e+58
          1338.98920	         1.17471e+58
          1339.79550	         1.18674e+58
          1340.60180	         1.38272e+58
          1341.40810	         1.47755e+58
          1342.21440	         1.38142e+58
          1343.02070	         1.42637e+58
          1343.82700	         1.54745e+58
          1344.63330	         1.31431e+58
          1345.43960	         1.13213e+58
          1346.24590	         9.95804e+57
          1347.05220	         1.13768e+58
          1347.85850	         1.17908e+58
          1348.66480	         1.20370e+58
          1349.47110	         1.10140e+58
          1350.27740	         1.09013e+58
          1351.08370	         1.17041e+58
          1351.89000	         1.19859e+58
          1352.69630	         1.17537e+58
          1353.50260	         1.16391e+58
          1354.30890	         1.37561e+58
          1355.11520	         1.28800e+58
          1355.92150	         1.09393e+58
          1356.72780	         1.01644e+58
          1357.53410	         9.37151e+57
          1358.34040	         1.07000e+58
          1359.14670	         1.07473e+58
          1359.95300	         1.10464e+58
          1360.75930	         1.16444e+58
          1361.56560	         1.14177e+58
          1362.37190	         1.19984e+58
          1363.17820	         1.12124e+58
          1363.98450	         1.07546e+58
          1364.79080	         1.19758e+58
          1365.59710	         1.30904e+58
          1366.40340	         1.16230e+58
          1367.20970	         8.95447e+57
          1368.01600	         8.40478e+57
          1368.82230	         7.84278e+57
          1369.62860	         9.74614e+57
          1370.43490	         8.97705e+57
          1371.24120	         7.68356e+57
          1372.04750	         8.63588e+57
          1372.85380	         1.05611e+58
          1373.66010	         1.16412e+58
          1374.46640	         1.08053e+58
          1375.27270	         1.06609e+58
          1376.07900	         9.28330e+57
          1376.88530	         9.58976e+57
          1377.69160	         8.99635e+57
          1378.49790	         8.69296e+57
          1379.30420	         8.94466e+57
          1380.11050	         1.04419e+58
          1380.91680	         9.64599e+57
          1381.72310	         7.55769e+57
          1382.52940	         8.34858e+57
          1383.33570	         9.71046e+57
          1384.14200	         1.06493e+58
          1384.94830	         1.04842e+58
          1385.75460	         1.03973e+58
          1386.56090	         1.29854e+58
          1387.36720	         1.21812e+58
          1388.17350	         1.27132e+58
          1388.97980	         1.14869e+58
          1389.78610	         9.45217e+57
          1390.59240	         8.71160e+57
          1391.39870	         5.68043e+57
          1392.20500	         6.42122e+57
          1393.01130	         7.37648e+57
          1393.81760	         8.00188e+57
          1394.62390	         8.80441e+57
          1395.43020	         7.82963e+57
          1396.23650	         6.72476e+57
          1397.04280	         8.71979e+57
          1397.84910	         1.00391e+58
          1398.65540	         9.07802e+57
          1399.46170	         1.06661e+58
          1400.26800	         1.04986e+58
          1401.07430	         9.03395e+57
          1401.88060	         8.38260e+57
          1402.68690	         8.58784e+57
          1403.49320	         9.74656e+57
          1404.29950	         9.04694e+57
          1405.10580	         9.53296e+57
          1405.91210	         1.03801e+58
          1406.71840	         1.11545e+58
          1407.52470	         1.05777e+58
          1408.33100	         1.01368e+58
          1409.13730	         1.14472e+58
          1409.94360	         1.14536e+58
          1410.74990	         1.18195e+58
          1411.55620	         1.11857e+58
          1412.36250	         9.78378e+57
          1413.16880	         8.58149e+57
          1413.97510	         6.53496e+57
          1414.78140	         7.78657e+57
          1415.58770	         1.11978e+58
          1416.39400	         1.22934e+58
          1417.20030	         1.16462e+58
          1418.00660	         9.51466e+57
          1418.81290	         9.64333e+57
          1419.61920	         1.20808e+58
          1420.42550	         1.38014e+58
          1421.23180	         1.36710e+58
          1422.03810	         1.30572e+58
          1422.84440	         1.29349e+58
          1423.65070	         1.43773e+58
          1424.45700	         1.16735e+58
          1425.26330	         8.50477e+57
          1426.06960	         8.99354e+57
          1426.87590	         9.14812e+57
          1427.68220	         1.04047e+58
          1428.48850	         1.05867e+58
          1429.29480	         9.62266e+57
          1430.10110	         9.14850e+57
          1430.90740	         7.44893e+57
          1431.71370	         9.29160e+57
          1432.52000	         9.61421e+57
          1433.32630	         8.41211e+57
          1434.13260	         7.62433e+57
          1434.93890	         7.60962e+57
          1435.74520	         8.84480e+57
          1436.55150	         1.02194e+58
          1437.35780	         9.70803e+57
          1438.16410	         1.05803e+58
          1438.97040	         9.37017e+57
          1439.77670	         8.46614e+57
          1440.58300	         8.97773e+57
          1441.38930	         9.21762e+57
          1442.19560	         9.26068e+57
          1443.00190	         1.02577e+58
          1443.80820	         1.18021e+58
          1444.61450	         9.57096e+57
          1445.42080	         7.38848e+57
          1446.22710	         1.00654e+58
          1447.03340	         1.04917e+58
          1447.83970	         1.05521e+58
          1448.64600	         1.12459e+58
          1449.45230	         1.14583e+58
          1450.25860	         1.05548e+58
          1451.06490	         9.53817e+57
          1451.87120	         7.66715e+57
          1452.67750	         7.42216e+57
          1453.48380	         8.66334e+57
          1454.29010	         7.59507e+57
          1455.09640	         6.70451e+57
          1455.90270	         7.89058e+57
          1456.70900	         8.74687e+57
          1457.51530	         1.03153e+58
          1458.32160	         1.25147e+58
          1459.12790	         1.20311e+58
          1459.93420	         9.34942e+57
          1460.74050	         7.35659e+57
          1461.54680	         8.27247e+57
          1462.35310	         7.91683e+57
          1463.15940	         8.95656e+57
          1463.96570	         1.07291e+58
          1464.77200	         1.18606e+58
          1465.57830	         1.16210e+58
          1466.38460	         9.53037e+57
          1467.19090	         8.02169e+57
          1467.99720	         8.55490e+57
          1468.80350	         9.76039e+57
          1469.60980	         1.11804e+58
          1470.41610	         1.13500e+58
          1471.22240	         1.02346e+58
          1472.02870	         1.05905e+58
          1472.83500	         1.04266e+58
          1473.64130	         9.63606e+57
          1474.44760	         9.84609e+57
          1475.25390	         9.22178e+57
          1476.06020	         8.20663e+57
          1476.86650	         8.59197e+57
          1477.67280	         8.58219e+57
          1478.47910	         7.42063e+57
          1479.28540	         6.92506e+57
          1480.09170	         8.32171e+57
          1480.89800	         9.13646e+57
          1481.70430	         9.03931e+57
          1482.51060	         9.15227e+57
          1483.31690	         8.46715e+57
          1484.12320	         8.14605e+57
          1484.92950	         7.69060e+57
          1485.73580	         8.57844e+57
          1486.54210	         9.27389e+57
          1487.34840	         9.13277e+57
          1488.15470	         9.86494e+57
          1488.96100	         8.81289e+57
          1489.76730	         8.76804e+57
          1490.57360	         7.65636e+57
          1491.37990	         7.37437e+57
          1492.18620	         8.49194e+57
          1492.99250	         8.89760e+57
          1493.79880	         1.04949e+58
          1494.60510	         9.32135e+57
          1495.41140	         7.02804e+57
          1496.21770	         8.28937e+57
          1497.02400	         1.00142e+58
          1497.83030	         8.67144e+57
          1498.63660	         7.48229e+57
          1499.44290	         7.70286e+57
          1500.24920	         8.24745e+57
          1501.05550	         8.48396e+57
          1501.86180	         7.99839e+57
          1502.66810	         8.31195e+57
          1503.47440	         8.18076e+57
          1504.28070	         8.27635e+57
          1505.08700	         8.50825e+57
          1505.89330	         8.95237e+57
          1506.69960	         8.36205e+57
          1507.50590	         8.41802e+57
          1508.31220	         8.66407e+57
          1509.11850	         9.17288e+57
          1509.92480	         1.01036e+58
          1510.73110	         9.42057e+57
          1511.53740	         7.25891e+57
          1512.34370	         6.96936e+57
          1513.15000	         9.21745e+57
          1513.95630	         1.00057e+58
          1514.76260	         9.75705e+57
          1515.56890	         8.61283e+57
          1516.37520	         8.33564e+57
          1517.18150	         8.64946e+57
          1517.98780	         7.32551e+57
          1518.79410	         6.85816e+57
          1519.60040	         8.00275e+57
          1520.40670	         8.85787e+57
          1521.21300	         9.24898e+57
          1522.01930	         7.69664e+57
          1522.82560	         8.79717e+57
          1523.63190	         1.10227e+58
          1524.43820	         9.40898e+57
          1525.24450	         5.99079e+57
          1526.05080	         5.67632e+57
          1526.85710	         6.64153e+57
          1527.66340	         6.99439e+57
          1528.46970	         7.69984e+57
          1529.27600	         8.69712e+57
          1530.08230	         8.13607e+57
          1530.88860	         8.34202e+57
          1531.69490	         9.44526e+57
          1532.50120	         9.64975e+57
          1533.30750	         8.84777e+57
          1534.11380	         8.59418e+57
          1534.92010	         8.49023e+57
          1535.72640	         8.53719e+57
          1536.53270	         9.29465e+57
          1537.33900	         8.40714e+57
          1538.14530	         8.03050e+57
          1538.95160	         9.09917e+57
          1539.75790	         9.20991e+57
          1540.56420	         8.94428e+57
          1541.37050	         8.65197e+57
          1542.17680	         7.54740e+57
          1542.98310	         7.24631e+57
          1543.78940	         7.78699e+57
          1544.59570	         7.37370e+57
          1545.40200	         8.44726e+57
          1546.20830	         9.54592e+57
          1547.01460	         1.02233e+58
          1547.82090	         1.10049e+58
          1548.62720	         1.13777e+58
          1549.43350	         1.10524e+58
          1550.23980	         1.05674e+58
          1551.04610	         1.15636e+58
          1551.85240	         1.28972e+58
          1552.65870	         1.19217e+58
          1553.46500	         9.93435e+57
          1554.27130	         9.61816e+57
          1555.07760	         9.94882e+57
          1555.88390	         8.84920e+57
          1556.69020	         8.60855e+57
          1557.49650	         7.88895e+57
          1558.30280	         8.57340e+57
          1559.10910	         9.12548e+57
          1559.91540	         9.32104e+57
          1560.72170	         8.53965e+57
          1561.52800	         7.38752e+57
          1562.33430	         7.96185e+57
          1563.14060	         7.51772e+57
          1563.94690	         7.17142e+57
          1564.75320	         8.07061e+57
          1565.55950	         7.20889e+57
          1566.36580	         7.55101e+57
          1567.17210	         9.08265e+57
          1567.97840	         9.12207e+57
          1568.78470	         9.39483e+57
          1569.59100	         9.12720e+57
          1570.39730	         8.65121e+57
          1571.20360	         7.89138e+57
          1572.00990	         7.53603e+57
          1572.81620	         8.67018e+57
          1573.62250	         8.99489e+57
          1574.42880	         8.69851e+57
          1575.23510	         8.68876e+57
          1576.04140	         9.00148e+57
          1576.84770	         9.46502e+57
          1577.65400	         9.24245e+57
          1578.46030	         9.99556e+57
          1579.26660	         1.04379e+58
          1580.07290	         9.66109e+57
          1580.87920	         7.55822e+57
          1581.68550	         7.53330e+57
          1582.49180	         8.36802e+57
          1583.29810	         8.25548e+57
          1584.10440	         8.78509e+57
          1584.91070	         9.01648e+57
          1585.71700	         9.79628e+57
          1586.52330	         1.01566e+58
          1587.32960	         9.77708e+57
          1588.13590	         8.68610e+57
          1588.94220	         7.73882e+57
          1589.74850	         8.90888e+57
          1590.55480	         9.71519e+57
          1591.36110	         7.68956e+57
          1592.16740	         8.23352e+57
          1592.97370	         9.16102e+57
          1593.78000	         9.07572e+57
          1594.58630	         9.11547e+57
          1595.39260	         8.76075e+57
          1596.19890	         9.01810e+57
          1597.00520	         9.26068e+57
          1597.81150	         8.45045e+57
          1598.61780	         7.97550e+57
          1599.42410	         6.72571e+57
          1600.23040	         6.69309e+57
          1601.03670	         8.37944e+57
          1601.84300	         7.96652e+57
          1602.64930	         8.67641e+57
          1603.45560	         9.17414e+57
          1604.26190	         8.63239e+57
          1605.06820	         7.81431e+57
          1605.87450	         7.52435e+57
          1606.68080	         8.06266e+57
          1607.48710	         6.92641e+57
          1608.29340	         5.38778e+57
          1609.09970	         5.94488e+57
          1609.90600	         7.61850e+57
          1610.71230	         7.83318e+57
          1611.51860	         7.34726e+57
          1612.32490	         6.56977e+57
          1613.13120	         7.58452e+57
          1613.93750	         7.78168e+57
          1614.74380	         8.03616e+57
          1615.55010	         8.47591e+57
          1616.35640	         9.55002e+57
          1617.16270	         9.15963e+57
          1617.96900	         9.62514e+57
          1618.77530	         8.88472e+57
          1619.58160	         9.47239e+57
          1620.38790	         8.13304e+57
          1621.19420	         8.72704e+57
          1622.00050	         8.97754e+57
          1622.80680	         8.47536e+57
          1623.61310	         8.66682e+57
          1624.41940	         7.84650e+57
          1625.22570	         8.08028e+57
          1626.03200	         8.93928e+57
          1626.83830	         8.10009e+57
          1627.64460	         7.41300e+57
          1628.45090	         5.18078e+57
          1629.25720	         7.94564e+57
          1630.06350	         9.36417e+57
          1630.86980	         5.27156e+57
          1631.67610	         6.93443e+57
          1632.48240	         8.87646e+57
          1633.28870	         9.33245e+57
          1634.09500	         1.02626e+58
          1634.90130	         1.05555e+58
          1635.70760	         8.80344e+57
          1636.51390	         7.54033e+57
          1637.32020	         8.37222e+57
          1638.12650	         9.04978e+57
          1638.93280	         9.07213e+57
          1639.73910	         1.00587e+58
          1640.54540	         1.03933e+58
          1641.35170	         8.87163e+57
          1642.15800	         9.17013e+57
          1642.96430	         8.79065e+57
          1643.77060	         8.99093e+57
          1644.57690	         8.98652e+57
          1645.38320	         9.50564e+57
          1646.18950	         8.39172e+57
          1646.99580	         9.11296e+57
          1647.80210	         8.77565e+57
          1648.60840	         8.56187e+57
          1649.41470	         9.01544e+57
          1650.22100	         7.62802e+57
          1651.02730	         7.55315e+57
          1651.83360	         7.36869e+57
          1652.63990	         8.36217e+57
          1653.44620	         9.25594e+57
          1654.25250	         7.69939e+57
          1655.05880	         7.20936e+57
          1655.86510	         8.23666e+57
          1656.67140	         8.79192e+57
          1657.47770	         8.13363e+57
          1658.28400	         8.76770e+57
          1659.09030	         9.25814e+57
          1659.89660	         9.13047e+57
          1660.70290	         1.02018e+58
          1661.50920	         9.69446e+57
          1662.31550	         8.61497e+57
          1663.12180	         8.75567e+57
          1663.92810	         9.79127e+57
          1664.73440	         1.12821e+58
          1665.54070	         1.19858e+58
          1666.34700	         1.19581e+58
          1667.15330	         1.07669e+58
          1667.95960	         8.59405e+57
          1668.76590	         7.32306e+57
          1669.57220	         6.75830e+57
          1670.37850	         6.53550e+57
          1671.18480	         7.46003e+57
          1671.99110	         6.92125e+57
          1672.79740	         7.18373e+57
          1673.60370	         7.82641e+57
          1674.41000	         7.69234e+57
          1675.21630	         7.54629e+57
          1676.02260	         6.42857e+57
          1676.82890	         6.16913e+57
          1677.63520	         7.23319e+57
          1678.44150	         7.72878e+57
          1679.24780	         8.07468e+57
          1680.05410	         6.48155e+57
          1680.86040	         5.02237e+57
          1681.66670	         6.56663e+57
          1682.47300	         7.43007e+57
          1683.27930	         8.25357e+57
          1684.08560	         8.74964e+57
          1684.89190	         8.08503e+57
          1685.69820	         6.62424e+57
          1686.50450	         5.90109e+57
          1687.31080	         6.71574e+57
          1688.11710	         8.01942e+57
          1688.92340	         6.80399e+57
          1689.72970	         6.40092e+57
          1690.53600	         6.05544e+57
          1691.34230	         6.81461e+57
          1692.14860	         7.78748e+57
          1692.95490	         7.95152e+57
          1693.76120	         6.52685e+57
          1694.56750	         6.58091e+57
          1695.37380	         8.62801e+57
          1696.18010	         9.00862e+57
          1696.98640	         8.93766e+57
          1697.79270	         8.22262e+57
          1698.59900	         7.55134e+57
          1699.40530	         7.47488e+57
          1700.21160	         7.78621e+57
          1701.01790	         8.20387e+57
          1701.82420	         7.43948e+57
          1702.63050	         8.02392e+57
          1703.43680	         8.90583e+57
          1704.24310	         9.07874e+57
          1705.04940	         8.18231e+57
          1705.85570	         7.71432e+57
          1706.66200	         7.44510e+57
          1707.46830	         8.70710e+57
          1708.27460	         8.25992e+57
          1709.08090	         7.13159e+57
          1709.88720	         7.82590e+57
          1710.69350	         6.92899e+57
          1711.49980	         6.30854e+57
          1712.30610	         7.09994e+57
          1713.11240	         8.09843e+57
          1713.91870	         7.54713e+57
          1714.72500	         7.58819e+57
          1715.53130	         8.55151e+57
          1716.33760	         7.51097e+57
          1717.14390	         7.11346e+57
          1717.95020	         7.92297e+57
          1718.75650	         8.73019e+57
          1719.56280	         8.80929e+57
          1720.36910	         8.34131e+57
          1721.17540	         7.66787e+57
          1721.98170	         6.91220e+57
          1722.78800	         7.06161e+57
          1723.59430	         7.40225e+57
          1724.40060	         8.48190e+57
          1725.20690	         8.81063e+57
          1726.01320	         8.10000e+57
          1726.81950	         7.38774e+57
          1727.62580	         6.48254e+57
          1728.43210	         6.02701e+57
          1729.23840	         7.23674e+57
          1730.04470	         8.40207e+57
          1730.85100	         8.42998e+57
          1731.65730	         7.78019e+57
          1732.46360	         8.01581e+57
          1733.26990	         7.49603e+57
          1734.07620	         7.43386e+57
          1734.88250	         8.37954e+57
          1735.68880	         8.10708e+57
          1736.49510	         8.04689e+57
          1737.30140	         8.17455e+57
          1738.10770	         7.24782e+57
          1738.91400	         7.55991e+57
          1739.72030	         8.00455e+57
          1740.52660	         6.43270e+57
          1741.33290	         6.51577e+57
          1742.13920	         6.79990e+57
          1742.94550	         6.86715e+57
          1743.75180	         7.94665e+57
          1744.55810	         8.59993e+57
          1745.36440	         6.90551e+57
          1746.17070	         5.72768e+57
          1746.97700	         6.36339e+57
          1747.78330	         7.04955e+57
          1748.58960	         6.74855e+57
          1749.39590	         6.84660e+57
          1750.20220	         7.69143e+57
          1751.00850	         6.95897e+57
          1751.81480	         6.95306e+57
          1752.62110	         8.11790e+57
          1753.42740	         8.90427e+57
          1754.23370	         7.56754e+57
          1755.04000	         7.85498e+57
          1755.84630	         7.70019e+57
          1756.65260	         7.99279e+57
          1757.45890	         8.39998e+57
          1758.26520	         6.80033e+57
          1759.07150	         7.89994e+57
          1759.87780	         8.49139e+57
          1760.68410	         8.63662e+57
          1761.49040	         8.91634e+57
          1762.29670	         8.03379e+57
          1763.10300	         7.53821e+57
          1763.90930	         7.70737e+57
          1764.71560	         7.91768e+57
          1765.52190	         7.67266e+57
          1766.32820	         8.40476e+57
          1767.13450	         8.73834e+57
          1767.94080	         8.01304e+57
          1768.74710	         6.99838e+57
          1769.55340	         6.77029e+57
          1770.35970	         6.04705e+57
          1771.16600	         7.19673e+57
          1771.97230	         7.69819e+57
          1772.77860	         7.56189e+57
          1773.58490	         6.29634e+57
          1774.39120	         5.18497e+57
          1775.19750	         5.97034e+57
          1776.00380	         6.43177e+57
          1776.81010	         6.17262e+57
          1777.61640	         7.41213e+57
          1778.42270	         7.40849e+57
          1779.22900	         6.99397e+57
          1780.03530	         6.34786e+57
          1780.84160	         6.70992e+57
          1781.64790	         7.46671e+57
          1782.45420	         6.63170e+57
          1783.26050	         6.80005e+57
          1784.06680	         7.40017e+57
          1784.87310	         7.56457e+57
          1785.67940	         7.80835e+57
          1786.48570	         7.40167e+57
          1787.29200	         6.81720e+57
          1788.09830	         6.31775e+57
          1788.90460	         5.42875e+57
          1789.71090	         4.80860e+57
          1790.51720	         5.18945e+57
          1791.32350	         8.06983e+57
          1792.12980	         9.96261e+57
          1792.93610	         9.49262e+57
          1793.74240	         8.62867e+57
          1794.54870	         8.20621e+57
          1795.35500	         8.97144e+57
          1796.16130	         8.41461e+57
          1796.96760	         6.66266e+57
          1797.77390	         7.52550e+57
          1798.58020	         7.50729e+57
          1799.38650	         6.23278e+57
          1800.19280	         6.88105e+57
          1800.99910	         6.75963e+57
          1801.80540	         6.99150e+57
          1802.61170	         7.50539e+57
          1803.41800	         8.79817e+57
          1804.22430	         8.40222e+57
          1805.03060	         7.63062e+57
          1805.83690	         8.74285e+57
          1806.64320	         8.28768e+57
          1807.44950	         6.82797e+57
          1808.25580	         6.72279e+57
          1809.06210	         7.75157e+57
          1809.86840	         8.26637e+57
          1810.67470	         7.54581e+57
          1811.48100	         8.44672e+57
          1812.28730	         8.40365e+57
          1813.09360	         8.23406e+57
          1813.89990	         8.73743e+57
          1814.70620	         7.51199e+57
          1815.51250	         8.04405e+57
          1816.31880	         7.95965e+57
          1817.12510	         6.85445e+57
          1817.93140	         7.07295e+57
          1818.73770	         7.17666e+57
          1819.54400	         8.93908e+57
          1820.35030	         9.01548e+57
          1821.15660	         6.37675e+57
          1821.96290	         6.05649e+57
          1822.76920	         6.93979e+57
          1823.57550	         7.62574e+57
          1824.38180	         8.04114e+57
          1825.18810	         7.61373e+57
          1825.99440	         7.96579e+57
          1826.80070	         8.68136e+57
          1827.60700	         7.07411e+57
          1828.41330	         5.64752e+57
          1829.21960	         6.43988e+57
          1830.02590	         7.19831e+57
          1830.83220	         7.22988e+57
          1831.63850	         7.36367e+57
          1832.44480	         7.50040e+57
          1833.25110	         8.01003e+57
          1834.05740	         8.84297e+57
          1834.86370	         6.96193e+57
          1835.67000	         5.95310e+57
          1836.47630	         7.91309e+57
          1837.28260	         9.17432e+57
          1838.08890	         8.21753e+57
          1838.89520	         7.63368e+57
          1839.70150	         7.52944e+57
          1840.50780	         7.04011e+57
          1841.31410	         6.67307e+57
          1842.12040	         6.20328e+57
          1842.92670	         6.78925e+57
          1843.73300	         7.11660e+57
          1844.53930	         6.86516e+57
          1845.34560	         6.74692e+57
          1846.15190	         7.13351e+57
          1846.95820	         7.42311e+57
          1847.76450	         6.94732e+57
          1848.57080	         6.77537e+57
          1849.37710	         6.19520e+57
          1850.18340	         7.62115e+57
          1850.98970	         8.39083e+57
          1851.79600	         7.25548e+57
          1852.60230	         7.54897e+57
          1853.40860	         7.84403e+57
          1854.21490	         7.77922e+57
          1855.02120	         6.36408e+57
          1855.82750	         4.00966e+57
          1856.63380	         5.83362e+57
          1857.44010	         7.99325e+57
          1858.24640	         7.47930e+57
          1859.05270	         6.91767e+57
          1859.85900	         6.61607e+57
          1860.66530	         5.80134e+57
          1861.47160	         6.20362e+57
          1862.27790	         7.32489e+57
          1863.08420	         7.60568e+57
          1863.89050	         7.91577e+57
          1864.69680	         6.89303e+57
          1865.50310	         6.79792e+57
          1866.30940	         7.53888e+57
          1867.11570	         6.99472e+57
          1867.92200	         7.85552e+57
          1868.72830	         7.25873e+57
          1869.53460	         7.01917e+57
          1870.34090	         7.55039e+57
          1871.14720	         7.68502e+57
          1871.95350	         7.08107e+57
          1872.75980	         6.85008e+57
          1873.56610	         6.59071e+57
          1874.37240	         6.50721e+57
          1875.17870	         5.05768e+57
          1875.98500	         6.86465e+57
          1876.79130	         7.83365e+57
          1877.59760	         7.12289e+57
          1878.40390	         6.33223e+57
          1879.21020	         6.55571e+57
          1880.01650	         7.31017e+57
          1880.82280	         8.57341e+57
          1881.62910	         8.76467e+57
          1882.43540	         9.30594e+57
          1883.24170	         8.82725e+57
          1884.04800	         7.54192e+57
          1884.85430	         7.60632e+57
          1885.66060	         7.94858e+57
          1886.46690	         8.61903e+57
          1887.27320	         9.00878e+57
          1888.07950	         6.71269e+57
          1888.88580	         6.78676e+57
          1889.69210	         8.05761e+57
          1890.49840	         8.49301e+57
          1891.30470	         8.19326e+57
          1892.11100	         8.42643e+57
          1892.91730	         7.83813e+57
          1893.72360	         8.21277e+57
          1894.52990	         8.54028e+57
          1895.33620	         9.71865e+57
          1896.14250	         8.40857e+57
          1896.94880	         5.99422e+57
          1897.75510	         4.25830e+57
          1898.56140	         6.02666e+57
          1899.36770	         7.89529e+57
          1900.17400	         7.36018e+57
          1900.98030	         7.70025e+57
          1901.78660	         7.28928e+57
          1902.59290	         7.84970e+57
          1903.39920	         8.04830e+57
          1904.20550	         8.61266e+57
          1905.01180	         9.27978e+57
          1905.81810	         9.96056e+57
          1906.62440	         1.33111e+58
          1907.43070	         1.59859e+58
          1908.23700	         1.56989e+58
          1909.04330	         1.30641e+58
          1909.84960	         1.21465e+58
          1910.65590	         1.13491e+58
          1911.46220	         1.03311e+58
          1912.26850	         7.84352e+57
          1913.07480	         6.29993e+57
          1913.88110	         5.98479e+57
          1914.68740	         6.14869e+57
          1915.49370	         5.64071e+57
          1916.30000	         6.59403e+57
          1917.10630	         7.60298e+57
          1917.91260	         6.96078e+57
          1918.71890	         6.21508e+57
          1919.52520	         5.98682e+57
          1920.33150	         6.29699e+57
          1921.13780	         6.97293e+57
          1921.94410	         8.51901e+57
          1922.75040	         7.83891e+57
          1923.55670	         7.68869e+57
          1924.36300	         7.86217e+57
          1925.16930	         5.54115e+57
          1925.97560	         5.53164e+57
          1926.78190	         5.69783e+57
          1927.58820	         5.49738e+57
          1928.39450	         5.10555e+57
          1929.20080	         5.15850e+57
          1930.00710	         7.47220e+57
          1930.81340	         8.32445e+57
          1931.61970	         6.86142e+57
          1932.42600	         7.70668e+57
          1933.23230	         8.68708e+57
          1934.03860	         7.15423e+57
          1934.84490	         5.32332e+57
          1935.65120	         7.78452e+57
          1936.45750	         8.61282e+57
          1937.26380	         6.98740e+57
          1938.07010	         7.62187e+57
          1938.87640	         8.60231e+57
          1939.68270	         8.17473e+57
          1940.48900	         8.96690e+57
          1941.29530	         8.33232e+57
          1942.10160	         8.01427e+57
          1942.90790	         6.99733e+57
          1943.71420	         6.14928e+57
          1944.52050	         5.17939e+57
          1945.32680	         4.86382e+57
          1946.13310	         6.86345e+57
          1946.93940	         8.24602e+57
          1947.74570	         7.55536e+57
          1948.55200	         6.46434e+57
          1949.35830	         7.35644e+57
          1950.16460	         6.25409e+57
          1950.97090	         7.21304e+57
          1951.77720	         8.42866e+57
          1952.58350	         7.71809e+57
          1953.38980	         5.87968e+57
          1954.19610	         4.84256e+57
          1955.00240	         5.79005e+57
          1955.80870	         5.55551e+57
          1956.61500	         5.81763e+57
          1957.42130	         6.63139e+57
          1958.22760	         6.30668e+57
          1959.03390	         7.50669e+57
          1959.84020	         7.71951e+57
          1960.64650	         7.64848e+57
          1961.45280	         6.61785e+57
          1962.25910	         6.56869e+57
          1963.06540	         6.95634e+57
          1963.87170	         6.35328e+57
          1964.67800	         6.79261e+57
          1965.48430	         6.73613e+57
          1966.29060	         4.80244e+57
          1967.09690	         6.93025e+57
          1967.90320	         7.08911e+57
          1968.70950	         6.86395e+57
          1969.51580	         5.76723e+57
          1970.32210	         7.30803e+57
          1971.12840	         7.53019e+57
          1971.93470	         5.29610e+57
          1972.74100	         4.91563e+57
          1973.54730	         7.77625e+57
          1974.35360	         8.07707e+57
          1975.15990	         7.93368e+57
          1975.96620	         7.36828e+57
          1976.77250	         7.82851e+57
          1977.57880	         7.38789e+57
          1978.38510	         6.05237e+57
          1979.19140	         7.02484e+57
          1979.99770	         7.42901e+57
          1980.80400	         6.68899e+57
          1981.61030	         7.23613e+57
          1982.41660	         5.87798e+57
          1983.22290	         6.58228e+57
          1984.02920	         5.75453e+57
          1984.83550	         5.80851e+57
          1985.64180	         6.61418e+57
          1986.44810	         6.60277e+57
          1987.25440	         5.69528e+57
          1988.06070	         5.88444e+57
          1988.86700	         6.25055e+57
          1989.67330	         6.70579e+57
          1990.47960	         7.11567e+57
          1991.28590	         6.66096e+57
          1992.09220	         6.43954e+57
          1992.89850	         6.87386e+57
          1993.70480	         5.66995e+57
          1994.51110	         5.07285e+57
          1995.31740	         4.76506e+57
          1996.12370	         5.53130e+57
          1996.93000	         6.73998e+57
          1997.73630	         7.21666e+57
          1998.54260	         6.58156e+57
          1999.34890	         6.16528e+57
          2000.15520	         6.00008e+57
          2000.96150	         5.23531e+57
          2001.76780	         5.80786e+57
          2002.57410	         5.47824e+57
          2003.38040	         6.09488e+57
          2004.18670	         7.48177e+57
          2004.99300	         6.40241e+57
          2005.79930	         7.27589e+57
          2006.60560	         6.25076e+57
          2007.41190	         5.65761e+57
          2008.21820	         6.78743e+57
          2009.02450	         7.47407e+57
          2009.83080	         6.60841e+57
          2010.63710	         6.25694e+57
          2011.44340	         7.26411e+57
          2012.24970	         7.76223e+57
          2013.05600	         7.77976e+57
          2013.86230	         6.50574e+57
          2014.66860	         4.63824e+57
          2015.47490	         6.28873e+57
          2016.28120	         5.04351e+57
          2017.08750	         5.42135e+57
          2017.89380	         6.50701e+57
          2018.70010	         6.50791e+57
          2019.50640	         6.62080e+57
          2020.31270	         6.64490e+57
          2021.11900	         7.46079e+57
          2021.92530	         7.84660e+57
          2022.73160	         8.10250e+57
          2023.53790	         6.75576e+57
          2024.34420	         6.22662e+57
          2025.15050	         4.95965e+57
          2025.95680	         5.58674e+57
          2026.76310	         6.16945e+57
          2027.56940	         6.22677e+57
          2028.37570	         5.83244e+57
          2029.18200	         6.08928e+57
          2029.98830	         6.35522e+57
          2030.79460	         6.15244e+57
          2031.60090	         6.27288e+57
          2032.40720	         4.91618e+57
          2033.21350	         4.91104e+57
          2034.01980	         4.57986e+57
          2034.82610	         4.21412e+57
          2035.63240	         5.38856e+57
          2036.43870	         6.39793e+57
          2037.24500	         6.74996e+57
          2038.05130	         7.30934e+57
          2038.85760	         5.87002e+57
          2039.66390	         6.45206e+57
          2040.47020	         5.61820e+57
          2041.27650	         6.58827e+57
          2042.08280	         6.29266e+57
          2042.88910	         6.84670e+57
          2043.69540	         5.86954e+57
          2044.50170	         5.56532e+57
          2045.30800	         4.63890e+57
          2046.11430	         3.67176e+57
          2046.92060	         6.18150e+57
          2047.72690	         7.72694e+57
          2048.53320	         6.66163e+57
          2049.33950	         3.58159e+57
          2050.14580	         3.31207e+57
          2050.95210	         5.41405e+57
          2051.75840	         8.72534e+57
          2052.56470	         5.98118e+57
          2053.37100	         4.95203e+57
          2054.17730	         3.41546e+57
          2054.98360	         5.01845e+57
          2055.78990	         3.07254e+57
          2056.59620	         3.45887e+57
          2057.40250	         6.01561e+57
          2058.20880	         6.76070e+57
          2059.01510	         6.79517e+57
          2059.82140	         6.78389e+57
          2060.62770	         9.31892e+57
          2061.43400	         1.53946e+58
          2062.24030	         1.07562e+58
          2063.04660	         4.72501e+57
          2063.85290	         2.15528e+57
          2064.65920	        -1.62426e+57
          2065.46550	        -6.87699e+57
          2066.27180	        -8.09349e+57
          2067.07810	         2.86885e+57
          2067.88440	         5.39685e+57
          2068.69070	         6.23996e+57
          2069.49700	         6.48677e+57
          2070.30330	         3.77516e+57
          2071.10960	         4.17720e+57
          2071.91590	         6.60114e+57
          2072.72220	         4.42110e+57
          2073.52850	         4.67508e+57
          2074.33480	         4.30620e+57
          2075.14110	         4.18760e+57
          2075.94740	         3.66279e+57
          2076.75370	         5.46107e+57
          2077.56000	         4.38402e+57
          2078.36630	         4.33090e+57
          2079.17260	         4.37531e+57
          2079.97890	         5.82254e+57
          2080.78520	         5.51099e+57
          2081.59150	         5.12532e+57
          2082.39780	         5.07207e+57
          2083.20410	         3.63306e+57
          2084.01040	         3.49042e+57
          2084.81670	         4.68749e+57
          2085.62300	         3.53488e+57
          2086.42930	         2.86305e+57
          2087.23560	         3.55657e+57
          2088.04190	         3.51720e+57
          2088.84820	         3.33508e+57
          2089.65450	         2.54714e+57
          2090.46080	         5.34576e+56
          2091.26710	         1.60979e+57
          2092.07340	         2.17033e+57
          2092.87970	         3.20165e+57
          2093.68600	         1.26146e+57
          2094.49230	         2.42370e+57
          2095.29860	         4.64140e+57
          2096.10490	         4.23267e+57
          2096.91120	         1.15572e+57
          2097.71750	         1.51324e+56
          2098.52380	        -1.21800e+57
          2099.33010	        -4.14112e+55
          2100.13640	         4.00317e+56
          2100.94270	         2.37574e+57
          2101.74900	         3.72974e+57
          2102.55530	         1.48743e+57
          2103.36160	         1.68471e+57
          2104.16790	         2.26881e+57
          2104.97420	         1.36496e+57
          2105.78050	         1.33170e+57
          2106.58680	         1.60631e+57
          2107.39310	        -9.84650e+56
          2108.19940	         2.66322e+57
          2109.00570	         2.78312e+56
          2109.81200	         3.32880e+56
          2110.61830	         1.06930e+57
          2111.42460	        -2.53913e+56
          2112.23090	         1.01608e+57
          2113.03720	         9.42838e+56
          2113.84350	        -1.74504e+57
          2114.64980	         3.64895e+57
          2115.45610	        -1.21468e+56
          2116.26240	         3.22643e+56
          2117.06870	        -1.34790e+57
          2117.87500	        -2.48233e+57
          2118.68130	        -3.59587e+57
          2119.48760	         1.45536e+57
          2120.29390	        -2.99141e+56
          2121.10020	        -4.66174e+57
          2121.90650	         1.00511e+56
          2122.71280	        -2.37085e+57
          2123.51910	         4.39816e+57
          2124.32540	         4.03382e+57
          2125.13170	         3.24046e+56
          2125.93800	         5.16222e+56
          2126.74430	         1.06055e+57
          2127.55060	        -1.58637e+57
          2128.35690	        -1.01105e+57
          2129.16320	        -2.03838e+56
          2129.96950	        -1.01840e+57
          2130.77580	         6.98576e+56
          2131.58210	         8.89314e+55
          2132.38840	        -2.09904e+57
          2133.19470	        -4.34648e+57
          2134.00100	        -8.45173e+56
          2134.80730	         2.40952e+57
          2135.61360	        -1.50335e+56
          2136.41990	         6.96218e+57
          2137.22620	         8.41692e+57
          2138.03250	         5.58699e+57
          2138.83880	         2.90814e+56
          2139.64510	        -6.96415e+57
          2140.45140	        -1.84987e+57
          2141.25770	        -8.19041e+57
          2142.06400	        -6.07277e+57
          2142.87030	         2.72439e+57
          2143.67660	         6.97776e+57
          2144.48290	         2.02481e+57
          2145.28920	         1.06952e+58
          2146.09550	        -5.15798e+57
          2146.90180	        -5.49417e+57
          2147.70810	         4.16235e+56
          2148.51440	        -8.73219e+56
          2149.32070	        -5.46296e+57
          2150.12700	        -5.92380e+57
          2150.93330	        -4.52282e+57
          2151.73960	         3.56671e+57
          2152.54590	        -4.49731e+57
          2153.35220	        -5.50836e+57
          2154.15850	        -4.90712e+57
          2154.96480	         5.24283e+57
          2155.77110	        -2.99489e+57
          2156.57740	        -9.30861e+56
          2157.38370	         6.77997e+57
          2158.19000	        -5.50427e+57
          2158.99630	        -1.24935e+58
          2159.80260	        -1.44516e+58
          2160.60890	        -1.54526e+58
          2161.41520	        -5.24544e+57
          2162.22150	        -1.10423e+58
          2163.02780	        -9.25432e+56
          2163.83410	         8.65847e+55
          2164.64040	        -2.50850e+57
          2165.44670	        -1.23399e+58
          2166.25300	        -1.45166e+58
          2167.05930	        -2.93615e+57
          2167.86560	        -6.22398e+57
          2168.67190	        -1.51756e+58
          2169.47820	        -1.34568e+57
          2170.28450	        -2.07414e+57
          2171.09080	         1.85910e+57
          2171.89710	         2.07559e+57
          2172.70340	         1.95740e+57
          2173.50970	        -8.56484e+57
          2174.31600	        -5.73736e+57
          2175.12230	         3.60484e+57
          2175.92860	        -4.66107e+57
          2176.73490	        -7.88369e+57
          2177.54120	        -4.93309e+57
          2178.34750	        -4.37581e+57
          2179.15380	                 nan
          2179.96010	                 nan
          2180.76640	                 nan
          2181.57270	                 nan
          2182.37900	                 nan
          2183.18530	                 nan
          2183.99160	                 nan
          2184.79790	                 nan
          2185.60420	                 nan
          2186.41050	                 nan
          2187.21680	                 nan
          2188.02310	                 nan
          2188.82940	                 nan
          2189.63570	                 nan
          2190.44200	                 nan
          2191.24830	                 nan
          2192.05460	                 nan
          2192.86090	                 nan
          2193.66720	                 nan
          2194.47350	                 nan
          2195.27980	                 nan
          2196.08610	                 nan
          2196.89240	                 nan
          2197.69870	                 nan
          2198.50500	                 nan
          2199.31130	                 nan
          2200.11760	                 nan
          2200.92390	                 nan
          2201.73020	                 nan
          2202.53650	                 nan
          2203.34280	                 nan
          2204.14910	                 nan
          2204.95540	                 nan
          2205.76170	                 nan
          2206.56800	                 nan
          2207.37430	                 nan
          2208.18060	                 nan
          2208.98690	                 nan
          2209.79320	                 nan
          2210.59950	                 nan
          2211.40580	                 nan
          2212.21210	                 nan
          2213.01840	                 nan
          2213.82470	                 nan
          2214.63100	                 nan
          2215.43730	         0.00000e+00
