#sample_407_stacked_spectrum_rest_UV-bands_median_H-alpha_noDC.txt
#median Lum: 1.71204e+42
#Rest-frame wavelength (A) | Luminosity (erg/s/A)
#
          1110.00000	         0.00000e+00
          1110.80630	         5.71319e+59
          1111.61260	         2.27134e+59
          1112.41890	        -7.99372e+58
          1113.22520	        -1.61615e+59
          1114.03150	        -5.42491e+58
          1114.83780	         2.71788e+59
          1115.64410	         2.37706e+59
          1116.45040	         3.70198e+59
          1117.25670	         1.94622e+58
          1118.06300	         2.15645e+59
          1118.86930	         1.91401e+57
          1119.67560	         7.08723e+58
          1120.48190	        -2.78948e+57
          1121.28820	        -4.37843e+56
          1122.09450	         8.61764e+58
          1122.90080	         9.41888e+58
          1123.70710	         5.31727e+58
          1124.51340	         3.46099e+58
          1125.31970	         2.69848e+58
          1126.12600	         2.10252e+58
          1126.93230	        -4.46519e+58
          1127.73860	        -1.04262e+59
          1128.54490	        -9.61133e+57
          1129.35120	        -6.66863e+57
          1130.15750	        -1.63802e+58
          1130.96380	        -2.50772e+58
          1131.77010	         3.01081e+58
          1132.57640	         5.68125e+58
          1133.38270	         4.54458e+58
          1134.18900	         8.64099e+57
          1134.99530	         1.97539e+58
          1135.80160	         2.19310e+58
          1136.60790	         3.42181e+58
          1137.41420	         1.93443e+58
          1138.22050	         2.31437e+58
          1139.02680	         1.97803e+58
          1139.83310	         1.54675e+58
          1140.63940	         5.75228e+57
          1141.44570	        -5.58219e+57
          1142.25200	        -8.84523e+57
          1143.05830	         3.33548e+58
          1143.86460	         2.76772e+58
          1144.67090	         2.94657e+58
          1145.47720	         1.09299e+58
          1146.28350	         9.13263e+57
          1147.08980	         1.23835e+58
          1147.89610	         1.70417e+58
          1148.70240	         3.24482e+58
          1149.50870	         2.78701e+58
          1150.31500	         1.05118e+58
          1151.12130	         2.30125e+58
          1151.92760	         1.42602e+58
          1152.73390	         1.22756e+58
          1153.54020	         5.12574e+57
          1154.34650	         1.54774e+58
          1155.15280	         2.46161e+58
          1155.95910	         8.91591e+57
          1156.76540	        -5.47852e+57
          1157.57170	        -1.16866e+58
          1158.37800	        -8.00094e+57
          1159.18430	        -1.88935e+57
          1159.99060	         1.14762e+58
          1160.79690	         8.59637e+57
          1161.60320	         1.45170e+58
          1162.40950	         1.70457e+58
          1163.21580	         9.50091e+57
          1164.02210	         4.10658e+57
          1164.82840	         4.01212e+57
          1165.63470	         2.04889e+58
          1166.44100	         3.06241e+58
          1167.24730	         2.27639e+58
          1168.05360	         2.11846e+57
          1168.85990	         7.06564e+57
          1169.66620	         5.96507e+57
          1170.47250	         1.43123e+58
          1171.27880	         9.54800e+57
          1172.08510	         6.13294e+57
          1172.89140	         6.62773e+57
          1173.69770	         5.44395e+57
          1174.50400	         1.03950e+58
          1175.31030	         1.82767e+58
          1176.11660	         1.58772e+58
          1176.92290	         1.40687e+58
          1177.72920	         1.01807e+58
          1178.53550	         5.50473e+57
          1179.34180	        -1.22330e+57
          1180.14810	         7.51511e+57
          1180.95440	         1.35280e+58
          1181.76070	         7.73923e+57
          1182.56700	         4.54542e+57
          1183.37330	         3.46682e+57
          1184.17960	         9.94175e+57
          1184.98590	         1.16483e+58
          1185.79220	         6.80185e+57
          1186.59850	         1.43622e+58
          1187.40480	         1.19582e+58
          1188.21110	         1.22446e+58
          1189.01740	         6.31092e+57
          1189.82370	         7.41602e+57
          1190.63000	         8.60837e+57
          1191.43630	         8.79219e+57
          1192.24260	         7.37951e+57
          1193.04890	         1.13447e+58
          1193.85520	         1.29227e+58
          1194.66150	         1.27869e+57
          1195.46780	         4.56583e+57
          1196.27410	         1.20661e+58
          1197.08040	         9.67073e+57
          1197.88670	         1.31767e+58
          1198.69300	         1.53612e+58
          1199.49930	         1.39214e+58
          1200.30560	         1.04128e+58
          1201.11190	         9.14727e+57
          1201.91820	         7.84427e+57
          1202.72450	         6.82288e+57
          1203.53080	         1.16329e+58
          1204.33710	         8.37463e+57
          1205.14340	         3.71689e+57
          1205.94970	         5.39025e+57
          1206.75600	         6.79870e+57
          1207.56230	         7.49241e+57
          1208.36860	         9.01934e+57
          1209.17490	         6.68331e+57
          1209.98120	         8.43198e+57
          1210.78750	         8.72125e+57
          1211.59380	         1.15489e+58
          1212.40010	         1.81828e+58
          1213.20640	         1.68854e+58
          1214.01270	         1.60370e+58
          1214.81900	         2.14993e+58
          1215.62530	         4.15412e+58
          1216.43160	         8.48064e+58
          1217.23790	         1.48299e+59
          1218.04420	         1.19177e+59
          1218.85050	         9.24874e+58
          1219.65680	         6.16798e+58
          1220.46310	         3.73945e+58
          1221.26940	         2.76357e+58
          1222.07570	         1.54015e+58
          1222.88200	         1.31266e+58
          1223.68830	         1.19765e+58
          1224.49460	         8.58551e+57
          1225.30090	         8.92491e+57
          1226.10720	         6.37139e+57
          1226.91350	         6.65651e+57
          1227.71980	         1.36267e+58
          1228.52610	         1.26229e+58
          1229.33240	         7.84382e+57
          1230.13870	         7.00837e+57
          1230.94500	         7.50290e+57
          1231.75130	         4.30413e+57
          1232.55760	         7.39563e+57
          1233.36390	         8.84997e+57
          1234.17020	         8.18377e+57
          1234.97650	         7.62951e+57
          1235.78280	         7.91094e+57
          1236.58910	         8.39140e+57
          1237.39540	         1.00065e+58
          1238.20170	         8.84451e+57
          1239.00800	         1.05910e+58
          1239.81430	         1.24416e+58
          1240.62060	         8.76663e+57
          1241.42690	         9.53057e+57
          1242.23320	         1.18729e+58
          1243.03950	         8.21185e+57
          1243.84580	         7.77895e+57
          1244.65210	         1.04655e+58
          1245.45840	         1.03710e+58
          1246.26470	         6.77800e+57
          1247.07100	         4.79828e+57
          1247.87730	         3.68233e+57
          1248.68360	         2.87911e+57
          1249.48990	         3.66162e+57
          1250.29620	         4.81630e+57
          1251.10250	         7.76305e+57
          1251.90880	         7.88583e+57
          1252.71510	         7.66227e+57
          1253.52140	         8.38828e+57
          1254.32770	         9.67663e+57
          1255.13400	         1.44592e+58
          1255.94030	         1.22364e+58
          1256.74660	         1.02601e+58
          1257.55290	         1.09960e+58
          1258.35920	         8.50371e+57
          1259.16550	         6.79287e+57
          1259.97180	         5.09853e+57
          1260.77810	         8.01427e+57
          1261.58440	         1.24528e+58
          1262.39070	         1.15659e+58
          1263.19700	         1.13849e+58
          1264.00330	         1.12441e+58
          1264.80960	         1.09013e+58
          1265.61590	         1.30940e+58
          1266.42220	         1.27358e+58
          1267.22850	         1.12052e+58
          1268.03480	         1.37219e+58
          1268.84110	         1.52193e+58
          1269.64740	         1.41652e+58
          1270.45370	         1.31907e+58
          1271.26000	         1.42741e+58
          1272.06630	         1.64664e+58
          1272.87260	         1.43594e+58
          1273.67890	         1.32199e+58
          1274.48520	         1.41891e+58
          1275.29150	         1.25325e+58
          1276.09780	         9.95438e+57
          1276.90410	         1.55756e+58
          1277.71040	         1.61535e+58
          1278.51670	         1.39384e+58
          1279.32300	         1.42014e+58
          1280.12930	         1.25579e+58
          1280.93560	         1.13999e+58
          1281.74190	         1.15576e+58
          1282.54820	         1.26814e+58
          1283.35450	         1.23242e+58
          1284.16080	         1.12923e+58
          1284.96710	         1.27227e+58
          1285.77340	         1.20383e+58
          1286.57970	         1.21747e+58
          1287.38600	         1.34278e+58
          1288.19230	         1.56682e+58
          1288.99860	         1.59668e+58
          1289.80490	         1.20142e+58
          1290.61120	         1.37837e+58
          1291.41750	         1.37517e+58
          1292.22380	         1.01700e+58
          1293.03010	         7.60495e+57
          1293.83640	         1.10722e+58
          1294.64270	         1.13267e+58
          1295.44900	         7.39025e+57
          1296.25530	         9.59874e+57
          1297.06160	         1.04371e+58
          1297.86790	         9.42260e+57
          1298.67420	         9.43346e+57
          1299.48050	         8.54725e+57
          1300.28680	         9.35451e+57
          1301.09310	         7.53432e+57
          1301.89940	         3.51981e+57
          1302.70570	         5.42208e+57
          1303.51200	         7.57304e+57
          1304.31830	         8.13531e+57
          1305.12460	         1.05777e+58
          1305.93090	         1.15306e+58
          1306.73720	         1.25950e+58
          1307.54350	         1.49702e+58
          1308.34980	         1.53669e+58
          1309.15610	         1.51226e+58
          1309.96240	         1.47511e+58
          1310.76870	         1.06920e+58
          1311.57500	         1.00137e+58
          1312.38130	         1.16559e+58
          1313.18760	         1.24248e+58
          1313.99390	         1.61199e+58
          1314.80020	         1.69411e+58
          1315.60650	         1.53114e+58
          1316.41280	         1.27081e+58
          1317.21910	         1.14316e+58
          1318.02540	         1.23390e+58
          1318.83170	         1.42773e+58
          1319.63800	         1.33821e+58
          1320.44430	         1.18464e+58
          1321.25060	         1.23403e+58
          1322.05690	         1.30320e+58
          1322.86320	         1.21693e+58
          1323.66950	         1.19880e+58
          1324.47580	         1.00267e+58
          1325.28210	         8.44318e+57
          1326.08840	         1.14191e+58
          1326.89470	         1.46082e+58
          1327.70100	         1.16366e+58
          1328.50730	         7.40487e+57
          1329.31360	         8.56499e+57
          1330.11990	         1.02500e+58
          1330.92620	         9.13033e+57
          1331.73250	         1.02006e+58
          1332.53880	         1.10320e+58
          1333.34510	         1.04469e+58
          1334.15140	         9.24620e+57
          1334.95770	         8.50799e+57
          1335.76400	         1.10745e+58
          1336.57030	         1.14937e+58
          1337.37660	         9.66708e+57
          1338.18290	         1.15658e+58
          1338.98920	         1.35266e+58
          1339.79550	         1.35116e+58
          1340.60180	         1.38717e+58
          1341.40810	         1.32275e+58
          1342.21440	         1.15347e+58
          1343.02070	         1.19146e+58
          1343.82700	         1.26504e+58
          1344.63330	         1.08530e+58
          1345.43960	         1.20196e+58
          1346.24590	         1.16164e+58
          1347.05220	         1.31449e+58
          1347.85850	         1.36869e+58
          1348.66480	         1.29454e+58
          1349.47110	         1.22041e+58
          1350.27740	         1.32238e+58
          1351.08370	         1.32021e+58
          1351.89000	         1.31923e+58
          1352.69630	         1.22787e+58
          1353.50260	         1.10264e+58
          1354.30890	         1.19378e+58
          1355.11520	         1.23112e+58
          1355.92150	         1.07838e+58
          1356.72780	         1.09088e+58
          1357.53410	         1.07487e+58
          1358.34040	         1.17921e+58
          1359.14670	         1.15723e+58
          1359.95300	         1.19890e+58
          1360.75930	         1.24104e+58
          1361.56560	         1.14797e+58
          1362.37190	         1.18805e+58
          1363.17820	         1.16311e+58
          1363.98450	         1.21927e+58
          1364.79080	         1.25669e+58
          1365.59710	         1.20010e+58
          1366.40340	         1.24399e+58
          1367.20970	         1.14587e+58
          1368.01600	         1.12964e+58
          1368.82230	         1.15131e+58
          1369.62860	         1.05330e+58
          1370.43490	         9.49056e+57
          1371.24120	         8.34707e+57
          1372.04750	         8.64332e+57
          1372.85380	         1.12405e+58
          1373.66010	         1.08675e+58
          1374.46640	         9.06006e+57
          1375.27270	         9.32522e+57
          1376.07900	         9.51598e+57
          1376.88530	         9.39617e+57
          1377.69160	         8.38365e+57
          1378.49790	         7.25492e+57
          1379.30420	         8.38065e+57
          1380.11050	         8.41798e+57
          1380.91680	         7.63421e+57
          1381.72310	         8.56102e+57
          1382.52940	         8.67421e+57
          1383.33570	         8.40193e+57
          1384.14200	         9.47371e+57
          1384.94830	         1.10522e+58
          1385.75460	         1.02567e+58
          1386.56090	         1.04045e+58
          1387.36720	         1.25488e+58
          1388.17350	         1.32037e+58
          1388.97980	         1.08683e+58
          1389.78610	         9.29644e+57
          1390.59240	         7.83022e+57
          1391.39870	         7.03703e+57
          1392.20500	         6.92652e+57
          1393.01130	         7.60460e+57
          1393.81760	         7.67518e+57
          1394.62390	         8.39154e+57
          1395.43020	         6.28627e+57
          1396.23650	         6.08061e+57
          1397.04280	         7.69339e+57
          1397.84910	         8.97365e+57
          1398.65540	         9.03841e+57
          1399.46170	         9.61198e+57
          1400.26800	         8.63935e+57
          1401.07430	         8.23366e+57
          1401.88060	         7.48315e+57
          1402.68690	         9.04708e+57
          1403.49320	         9.64971e+57
          1404.29950	         9.77261e+57
          1405.10580	         1.04129e+58
          1405.91210	         1.12016e+58
          1406.71840	         1.20420e+58
          1407.52470	         1.20822e+58
          1408.33100	         1.15511e+58
          1409.13730	         1.21019e+58
          1409.94360	         1.13492e+58
          1410.74990	         1.10364e+58
          1411.55620	         9.69786e+57
          1412.36250	         8.55427e+57
          1413.16880	         8.36903e+57
          1413.97510	         7.78207e+57
          1414.78140	         9.50050e+57
          1415.58770	         1.04765e+58
          1416.39400	         9.32315e+57
          1417.20030	         9.43367e+57
          1418.00660	         1.02505e+58
          1418.81290	         1.05780e+58
          1419.61920	         1.01940e+58
          1420.42550	         1.23394e+58
          1421.23180	         1.33784e+58
          1422.03810	         1.20475e+58
          1422.84440	         1.14718e+58
          1423.65070	         1.29796e+58
          1424.45700	         1.15587e+58
          1425.26330	         8.53227e+57
          1426.06960	         8.99446e+57
          1426.87590	         1.03351e+58
          1427.68220	         1.00059e+58
          1428.48850	         1.02395e+58
          1429.29480	         9.90071e+57
          1430.10110	         9.74536e+57
          1430.90740	         8.03422e+57
          1431.71370	         8.93209e+57
          1432.52000	         9.30601e+57
          1433.32630	         7.70769e+57
          1434.13260	         8.53094e+57
          1434.93890	         8.79995e+57
          1435.74520	         9.26163e+57
          1436.55150	         9.93644e+57
          1437.35780	         8.89562e+57
          1438.16410	         8.84256e+57
          1438.97040	         9.17534e+57
          1439.77670	         8.66542e+57
          1440.58300	         8.69288e+57
          1441.38930	         9.33883e+57
          1442.19560	         9.03293e+57
          1443.00190	         9.27445e+57
          1443.80820	         1.06886e+58
          1444.61450	         9.58442e+57
          1445.42080	         9.24204e+57
          1446.22710	         1.07692e+58
          1447.03340	         9.52777e+57
          1447.83970	         9.81992e+57
          1448.64600	         9.23068e+57
          1449.45230	         1.04612e+58
          1450.25860	         9.89441e+57
          1451.06490	         8.08424e+57
          1451.87120	         6.98398e+57
          1452.67750	         7.48993e+57
          1453.48380	         9.34053e+57
          1454.29010	         7.95043e+57
          1455.09640	         6.77684e+57
          1455.90270	         8.25084e+57
          1456.70900	         8.64240e+57
          1457.51530	         9.25982e+57
          1458.32160	         1.18321e+58
          1459.12790	         1.20765e+58
          1459.93420	         1.04651e+58
          1460.74050	         8.75642e+57
          1461.54680	         8.90275e+57
          1462.35310	         8.95314e+57
          1463.15940	         9.67833e+57
          1463.96570	         1.07257e+58
          1464.77200	         1.26917e+58
          1465.57830	         1.17594e+58
          1466.38460	         9.49753e+57
          1467.19090	         8.64139e+57
          1467.99720	         8.34732e+57
          1468.80350	         8.92364e+57
          1469.60980	         1.01664e+58
          1470.41610	         1.02124e+58
          1471.22240	         9.28010e+57
          1472.02870	         9.28554e+57
          1472.83500	         1.03521e+58
          1473.64130	         1.06052e+58
          1474.44760	         9.93845e+57
          1475.25390	         9.50536e+57
          1476.06020	         9.09442e+57
          1476.86650	         8.94556e+57
          1477.67280	         8.20015e+57
          1478.47910	         6.83275e+57
          1479.28540	         6.04163e+57
          1480.09170	         8.01164e+57
          1480.89800	         9.01871e+57
          1481.70430	         8.34948e+57
          1482.51060	         9.00309e+57
          1483.31690	         8.74503e+57
          1484.12320	         7.67168e+57
          1484.92950	         7.48941e+57
          1485.73580	         7.63811e+57
          1486.54210	         9.09361e+57
          1487.34840	         8.31268e+57
          1488.15470	         7.02533e+57
          1488.96100	         8.46146e+57
          1489.76730	         9.25464e+57
          1490.57360	         8.24050e+57
          1491.37990	         7.21479e+57
          1492.18620	         6.87937e+57
          1492.99250	         7.72059e+57
          1493.79880	         8.78718e+57
          1494.60510	         9.15345e+57
          1495.41140	         7.70106e+57
          1496.21770	         8.31078e+57
          1497.02400	         1.02048e+58
          1497.83030	         9.18178e+57
          1498.63660	         7.63547e+57
          1499.44290	         6.62874e+57
          1500.24920	         6.82059e+57
          1501.05550	         7.49474e+57
          1501.86180	         8.19956e+57
          1502.66810	         8.89416e+57
          1503.47440	         8.39894e+57
          1504.28070	         8.25457e+57
          1505.08700	         9.37854e+57
          1505.89330	         9.98149e+57
          1506.69960	         8.80194e+57
          1507.50590	         8.08062e+57
          1508.31220	         8.02746e+57
          1509.11850	         8.37035e+57
          1509.92480	         8.74702e+57
          1510.73110	         9.79183e+57
          1511.53740	         8.34638e+57
          1512.34370	         7.44792e+57
          1513.15000	         8.86915e+57
          1513.95630	         9.40886e+57
          1514.76260	         9.63874e+57
          1515.56890	         9.08106e+57
          1516.37520	         8.91125e+57
          1517.18150	         7.83185e+57
          1517.98780	         8.08696e+57
          1518.79410	         8.27131e+57
          1519.60040	         7.99582e+57
          1520.40670	         8.69654e+57
          1521.21300	         8.87595e+57
          1522.01930	         7.91805e+57
          1522.82560	         9.30480e+57
          1523.63190	         1.09008e+58
          1524.43820	         8.86620e+57
          1525.24450	         5.79832e+57
          1526.05080	         5.47074e+57
          1526.85710	         6.03779e+57
          1527.66340	         7.63275e+57
          1528.46970	         7.87853e+57
          1529.27600	         6.55839e+57
          1530.08230	         6.42367e+57
          1530.88860	         7.74939e+57
          1531.69490	         9.33078e+57
          1532.50120	         9.64448e+57
          1533.30750	         9.95421e+57
          1534.11380	         9.85631e+57
          1534.92010	         9.90017e+57
          1535.72640	         9.85633e+57
          1536.53270	         9.74683e+57
          1537.33900	         9.66681e+57
          1538.14530	         9.01542e+57
          1538.95160	         8.70652e+57
          1539.75790	         7.97658e+57
          1540.56420	         8.07518e+57
          1541.37050	         8.15509e+57
          1542.17680	         6.92338e+57
          1542.98310	         7.59471e+57
          1543.78940	         7.43673e+57
          1544.59570	         6.70548e+57
          1545.40200	         8.04941e+57
          1546.20830	         8.88292e+57
          1547.01460	         1.06237e+58
          1547.82090	         1.15163e+58
          1548.62720	         1.22703e+58
          1549.43350	         1.14549e+58
          1550.23980	         1.01230e+58
          1551.04610	         1.18971e+58
          1551.85240	         1.25068e+58
          1552.65870	         1.08527e+58
          1553.46500	         1.10655e+58
          1554.27130	         1.11731e+58
          1555.07760	         1.00499e+58
          1555.88390	         9.01431e+57
          1556.69020	         8.69912e+57
          1557.49650	         9.01648e+57
          1558.30280	         8.64315e+57
          1559.10910	         8.24221e+57
          1559.91540	         9.52113e+57
          1560.72170	         9.33463e+57
          1561.52800	         9.04593e+57
          1562.33430	         9.41998e+57
          1563.14060	         8.96673e+57
          1563.94690	         8.40216e+57
          1564.75320	         8.51269e+57
          1565.55950	         7.17935e+57
          1566.36580	         6.68316e+57
          1567.17210	         8.38615e+57
          1567.97840	         9.86968e+57
          1568.78470	         8.57868e+57
          1569.59100	         8.97932e+57
          1570.39730	         8.70766e+57
          1571.20360	         7.26328e+57
          1572.00990	         7.25278e+57
          1572.81620	         8.21704e+57
          1573.62250	         1.06256e+58
          1574.42880	         1.04011e+58
          1575.23510	         8.76824e+57
          1576.04140	         8.87428e+57
          1576.84770	         1.03990e+58
          1577.65400	         1.03022e+58
          1578.46030	         1.04574e+58
          1579.26660	         9.81852e+57
          1580.07290	         8.88431e+57
          1580.87920	         7.76420e+57
          1581.68550	         7.26604e+57
          1582.49180	         8.46976e+57
          1583.29810	         8.24247e+57
          1584.10440	         8.37831e+57
          1584.91070	         8.44081e+57
          1585.71700	         9.02244e+57
          1586.52330	         1.01661e+58
          1587.32960	         9.09140e+57
          1588.13590	         7.47484e+57
          1588.94220	         7.90189e+57
          1589.74850	         8.89246e+57
          1590.55480	         1.00934e+58
          1591.36110	         9.28268e+57
          1592.16740	         8.53531e+57
          1592.97370	         8.42190e+57
          1593.78000	         8.82758e+57
          1594.58630	         9.17398e+57
          1595.39260	         8.96721e+57
          1596.19890	         9.05906e+57
          1597.00520	         9.32513e+57
          1597.81150	         9.55959e+57
          1598.61780	         8.02006e+57
          1599.42410	         8.21254e+57
          1600.23040	         7.76178e+57
          1601.03670	         7.89906e+57
          1601.84300	         8.06612e+57
          1602.64930	         8.27406e+57
          1603.45560	         8.70024e+57
          1604.26190	         8.20000e+57
          1605.06820	         7.97238e+57
          1605.87450	         7.38756e+57
          1606.68080	         7.01349e+57
          1607.48710	         6.67867e+57
          1608.29340	         6.49683e+57
          1609.09970	         7.28424e+57
          1609.90600	         7.99822e+57
          1610.71230	         7.49252e+57
          1611.51860	         7.69532e+57
          1612.32490	         7.76400e+57
          1613.13120	         8.32825e+57
          1613.93750	         8.64358e+57
          1614.74380	         8.27184e+57
          1615.55010	         8.47159e+57
          1616.35640	         9.16524e+57
          1617.16270	         1.05077e+58
          1617.96900	         1.06975e+58
          1618.77530	         9.72786e+57
          1619.58160	         8.57485e+57
          1620.38790	         8.30444e+57
          1621.19420	         9.96174e+57
          1622.00050	         8.94382e+57
          1622.80680	         8.00799e+57
          1623.61310	         9.38109e+57
          1624.41940	         8.68357e+57
          1625.22570	         9.02116e+57
          1626.03200	         9.02175e+57
          1626.83830	         9.33993e+57
          1627.64460	         8.46728e+57
          1628.45090	         6.96236e+57
          1629.25720	         7.86558e+57
          1630.06350	         8.86877e+57
          1630.86980	         6.50621e+57
          1631.67610	         6.51644e+57
          1632.48240	         8.49879e+57
          1633.28870	         9.75217e+57
          1634.09500	         1.00996e+58
          1634.90130	         1.12319e+58
          1635.70760	         9.07429e+57
          1636.51390	         6.53598e+57
          1637.32020	         7.92748e+57
          1638.12650	         9.72834e+57
          1638.93280	         1.04633e+58
          1639.73910	         1.20256e+58
          1640.54540	         1.22065e+58
          1641.35170	         1.00920e+58
          1642.15800	         1.01367e+58
          1642.96430	         9.67930e+57
          1643.77060	         9.80363e+57
          1644.57690	         8.83946e+57
          1645.38320	         9.53417e+57
          1646.18950	         7.89689e+57
          1646.99580	         7.65881e+57
          1647.80210	         7.39154e+57
          1648.60840	         7.51751e+57
          1649.41470	         8.16690e+57
          1650.22100	         7.28055e+57
          1651.02730	         7.30079e+57
          1651.83360	         7.84531e+57
          1652.63990	         9.08773e+57
          1653.44620	         1.01887e+58
          1654.25250	         9.06475e+57
          1655.05880	         7.57655e+57
          1655.86510	         8.00791e+57
          1656.67140	         8.16475e+57
          1657.47770	         7.88178e+57
          1658.28400	         7.97770e+57
          1659.09030	         8.61377e+57
          1659.89660	         9.03320e+57
          1660.70290	         1.02657e+58
          1661.50920	         1.02908e+58
          1662.31550	         9.22705e+57
          1663.12180	         9.42863e+57
          1663.92810	         9.90730e+57
          1664.73440	         1.07155e+58
          1665.54070	         1.15489e+58
          1666.34700	         1.20022e+58
          1667.15330	         1.10750e+58
          1667.95960	         9.08105e+57
          1668.76590	         7.90420e+57
          1669.57220	         7.03607e+57
          1670.37850	         6.99813e+57
          1671.18480	         7.19610e+57
          1671.99110	         7.41134e+57
          1672.79740	         6.79019e+57
          1673.60370	         6.63429e+57
          1674.41000	         7.70885e+57
          1675.21630	         7.13214e+57
          1676.02260	         6.85254e+57
          1676.82890	         7.53127e+57
          1677.63520	         7.18732e+57
          1678.44150	         6.52874e+57
          1679.24780	         8.67440e+57
          1680.05410	         8.06535e+57
          1680.86040	         6.05789e+57
          1681.66670	         7.05023e+57
          1682.47300	         8.06763e+57
          1683.27930	         8.46936e+57
          1684.08560	         9.37860e+57
          1684.89190	         8.06990e+57
          1685.69820	         6.51136e+57
          1686.50450	         6.16407e+57
          1687.31080	         7.30613e+57
          1688.11710	         8.17260e+57
          1688.92340	         6.99577e+57
          1689.72970	         6.53126e+57
          1690.53600	         7.06708e+57
          1691.34230	         7.93346e+57
          1692.14860	         7.89451e+57
          1692.95490	         7.23291e+57
          1693.76120	         7.38813e+57
          1694.56750	         6.90561e+57
          1695.37380	         9.35898e+57
          1696.18010	         9.87520e+57
          1696.98640	         9.75382e+57
          1697.79270	         9.07533e+57
          1698.59900	         7.98255e+57
          1699.40530	         7.51139e+57
          1700.21160	         8.49314e+57
          1701.01790	         8.06535e+57
          1701.82420	         7.61570e+57
          1702.63050	         8.48801e+57
          1703.43680	         9.60033e+57
          1704.24310	         8.80920e+57
          1705.04940	         7.74117e+57
          1705.85570	         7.47925e+57
          1706.66200	         8.62828e+57
          1707.46830	         9.15327e+57
          1708.27460	         7.26559e+57
          1709.08090	         6.05021e+57
          1709.88720	         6.14652e+57
          1710.69350	         6.63393e+57
          1711.49980	         6.77660e+57
          1712.30610	         7.61061e+57
          1713.11240	         9.17042e+57
          1713.91870	         7.58638e+57
          1714.72500	         8.39613e+57
          1715.53130	         9.53793e+57
          1716.33760	         8.72358e+57
          1717.14390	         7.98106e+57
          1717.95020	         8.54051e+57
          1718.75650	         8.05787e+57
          1719.56280	         8.29679e+57
          1720.36910	         7.55345e+57
          1721.17540	         6.99288e+57
          1721.98170	         6.25594e+57
          1722.78800	         6.43248e+57
          1723.59430	         6.91248e+57
          1724.40060	         8.20367e+57
          1725.20690	         9.08239e+57
          1726.01320	         8.97743e+57
          1726.81950	         7.50950e+57
          1727.62580	         7.19032e+57
          1728.43210	         6.97929e+57
          1729.23840	         8.09541e+57
          1730.04470	         9.17531e+57
          1730.85100	         8.40405e+57
          1731.65730	         7.38550e+57
          1732.46360	         7.75360e+57
          1733.26990	         7.85678e+57
          1734.07620	         7.87258e+57
          1734.88250	         8.41397e+57
          1735.68880	         8.51230e+57
          1736.49510	         8.07078e+57
          1737.30140	         7.80913e+57
          1738.10770	         7.70658e+57
          1738.91400	         8.11749e+57
          1739.72030	         7.71205e+57
          1740.52660	         7.36190e+57
          1741.33290	         7.64634e+57
          1742.13920	         6.30643e+57
          1742.94550	         7.05818e+57
          1743.75180	         7.63815e+57
          1744.55810	         7.87117e+57
          1745.36440	         7.64439e+57
          1746.17070	         6.06242e+57
          1746.97700	         5.32965e+57
          1747.78330	         6.07169e+57
          1748.58960	         7.06898e+57
          1749.39590	         7.52066e+57
          1750.20220	         6.91616e+57
          1751.00850	         6.17312e+57
          1751.81480	         5.78965e+57
          1752.62110	         6.61229e+57
          1753.42740	         8.20604e+57
          1754.23370	         6.89080e+57
          1755.04000	         6.80640e+57
          1755.84630	         7.83246e+57
          1756.65260	         7.48535e+57
          1757.45890	         7.72127e+57
          1758.26520	         7.00582e+57
          1759.07150	         8.52404e+57
          1759.87780	         9.15115e+57
          1760.68410	         8.96519e+57
          1761.49040	         8.60138e+57
          1762.29670	         7.29505e+57
          1763.10300	         7.75452e+57
          1763.90930	         8.26122e+57
          1764.71560	         7.92434e+57
          1765.52190	         7.61834e+57
          1766.32820	         9.24674e+57
          1767.13450	         8.92064e+57
          1767.94080	         7.23819e+57
          1768.74710	         7.35991e+57
          1769.55340	         8.01533e+57
          1770.35970	         7.16975e+57
          1771.16600	         7.48156e+57
          1771.97230	         8.39643e+57
          1772.77860	         8.68584e+57
          1773.58490	         7.15275e+57
          1774.39120	         6.67739e+57
          1775.19750	         6.88345e+57
          1776.00380	         6.66599e+57
          1776.81010	         6.52594e+57
          1777.61640	         6.62193e+57
          1778.42270	         7.08302e+57
          1779.22900	         7.27033e+57
          1780.03530	         7.36238e+57
          1780.84160	         8.17171e+57
          1781.64790	         8.24418e+57
          1782.45420	         7.08111e+57
          1783.26050	         6.49781e+57
          1784.06680	         6.61005e+57
          1784.87310	         6.97616e+57
          1785.67940	         7.64491e+57
          1786.48570	         7.38300e+57
          1787.29200	         6.60277e+57
          1788.09830	         6.78010e+57
          1788.90460	         6.42660e+57
          1789.71090	         5.45482e+57
          1790.51720	         4.76564e+57
          1791.32350	         7.40872e+57
          1792.12980	         8.33156e+57
          1792.93610	         8.39396e+57
          1793.74240	         7.88059e+57
          1794.54870	         8.21259e+57
          1795.35500	         7.68053e+57
          1796.16130	         8.14532e+57
          1796.96760	         7.07013e+57
          1797.77390	         7.16959e+57
          1798.58020	         7.44543e+57
          1799.38650	         6.84122e+57
          1800.19280	         6.69455e+57
          1800.99910	         7.84871e+57
          1801.80540	         8.93855e+57
          1802.61170	         9.49207e+57
          1803.41800	         8.63779e+57
          1804.22430	         7.90152e+57
          1805.03060	         7.42628e+57
          1805.83690	         7.71319e+57
          1806.64320	         8.47922e+57
          1807.44950	         7.22787e+57
          1808.25580	         7.15554e+57
          1809.06210	         8.57204e+57
          1809.86840	         6.55003e+57
          1810.67470	         6.93982e+57
          1811.48100	         9.03507e+57
          1812.28730	         8.56908e+57
          1813.09360	         7.54775e+57
          1813.89990	         7.82019e+57
          1814.70620	         8.03580e+57
          1815.51250	         7.99005e+57
          1816.31880	         9.07570e+57
          1817.12510	         9.08364e+57
          1817.93140	         8.34928e+57
          1818.73770	         8.20992e+57
          1819.54400	         8.96343e+57
          1820.35030	         8.71528e+57
          1821.15660	         6.14499e+57
          1821.96290	         6.73785e+57
          1822.76920	         7.36834e+57
          1823.57550	         8.18814e+57
          1824.38180	         8.10842e+57
          1825.18810	         7.62707e+57
          1825.99440	         8.13908e+57
          1826.80070	         7.67748e+57
          1827.60700	         6.66438e+57
          1828.41330	         7.05077e+57
          1829.21960	         7.16640e+57
          1830.02590	         6.74280e+57
          1830.83220	         8.26007e+57
          1831.63850	         8.14156e+57
          1832.44480	         7.75150e+57
          1833.25110	         8.80046e+57
          1834.05740	         8.48484e+57
          1834.86370	         7.12588e+57
          1835.67000	         5.82080e+57
          1836.47630	         7.24398e+57
          1837.28260	         8.83757e+57
          1838.08890	         8.91652e+57
          1838.89520	         8.78068e+57
          1839.70150	         8.20645e+57
          1840.50780	         7.47390e+57
          1841.31410	         7.13172e+57
          1842.12040	         6.47635e+57
          1842.92670	         6.68485e+57
          1843.73300	         6.75544e+57
          1844.53930	         7.35741e+57
          1845.34560	         8.21498e+57
          1846.15190	         8.02025e+57
          1846.95820	         7.73992e+57
          1847.76450	         7.28175e+57
          1848.57080	         5.50074e+57
          1849.37710	         6.64221e+57
          1850.18340	         8.32544e+57
          1850.98970	         7.76958e+57
          1851.79600	         8.58342e+57
          1852.60230	         7.84826e+57
          1853.40860	         6.80796e+57
          1854.21490	         6.44328e+57
          1855.02120	         6.34413e+57
          1855.82750	         4.16429e+57
          1856.63380	         5.20606e+57
          1857.44010	         7.25426e+57
          1858.24640	         7.57534e+57
          1859.05270	         6.68025e+57
          1859.85900	         5.26031e+57
          1860.66530	         6.23451e+57
          1861.47160	         6.64223e+57
          1862.27790	         7.02794e+57
          1863.08420	         6.68475e+57
          1863.89050	         7.17533e+57
          1864.69680	         7.60503e+57
          1865.50310	         7.77423e+57
          1866.30940	         6.87587e+57
          1867.11570	         7.17300e+57
          1867.92200	         7.40194e+57
          1868.72830	         7.70474e+57
          1869.53460	         7.48596e+57
          1870.34090	         8.09418e+57
          1871.14720	         8.54617e+57
          1871.95350	         6.82531e+57
          1872.75980	         6.94703e+57
          1873.56610	         6.59073e+57
          1874.37240	         5.58463e+57
          1875.17870	         6.37482e+57
          1875.98500	         7.32354e+57
          1876.79130	         8.13527e+57
          1877.59760	         7.69865e+57
          1878.40390	         6.21015e+57
          1879.21020	         6.23712e+57
          1880.01650	         6.96694e+57
          1880.82280	         7.95310e+57
          1881.62910	         8.65657e+57
          1882.43540	         1.04865e+58
          1883.24170	         8.47588e+57
          1884.04800	         5.99102e+57
          1884.85430	         7.10356e+57
          1885.66060	         7.10141e+57
          1886.46690	         7.28599e+57
          1887.27320	         7.54166e+57
          1888.07950	         7.09067e+57
          1888.88580	         7.09155e+57
          1889.69210	         9.08776e+57
          1890.49840	         9.43496e+57
          1891.30470	         8.92389e+57
          1892.11100	         8.23264e+57
          1892.91730	         8.32115e+57
          1893.72360	         7.42557e+57
          1894.52990	         7.04147e+57
          1895.33620	         7.55089e+57
          1896.14250	         6.59121e+57
          1896.94880	         5.20173e+57
          1897.75510	         4.63010e+57
          1898.56140	         7.18399e+57
          1899.36770	         8.41637e+57
          1900.17400	         7.34314e+57
          1900.98030	         7.19657e+57
          1901.78660	         7.26202e+57
          1902.59290	         6.62378e+57
          1903.39920	         8.41868e+57
          1904.20550	         9.53207e+57
          1905.01180	         9.07091e+57
          1905.81810	         1.01778e+58
          1906.62440	         1.23845e+58
          1907.43070	         1.47936e+58
          1908.23700	         1.59926e+58
          1909.04330	         1.32552e+58
          1909.84960	         1.06237e+58
          1910.65590	         9.57084e+57
          1911.46220	         9.94212e+57
          1912.26850	         8.16723e+57
          1913.07480	         6.93064e+57
          1913.88110	         5.62022e+57
          1914.68740	         5.76696e+57
          1915.49370	         6.54124e+57
          1916.30000	         7.01073e+57
          1917.10630	         7.55574e+57
          1917.91260	         6.86100e+57
          1918.71890	         6.66625e+57
          1919.52520	         6.11633e+57
          1920.33150	         5.42363e+57
          1921.13780	         7.10551e+57
          1921.94410	         8.49998e+57
          1922.75040	         7.07626e+57
          1923.55670	         7.10864e+57
          1924.36300	         7.19553e+57
          1925.16930	         5.56150e+57
          1925.97560	         5.32214e+57
          1926.78190	         4.75389e+57
          1927.58820	         6.31335e+57
          1928.39450	         6.61811e+57
          1929.20080	         5.11148e+57
          1930.00710	         6.74778e+57
          1930.81340	         8.65997e+57
          1931.61970	         7.50539e+57
          1932.42600	         8.24383e+57
          1933.23230	         8.64063e+57
          1934.03860	         7.11029e+57
          1934.84490	         5.88955e+57
          1935.65120	         8.42170e+57
          1936.45750	         9.61779e+57
          1937.26380	         7.65470e+57
          1938.07010	         8.13993e+57
          1938.87640	         8.47534e+57
          1939.68270	         7.10367e+57
          1940.48900	         7.27148e+57
          1941.29530	         7.85696e+57
          1942.10160	         7.36906e+57
          1942.90790	         6.59783e+57
          1943.71420	         6.55681e+57
          1944.52050	         6.77641e+57
          1945.32680	         7.11205e+57
          1946.13310	         8.44443e+57
          1946.93940	         8.60146e+57
          1947.74570	         8.45517e+57
          1948.55200	         7.03334e+57
          1949.35830	         6.20167e+57
          1950.16460	         6.14591e+57
          1950.97090	         6.46893e+57
          1951.77720	         7.39794e+57
          1952.58350	         8.27310e+57
          1953.38980	         7.48349e+57
          1954.19610	         4.32805e+57
          1955.00240	         5.43559e+57
          1955.80870	         5.29471e+57
          1956.61500	         6.33062e+57
          1957.42130	         7.05409e+57
          1958.22760	         6.04477e+57
          1959.03390	         6.57181e+57
          1959.84020	         6.51008e+57
          1960.64650	         6.41422e+57
          1961.45280	         6.97456e+57
          1962.25910	         7.18155e+57
          1963.06540	         6.73059e+57
          1963.87170	         6.73974e+57
          1964.67800	         7.58258e+57
          1965.48430	         7.42622e+57
          1966.29060	         7.22928e+57
          1967.09690	         7.17825e+57
          1967.90320	         6.65039e+57
          1968.70950	         6.81458e+57
          1969.51580	         5.22146e+57
          1970.32210	         7.12726e+57
          1971.12840	         7.80567e+57
          1971.93470	         4.61954e+57
          1972.74100	         5.51700e+57
          1973.54730	         6.53326e+57
          1974.35360	         6.96419e+57
          1975.15990	         7.94245e+57
          1975.96620	         6.42226e+57
          1976.77250	         7.98454e+57
          1977.57880	         7.70105e+57
          1978.38510	         6.07550e+57
          1979.19140	         7.74109e+57
          1979.99770	         7.85507e+57
          1980.80400	         8.28162e+57
          1981.61030	         7.08604e+57
          1982.41660	         6.09675e+57
          1983.22290	         7.10942e+57
          1984.02920	         5.20741e+57
          1984.83550	         6.15468e+57
          1985.64180	         7.46980e+57
          1986.44810	         6.71776e+57
          1987.25440	         5.89424e+57
          1988.06070	         6.13234e+57
          1988.86700	         6.40584e+57
          1989.67330	         6.88751e+57
          1990.47960	         5.62409e+57
          1991.28590	         6.74602e+57
          1992.09220	         6.41276e+57
          1992.89850	         5.32375e+57
          1993.70480	         4.35250e+57
          1994.51110	         4.22606e+57
          1995.31740	         4.57041e+57
          1996.12370	         4.64907e+57
          1996.93000	         5.47614e+57
          1997.73630	         7.88931e+57
          1998.54260	         7.93847e+57
          1999.34890	         7.97573e+57
          2000.15520	         6.79989e+57
          2000.96150	         5.86212e+57
          2001.76780	         5.45501e+57
          2002.57410	         4.82107e+57
          2003.38040	         6.57730e+57
          2004.18670	         6.34001e+57
          2004.99300	         6.71561e+57
          2005.79930	         7.73246e+57
          2006.60560	         6.71303e+57
          2007.41190	         5.95621e+57
          2008.21820	         6.60381e+57
          2009.02450	         6.66472e+57
          2009.83080	         5.88767e+57
          2010.63710	         5.72759e+57
          2011.44340	         6.52558e+57
          2012.24970	         7.53511e+57
          2013.05600	         7.53632e+57
          2013.86230	         6.90212e+57
          2014.66860	         5.99564e+57
          2015.47490	         6.10201e+57
          2016.28120	         6.18336e+57
          2017.08750	         6.21748e+57
          2017.89380	         6.35509e+57
          2018.70010	         6.14939e+57
          2019.50640	         5.70759e+57
          2020.31270	         6.13468e+57
          2021.11900	         7.28087e+57
          2021.92530	         6.56350e+57
          2022.73160	         7.73175e+57
          2023.53790	         8.22376e+57
          2024.34420	         6.86465e+57
          2025.15050	         5.97855e+57
          2025.95680	         6.54209e+57
          2026.76310	         7.50405e+57
          2027.56940	         6.12893e+57
          2028.37570	         5.36923e+57
          2029.18200	         5.56744e+57
          2029.98830	         6.22654e+57
          2030.79460	         5.75371e+57
          2031.60090	         6.21214e+57
          2032.40720	         6.33841e+57
          2033.21350	         5.52653e+57
          2034.01980	         5.50830e+57
          2034.82610	         5.16366e+57
          2035.63240	         5.26928e+57
          2036.43870	         5.32261e+57
          2037.24500	         5.89338e+57
          2038.05130	         6.47302e+57
          2038.85760	         6.45783e+57
          2039.66390	         5.70543e+57
          2040.47020	         6.32384e+57
          2041.27650	         6.51926e+57
          2042.08280	         6.14667e+57
          2042.88910	         5.63223e+57
          2043.69540	         5.70856e+57
          2044.50170	         6.19898e+57
          2045.30800	         5.63819e+57
          2046.11430	         3.93761e+57
          2046.92060	         5.27767e+57
          2047.72690	         6.31208e+57
          2048.53320	         6.72985e+57
          2049.33950	         5.88315e+57
          2050.14580	         5.59525e+57
          2050.95210	         6.91557e+57
          2051.75840	         5.97431e+57
          2052.56470	         5.26670e+57
          2053.37100	         4.86833e+57
          2054.17730	         4.59356e+57
          2054.98360	         4.93078e+57
          2055.78990	         4.83035e+57
          2056.59620	         3.33322e+57
          2057.40250	         4.82381e+57
          2058.20880	         6.70895e+57
          2059.01510	         6.79032e+57
          2059.82140	         6.90254e+57
          2060.62770	         1.07098e+58
          2061.43400	         1.53196e+58
          2062.24030	         1.22482e+58
          2063.04660	         3.87587e+57
          2063.85290	         2.82564e+57
          2064.65920	        -2.32893e+57
          2065.46550	        -8.67087e+57
          2066.27180	        -9.83070e+57
          2067.07810	         2.25164e+57
          2067.88440	         5.97250e+57
          2068.69070	         5.73309e+57
          2069.49700	         4.81284e+57
          2070.30330	         5.26185e+57
          2071.10960	         5.26279e+57
          2071.91590	         6.45912e+57
          2072.72220	         4.55423e+57
          2073.52850	         3.45428e+57
          2074.33480	         5.47490e+57
          2075.14110	         5.27394e+57
          2075.94740	         4.25068e+57
          2076.75370	         4.60058e+57
          2077.56000	         4.11418e+57
          2078.36630	         3.27262e+57
          2079.17260	         5.32722e+57
          2079.97890	         5.20650e+57
          2080.78520	         5.39977e+57
          2081.59150	         4.71401e+57
          2082.39780	         3.44254e+57
          2083.20410	         2.41428e+57
          2084.01040	         2.71286e+57
          2084.81670	         4.69168e+57
          2085.62300	         4.93640e+57
          2086.42930	         3.69913e+57
          2087.23560	         3.98096e+57
          2088.04190	         3.38964e+57
          2088.84820	         3.32278e+57
          2089.65450	         3.11321e+57
          2090.46080	        -1.64067e+56
          2091.26710	         1.92264e+57
          2092.07340	         3.76701e+57
          2092.87970	         3.40649e+57
          2093.68600	        -1.04555e+57
          2094.49230	         1.12544e+57
          2095.29860	         4.70120e+57
          2096.10490	         3.12041e+57
          2096.91120	         8.63418e+56
          2097.71750	        -1.39066e+57
          2098.52380	         9.45773e+56
          2099.33010	         2.15398e+57
          2100.13640	         9.26707e+56
          2100.94270	         8.67308e+56
          2101.74900	         2.13621e+57
          2102.55530	         1.31545e+57
          2103.36160	         3.14497e+57
          2104.16790	         4.70051e+57
          2104.97420	         3.30656e+57
          2105.78050	         1.22754e+57
          2106.58680	        -4.08074e+56
          2107.39310	        -2.13699e+57
          2108.19940	         1.50341e+56
          2109.00570	         3.42956e+56
          2109.81200	        -1.68837e+57
          2110.61830	        -1.93828e+57
          2111.42460	         8.32664e+56
          2112.23090	         2.89222e+56
          2113.03720	        -1.54688e+57
          2113.84350	        -1.96996e+57
          2114.64980	        -6.47128e+55
          2115.45610	        -2.18662e+57
          2116.26240	        -2.39952e+57
          2117.06870	        -2.76035e+57
          2117.87500	        -2.84605e+57
          2118.68130	         2.33389e+57
          2119.48760	         3.22796e+57
          2120.29390	         4.37832e+57
          2121.10020	        -1.47721e+57
          2121.90650	        -4.09503e+57
          2122.71280	        -2.89816e+57
          2123.51910	         6.74317e+57
          2124.32540	        -2.06505e+57
          2125.13170	        -2.71973e+57
          2125.93800	         3.83583e+57
          2126.74430	        -5.19947e+56
          2127.55060	        -7.97347e+57
          2128.35690	        -2.11407e+57
          2129.16320	        -2.48501e+55
          2129.96950	        -1.43942e+57
          2130.77580	        -6.54846e+57
          2131.58210	         4.82491e+57
          2132.38840	         6.38835e+57
          2133.19470	         5.83631e+57
          2134.00100	         4.02708e+57
          2134.80730	        -1.02321e+58
          2135.61360	         9.92845e+57
          2136.41990	         6.34501e+57
          2137.22620	         1.11143e+58
          2138.03250	         8.12113e+57
          2138.83880	        -4.52628e+57
          2139.64510	         1.80316e+57
          2140.45140	        -2.39743e+57
          2141.25770	        -1.03614e+58
          2142.06400	        -1.01849e+58
          2142.87030	         6.83298e+57
          2143.67660	         1.15992e+58
          2144.48290	         1.28071e+58
          2145.28920	         8.29672e+57
          2146.09550	        -9.86761e+56
          2146.90180	        -1.49947e+58
          2147.70810	        -6.73794e+57
          2148.51440	        -1.08202e+58
          2149.32070	        -2.69639e+57
          2150.12700	        -6.56908e+57
          2150.93330	        -3.28796e+57
          2151.73960	        -1.90890e+57
          2152.54590	         6.01584e+57
          2153.35220	        -3.47907e+57
          2154.15850	        -5.82131e+57
          2154.96480	         2.68056e+57
          2155.77110	         4.48165e+57
          2156.57740	        -4.15443e+57
          2157.38370	         4.55562e+57
          2158.19000	        -2.83176e+57
          2158.99630	        -7.41407e+57
          2159.80260	        -2.02766e+58
          2160.60890	        -1.17211e+58
          2161.41520	        -7.49294e+57
          2162.22150	        -7.73523e+57
          2163.02780	        -2.25893e+57
          2163.83410	        -7.47735e+57
          2164.64040	        -7.65576e+57
          2165.44670	        -7.14514e+57
          2166.25300	        -8.26816e+57
          2167.05930	         5.10802e+57
          2167.86560	        -6.88238e+57
          2168.67190	        -8.45709e+57
          2169.47820	        -5.09382e+57
          2170.28450	        -6.47762e+57
          2171.09080	        -2.44392e+57
          2171.89710	         2.67295e+57
          2172.70340	         4.19310e+57
          2173.50970	        -7.01850e+57
          2174.31600	        -5.73281e+57
          2175.12230	         6.46980e+57
          2175.92860	        -1.81780e+57
          2176.73490	        -1.13172e+58
          2177.54120	        -8.33943e+57
          2178.34750	        -3.34938e+57
          2179.15380	                 nan
          2179.96010	                 nan
          2180.76640	                 nan
          2181.57270	                 nan
          2182.37900	                 nan
          2183.18530	                 nan
          2183.99160	                 nan
          2184.79790	                 nan
          2185.60420	                 nan
          2186.41050	                 nan
          2187.21680	                 nan
          2188.02310	                 nan
          2188.82940	                 nan
          2189.63570	                 nan
          2190.44200	                 nan
          2191.24830	                 nan
          2192.05460	                 nan
          2192.86090	                 nan
          2193.66720	                 nan
          2194.47350	                 nan
          2195.27980	                 nan
          2196.08610	                 nan
          2196.89240	                 nan
          2197.69870	                 nan
          2198.50500	                 nan
          2199.31130	                 nan
          2200.11760	                 nan
          2200.92390	                 nan
          2201.73020	                 nan
          2202.53650	                 nan
          2203.34280	                 nan
          2204.14910	                 nan
          2204.95540	                 nan
          2205.76170	                 nan
          2206.56800	                 nan
          2207.37430	                 nan
          2208.18060	                 nan
          2208.98690	                 nan
          2209.79320	                 nan
          2210.59950	                 nan
          2211.40580	                 nan
          2212.21210	                 nan
          2213.01840	                 nan
          2213.82470	                 nan
          2214.63100	                 nan
          2215.43730	         0.00000e+00
