#sample_323_stacked_spectrum_rest_UV-bands_median_H-alpha_noDC.txt
#median Lum: 1.69982e+42
#Rest-frame wavelength (A) | Luminosity (erg/s/A)
#
          1110.00000	         0.00000e+00
          1110.80630	         2.24080e+59
          1111.61260	         7.90038e+58
          1112.41890	         2.97469e+59
          1113.22520	         1.64433e+59
          1114.03150	        -1.01745e+59
          1114.83780	         2.10179e+58
          1115.64410	         1.44492e+59
          1116.45040	         2.15674e+59
          1117.25670	         9.86868e+58
          1118.06300	         9.34180e+58
          1118.86930	        -8.13289e+58
          1119.67560	         2.85061e+58
          1120.48190	        -3.78376e+58
          1121.28820	        -1.35689e+59
          1122.09450	        -2.35843e+58
          1122.90080	        -1.54644e+58
          1123.70710	         4.60054e+58
          1124.51340	         8.70455e+58
          1125.31970	         1.23309e+58
          1126.12600	        -7.73598e+57
          1126.93230	        -2.67650e+58
          1127.73860	        -7.12999e+58
          1128.54490	        -2.34263e+58
          1129.35120	         4.75380e+57
          1130.15750	        -2.12886e+58
          1130.96380	         2.42657e+57
          1131.77010	         4.96010e+58
          1132.57640	         4.54816e+58
          1133.38270	         2.00905e+58
          1134.18900	         1.47067e+58
          1134.99530	        -1.52875e+55
          1135.80160	         2.24905e+58
          1136.60790	         2.23730e+58
          1137.41420	         1.12086e+58
          1138.22050	         3.86125e+58
          1139.02680	         1.53330e+58
          1139.83310	         2.01321e+58
          1140.63940	         1.89329e+58
          1141.44570	        -2.03734e+58
          1142.25200	        -6.91948e+57
          1143.05830	         2.28195e+58
          1143.86460	         2.90643e+58
          1144.67090	         2.05055e+58
          1145.47720	         1.07175e+58
          1146.28350	         1.25197e+58
          1147.08980	         1.24110e+58
          1147.89610	         1.71166e+58
          1148.70240	         1.61644e+58
          1149.50870	         1.62742e+58
          1150.31500	         1.08634e+58
          1151.12130	         1.68505e+58
          1151.92760	         9.15423e+57
          1152.73390	        -2.47591e+56
          1153.54020	         3.30671e+57
          1154.34650	         1.59575e+58
          1155.15280	         4.52511e+57
          1155.95910	         7.38293e+57
          1156.76540	        -3.63711e+57
          1157.57170	         5.48097e+57
          1158.37800	         8.25120e+57
          1159.18430	         4.25653e+57
          1159.99060	         3.84685e+57
          1160.79690	         9.72063e+57
          1161.60320	         2.09959e+58
          1162.40950	         1.27543e+58
          1163.21580	         1.29156e+58
          1164.02210	         9.67528e+57
          1164.82840	         1.15575e+58
          1165.63470	         2.06201e+58
          1166.44100	         2.62367e+58
          1167.24730	         1.86030e+58
          1168.05360	         7.50438e+57
          1168.85990	         1.23652e+58
          1169.66620	         1.45249e+58
          1170.47250	         1.22078e+58
          1171.27880	         3.23623e+57
          1172.08510	         1.07951e+58
          1172.89140	         1.39009e+58
          1173.69770	         4.05284e+57
          1174.50400	         1.40265e+58
          1175.31030	         1.62997e+58
          1176.11660	         1.64673e+58
          1176.92290	         1.53310e+58
          1177.72920	         1.39987e+58
          1178.53550	         8.89224e+57
          1179.34180	         7.26091e+56
          1180.14810	        -4.36407e+57
          1180.95440	         2.30774e+57
          1181.76070	         5.38233e+57
          1182.56700	         1.25043e+58
          1183.37330	         8.75488e+57
          1184.17960	         8.93108e+57
          1184.98590	         1.06068e+58
          1185.79220	         7.84431e+57
          1186.59850	         1.34212e+58
          1187.40480	         7.74843e+57
          1188.21110	         1.52640e+58
          1189.01740	         1.09059e+58
          1189.82370	         1.03186e+58
          1190.63000	         1.12217e+58
          1191.43630	         1.09897e+58
          1192.24260	         2.61151e+57
          1193.04890	         8.00092e+57
          1193.85520	         1.53023e+58
          1194.66150	         1.08066e+57
          1195.46780	         5.31258e+57
          1196.27410	         1.33172e+58
          1197.08040	         1.10621e+58
          1197.88670	         1.22816e+58
          1198.69300	         1.44839e+58
          1199.49930	         1.23828e+58
          1200.30560	         1.11792e+58
          1201.11190	         8.75537e+57
          1201.91820	         8.86151e+57
          1202.72450	         8.08103e+57
          1203.53080	         1.29532e+58
          1204.33710	         6.39250e+57
          1205.14340	         7.55406e+57
          1205.94970	         1.01471e+58
          1206.75600	         7.17435e+57
          1207.56230	         6.89089e+57
          1208.36860	         6.89427e+57
          1209.17490	         7.86484e+57
          1209.98120	         6.57968e+57
          1210.78750	         7.81764e+57
          1211.59380	         9.21943e+57
          1212.40010	         1.62554e+58
          1213.20640	         2.05431e+58
          1214.01270	         2.14774e+58
          1214.81900	         2.25856e+58
          1215.62530	         4.05831e+58
          1216.43160	         8.97344e+58
          1217.23790	         1.51416e+59
          1218.04420	         1.11820e+59
          1218.85050	         8.22735e+58
          1219.65680	         5.70256e+58
          1220.46310	         3.17597e+58
          1221.26940	         2.01792e+58
          1222.07570	         1.45787e+58
          1222.88200	         1.16342e+58
          1223.68830	         1.00683e+58
          1224.49460	         6.04886e+57
          1225.30090	         7.22286e+57
          1226.10720	         8.06958e+57
          1226.91350	         6.79944e+57
          1227.71980	         1.13046e+58
          1228.52610	         1.80976e+58
          1229.33240	         1.06110e+58
          1230.13870	         8.38459e+57
          1230.94500	         7.10636e+57
          1231.75130	         6.29869e+57
          1232.55760	         7.80410e+57
          1233.36390	         1.02906e+58
          1234.17020	         9.25291e+57
          1234.97650	         7.19843e+57
          1235.78280	         8.49265e+57
          1236.58910	         8.17861e+57
          1237.39540	         9.07843e+57
          1238.20170	         1.12974e+58
          1239.00800	         1.25697e+58
          1239.81430	         1.47502e+58
          1240.62060	         1.18580e+58
          1241.42690	         1.09685e+58
          1242.23320	         1.35353e+58
          1243.03950	         1.07499e+58
          1243.84580	         8.66678e+57
          1244.65210	         9.64600e+57
          1245.45840	         1.03430e+58
          1246.26470	         1.22641e+58
          1247.07100	         1.02982e+58
          1247.87730	         7.64683e+57
          1248.68360	         4.85082e+57
          1249.48990	         6.11378e+57
          1250.29620	         7.68092e+57
          1251.10250	         5.87023e+57
          1251.90880	         6.05018e+57
          1252.71510	         6.36905e+57
          1253.52140	         7.05794e+57
          1254.32770	         7.84354e+57
          1255.13400	         9.48829e+57
          1255.94030	         9.85448e+57
          1256.74660	         8.11293e+57
          1257.55290	         9.43057e+57
          1258.35920	         7.43009e+57
          1259.16550	         3.37831e+57
          1259.97180	         2.68108e+57
          1260.77810	         6.51169e+57
          1261.58440	         9.08025e+57
          1262.39070	         8.74073e+57
          1263.19700	         9.56200e+57
          1264.00330	         1.12525e+58
          1264.80960	         1.06647e+58
          1265.61590	         1.26453e+58
          1266.42220	         1.32917e+58
          1267.22850	         1.05987e+58
          1268.03480	         1.40635e+58
          1268.84110	         1.56982e+58
          1269.64740	         1.12487e+58
          1270.45370	         1.28158e+58
          1271.26000	         1.32497e+58
          1272.06630	         1.10800e+58
          1272.87260	         1.04854e+58
          1273.67890	         1.02255e+58
          1274.48520	         1.23088e+58
          1275.29150	         1.36077e+58
          1276.09780	         1.17912e+58
          1276.90410	         1.30353e+58
          1277.71040	         1.20903e+58
          1278.51670	         1.16899e+58
          1279.32300	         1.54901e+58
          1280.12930	         1.27599e+58
          1280.93560	         9.67543e+57
          1281.74190	         1.16444e+58
          1282.54820	         1.27972e+58
          1283.35450	         1.19201e+58
          1284.16080	         1.16123e+58
          1284.96710	         1.21431e+58
          1285.77340	         1.20962e+58
          1286.57970	         1.26696e+58
          1287.38600	         1.55577e+58
          1288.19230	         1.49267e+58
          1288.99860	         1.45291e+58
          1289.80490	         1.25592e+58
          1290.61120	         1.33254e+58
          1291.41750	         1.41674e+58
          1292.22380	         1.18227e+58
          1293.03010	         9.82984e+57
          1293.83640	         9.52293e+57
          1294.64270	         8.02438e+57
          1295.44900	         6.94112e+57
          1296.25530	         7.96721e+57
          1297.06160	         7.87679e+57
          1297.86790	         8.50855e+57
          1298.67420	         9.82431e+57
          1299.48050	         1.00015e+58
          1300.28680	         9.78023e+57
          1301.09310	         8.96819e+57
          1301.89940	         5.28266e+57
          1302.70570	         6.36790e+57
          1303.51200	         7.61474e+57
          1304.31830	         8.71410e+57
          1305.12460	         8.51823e+57
          1305.93090	         1.05719e+58
          1306.73720	         1.23430e+58
          1307.54350	         1.40885e+58
          1308.34980	         1.55902e+58
          1309.15610	         1.43051e+58
          1309.96240	         1.37418e+58
          1310.76870	         1.43002e+58
          1311.57500	         1.19397e+58
          1312.38130	         1.07939e+58
          1313.18760	         1.23308e+58
          1313.99390	         1.37442e+58
          1314.80020	         1.46802e+58
          1315.60650	         1.39826e+58
          1316.41280	         1.20902e+58
          1317.21910	         1.17218e+58
          1318.02540	         1.18702e+58
          1318.83170	         1.17571e+58
          1319.63800	         1.16872e+58
          1320.44430	         1.17133e+58
          1321.25060	         1.17585e+58
          1322.05690	         1.22869e+58
          1322.86320	         1.26287e+58
          1323.66950	         1.15316e+58
          1324.47580	         9.42660e+57
          1325.28210	         9.94564e+57
          1326.08840	         1.10122e+58
          1326.89470	         1.13900e+58
          1327.70100	         8.76686e+57
          1328.50730	         7.95601e+57
          1329.31360	         1.02141e+58
          1330.11990	         1.13258e+58
          1330.92620	         9.17126e+57
          1331.73250	         9.62172e+57
          1332.53880	         9.20700e+57
          1333.34510	         8.51508e+57
          1334.15140	         8.86288e+57
          1334.95770	         8.68185e+57
          1335.76400	         9.41489e+57
          1336.57030	         1.09750e+58
          1337.37660	         1.16854e+58
          1338.18290	         1.04207e+58
          1338.98920	         1.11577e+58
          1339.79550	         1.07775e+58
          1340.60180	         1.09630e+58
          1341.40810	         1.36385e+58
          1342.21440	         1.42501e+58
          1343.02070	         1.19600e+58
          1343.82700	         1.22464e+58
          1344.63330	         1.24766e+58
          1345.43960	         1.13107e+58
          1346.24590	         1.12697e+58
          1347.05220	         1.34197e+58
          1347.85850	         1.18022e+58
          1348.66480	         1.10454e+58
          1349.47110	         1.24213e+58
          1350.27740	         1.11853e+58
          1351.08370	         1.16961e+58
          1351.89000	         1.12046e+58
          1352.69630	         1.01702e+58
          1353.50260	         1.08419e+58
          1354.30890	         1.20244e+58
          1355.11520	         1.12621e+58
          1355.92150	         1.06991e+58
          1356.72780	         9.79556e+57
          1357.53410	         8.17514e+57
          1358.34040	         8.94900e+57
          1359.14670	         9.13562e+57
          1359.95300	         1.02692e+58
          1360.75930	         1.12493e+58
          1361.56560	         1.04622e+58
          1362.37190	         1.21809e+58
          1363.17820	         1.17814e+58
          1363.98450	         1.08910e+58
          1364.79080	         1.30819e+58
          1365.59710	         1.30902e+58
          1366.40340	         1.08049e+58
          1367.20970	         9.42034e+57
          1368.01600	         9.49600e+57
          1368.82230	         8.76988e+57
          1369.62860	         1.07025e+58
          1370.43490	         1.04702e+58
          1371.24120	         9.11845e+57
          1372.04750	         8.13523e+57
          1372.85380	         9.79679e+57
          1373.66010	         1.15639e+58
          1374.46640	         1.09468e+58
          1375.27270	         1.08569e+58
          1376.07900	         9.49931e+57
          1376.88530	         8.40647e+57
          1377.69160	         8.28419e+57
          1378.49790	         7.51972e+57
          1379.30420	         8.31509e+57
          1380.11050	         8.82028e+57
          1380.91680	         7.35568e+57
          1381.72310	         7.45454e+57
          1382.52940	         8.57566e+57
          1383.33570	         7.55096e+57
          1384.14200	         9.58407e+57
          1384.94830	         1.14865e+58
          1385.75460	         1.04169e+58
          1386.56090	         1.09030e+58
          1387.36720	         1.14504e+58
          1388.17350	         1.26352e+58
          1388.97980	         1.21044e+58
          1389.78610	         8.89173e+57
          1390.59240	         6.70014e+57
          1391.39870	         5.91884e+57
          1392.20500	         8.24683e+57
          1393.01130	         8.60042e+57
          1393.81760	         8.01756e+57
          1394.62390	         8.32650e+57
          1395.43020	         7.44826e+57
          1396.23650	         6.15215e+57
          1397.04280	         6.28689e+57
          1397.84910	         9.12469e+57
          1398.65540	         9.21081e+57
          1399.46170	         8.82609e+57
          1400.26800	         8.84628e+57
          1401.07430	         7.15556e+57
          1401.88060	         7.17133e+57
          1402.68690	         9.69059e+57
          1403.49320	         9.28993e+57
          1404.29950	         8.67912e+57
          1405.10580	         9.79583e+57
          1405.91210	         1.03928e+58
          1406.71840	         9.12142e+57
          1407.52470	         1.04769e+58
          1408.33100	         1.05025e+58
          1409.13730	         1.16752e+58
          1409.94360	         1.16203e+58
          1410.74990	         1.04934e+58
          1411.55620	         9.78874e+57
          1412.36250	         9.82249e+57
          1413.16880	         9.59608e+57
          1413.97510	         7.57701e+57
          1414.78140	         7.10700e+57
          1415.58770	         9.71092e+57
          1416.39400	         1.12938e+58
          1417.20030	         1.10401e+58
          1418.00660	         9.06633e+57
          1418.81290	         8.83594e+57
          1419.61920	         9.39932e+57
          1420.42550	         1.12328e+58
          1421.23180	         1.37307e+58
          1422.03810	         1.18303e+58
          1422.84440	         1.04098e+58
          1423.65070	         1.12043e+58
          1424.45700	         1.09006e+58
          1425.26330	         1.03785e+58
          1426.06960	         1.02568e+58
          1426.87590	         1.00536e+58
          1427.68220	         9.57403e+57
          1428.48850	         1.01043e+58
          1429.29480	         9.52409e+57
          1430.10110	         9.26194e+57
          1430.90740	         8.30153e+57
          1431.71370	         1.00388e+58
          1432.52000	         1.04174e+58
          1433.32630	         8.40562e+57
          1434.13260	         6.72004e+57
          1434.93890	         6.84185e+57
          1435.74520	         8.88401e+57
          1436.55150	         1.01656e+58
          1437.35780	         8.62721e+57
          1438.16410	         9.17766e+57
          1438.97040	         8.15090e+57
          1439.77670	         7.68425e+57
          1440.58300	         8.07445e+57
          1441.38930	         8.79819e+57
          1442.19560	         1.00125e+58
          1443.00190	         9.67752e+57
          1443.80820	         1.00247e+58
          1444.61450	         8.99063e+57
          1445.42080	         8.25332e+57
          1446.22710	         1.10023e+58
          1447.03340	         1.09906e+58
          1447.83970	         1.06175e+58
          1448.64600	         1.10239e+58
          1449.45230	         9.71870e+57
          1450.25860	         9.61991e+57
          1451.06490	         9.23541e+57
          1451.87120	         7.66334e+57
          1452.67750	         7.42716e+57
          1453.48380	         8.11872e+57
          1454.29010	         7.41689e+57
          1455.09640	         7.24999e+57
          1455.90270	         8.55912e+57
          1456.70900	         8.43535e+57
          1457.51530	         7.79913e+57
          1458.32160	         1.05313e+58
          1459.12790	         1.26743e+58
          1459.93420	         1.20962e+58
          1460.74050	         8.68065e+57
          1461.54680	         7.05217e+57
          1462.35310	         8.02975e+57
          1463.15940	         1.02148e+58
          1463.96570	         1.18853e+58
          1464.77200	         1.21719e+58
          1465.57830	         1.09270e+58
          1466.38460	         9.55091e+57
          1467.19090	         8.81723e+57
          1467.99720	         8.43554e+57
          1468.80350	         8.60334e+57
          1469.60980	         9.21998e+57
          1470.41610	         1.00288e+58
          1471.22240	         9.17837e+57
          1472.02870	         9.45542e+57
          1472.83500	         1.00178e+58
          1473.64130	         1.01479e+58
          1474.44760	         9.71817e+57
          1475.25390	         9.20751e+57
          1476.06020	         8.36721e+57
          1476.86650	         8.18365e+57
          1477.67280	         8.27044e+57
          1478.47910	         6.45282e+57
          1479.28540	         6.87659e+57
          1480.09170	         8.83849e+57
          1480.89800	         9.50824e+57
          1481.70430	         8.70632e+57
          1482.51060	         8.33082e+57
          1483.31690	         8.44404e+57
          1484.12320	         7.28051e+57
          1484.92950	         8.20065e+57
          1485.73580	         9.48734e+57
          1486.54210	         9.87155e+57
          1487.34840	         8.72713e+57
          1488.15470	         7.85463e+57
          1488.96100	         8.47796e+57
          1489.76730	         8.86375e+57
          1490.57360	         8.20153e+57
          1491.37990	         7.21148e+57
          1492.18620	         8.05285e+57
          1492.99250	         8.48283e+57
          1493.79880	         8.83791e+57
          1494.60510	         9.22472e+57
          1495.41140	         8.77689e+57
          1496.21770	         9.56939e+57
          1497.02400	         1.05489e+58
          1497.83030	         9.39445e+57
          1498.63660	         7.87740e+57
          1499.44290	         7.84018e+57
          1500.24920	         7.63275e+57
          1501.05550	         7.66619e+57
          1501.86180	         7.88260e+57
          1502.66810	         8.54142e+57
          1503.47440	         8.57845e+57
          1504.28070	         8.37402e+57
          1505.08700	         8.98264e+57
          1505.89330	         8.87971e+57
          1506.69960	         8.67545e+57
          1507.50590	         8.54107e+57
          1508.31220	         7.67828e+57
          1509.11850	         7.74916e+57
          1509.92480	         9.14578e+57
          1510.73110	         9.27197e+57
          1511.53740	         7.69378e+57
          1512.34370	         6.91488e+57
          1513.15000	         8.00192e+57
          1513.95630	         9.61934e+57
          1514.76260	         9.19228e+57
          1515.56890	         7.84860e+57
          1516.37520	         8.57770e+57
          1517.18150	         7.90892e+57
          1517.98780	         7.08229e+57
          1518.79410	         6.48368e+57
          1519.60040	         7.15018e+57
          1520.40670	         9.07022e+57
          1521.21300	         9.47726e+57
          1522.01930	         8.36175e+57
          1522.82560	         9.83282e+57
          1523.63190	         9.71134e+57
          1524.43820	         7.98330e+57
          1525.24450	         6.50953e+57
          1526.05080	         6.71808e+57
          1526.85710	         7.89629e+57
          1527.66340	         7.54871e+57
          1528.46970	         7.75667e+57
          1529.27600	         7.56278e+57
          1530.08230	         7.28578e+57
          1530.88860	         8.13657e+57
          1531.69490	         8.86975e+57
          1532.50120	         9.63651e+57
          1533.30750	         1.00068e+58
          1534.11380	         1.02719e+58
          1534.92010	         9.71289e+57
          1535.72640	         9.13390e+57
          1536.53270	         8.87358e+57
          1537.33900	         8.36322e+57
          1538.14530	         8.09743e+57
          1538.95160	         9.02673e+57
          1539.75790	         8.82678e+57
          1540.56420	         8.74459e+57
          1541.37050	         8.76780e+57
          1542.17680	         8.01299e+57
          1542.98310	         7.05958e+57
          1543.78940	         6.85730e+57
          1544.59570	         6.68857e+57
          1545.40200	         8.26576e+57
          1546.20830	         9.56264e+57
          1547.01460	         1.04462e+58
          1547.82090	         1.10260e+58
          1548.62720	         1.18669e+58
          1549.43350	         1.20089e+58
          1550.23980	         1.15140e+58
          1551.04610	         1.22592e+58
          1551.85240	         1.18526e+58
          1552.65870	         1.16404e+58
          1553.46500	         1.02741e+58
          1554.27130	         9.70529e+57
          1555.07760	         9.30998e+57
          1555.88390	         8.52958e+57
          1556.69020	         8.74223e+57
          1557.49650	         9.12621e+57
          1558.30280	         9.13380e+57
          1559.10910	         8.75958e+57
          1559.91540	         8.22059e+57
          1560.72170	         9.42786e+57
          1561.52800	         9.41715e+57
          1562.33430	         9.25234e+57
          1563.14060	         8.09173e+57
          1563.94690	         8.06870e+57
          1564.75320	         8.28162e+57
          1565.55950	         6.86144e+57
          1566.36580	         6.89655e+57
          1567.17210	         8.93894e+57
          1567.97840	         9.02490e+57
          1568.78470	         8.42153e+57
          1569.59100	         8.87799e+57
          1570.39730	         8.44978e+57
          1571.20360	         7.03425e+57
          1572.00990	         7.72139e+57
          1572.81620	         9.18698e+57
          1573.62250	         9.91509e+57
          1574.42880	         8.20771e+57
          1575.23510	         7.69266e+57
          1576.04140	         8.06093e+57
          1576.84770	         8.09870e+57
          1577.65400	         8.74999e+57
          1578.46030	         9.08750e+57
          1579.26660	         9.61453e+57
          1580.07290	         8.88733e+57
          1580.87920	         7.29787e+57
          1581.68550	         7.33921e+57
          1582.49180	         8.21018e+57
          1583.29810	         7.56894e+57
          1584.10440	         8.45570e+57
          1584.91070	         9.65326e+57
          1585.71700	         9.15458e+57
          1586.52330	         9.42679e+57
          1587.32960	         9.42760e+57
          1588.13590	         9.91449e+57
          1588.94220	         9.31195e+57
          1589.74850	         9.30393e+57
          1590.55480	         8.95683e+57
          1591.36110	         8.25096e+57
          1592.16740	         8.01636e+57
          1592.97370	         7.76631e+57
          1593.78000	         9.07727e+57
          1594.58630	         1.00311e+58
          1595.39260	         8.96051e+57
          1596.19890	         9.31215e+57
          1597.00520	         9.46297e+57
          1597.81150	         8.06381e+57
          1598.61780	         6.80172e+57
          1599.42410	         6.73559e+57
          1600.23040	         6.30348e+57
          1601.03670	         7.59064e+57
          1601.84300	         8.03103e+57
          1602.64930	         8.84767e+57
          1603.45560	         9.76628e+57
          1604.26190	         8.98756e+57
          1605.06820	         8.30848e+57
          1605.87450	         7.35107e+57
          1606.68080	         6.71907e+57
          1607.48710	         5.93522e+57
          1608.29340	         5.75493e+57
          1609.09970	         6.71775e+57
          1609.90600	         7.65979e+57
          1610.71230	         7.41752e+57
          1611.51860	         7.53629e+57
          1612.32490	         6.62345e+57
          1613.13120	         7.55035e+57
          1613.93750	         8.40383e+57
          1614.74380	         7.82181e+57
          1615.55010	         8.20694e+57
          1616.35640	         9.33475e+57
          1617.16270	         9.86698e+57
          1617.96900	         9.32295e+57
          1618.77530	         7.78728e+57
          1619.58160	         8.01309e+57
          1620.38790	         8.26877e+57
          1621.19420	         8.74941e+57
          1622.00050	         7.83128e+57
          1622.80680	         8.95960e+57
          1623.61310	         9.93410e+57
          1624.41940	         8.97163e+57
          1625.22570	         9.90867e+57
          1626.03200	         9.30044e+57
          1626.83830	         8.68800e+57
          1627.64460	         7.63344e+57
          1628.45090	         7.82078e+57
          1629.25720	         8.56362e+57
          1630.06350	         8.52589e+57
          1630.86980	         6.43953e+57
          1631.67610	         7.29222e+57
          1632.48240	         7.59660e+57
          1633.28870	         7.15648e+57
          1634.09500	         9.24114e+57
          1634.90130	         1.15406e+58
          1635.70760	         9.20801e+57
          1636.51390	         7.37950e+57
          1637.32020	         6.99202e+57
          1638.12650	         9.62032e+57
          1638.93280	         9.92381e+57
          1639.73910	         9.86281e+57
          1640.54540	         1.08368e+58
          1641.35170	         9.03934e+57
          1642.15800	         9.16759e+57
          1642.96430	         9.87917e+57
          1643.77060	         1.00860e+58
          1644.57690	         8.85317e+57
          1645.38320	         7.71220e+57
          1646.18950	         6.47888e+57
          1646.99580	         8.37855e+57
          1647.80210	         8.27352e+57
          1648.60840	         8.13278e+57
          1649.41470	         8.85254e+57
          1650.22100	         6.58925e+57
          1651.02730	         6.82595e+57
          1651.83360	         8.10380e+57
          1652.63990	         7.69463e+57
          1653.44620	         8.56606e+57
          1654.25250	         8.86159e+57
          1655.05880	         8.03984e+57
          1655.86510	         7.79025e+57
          1656.67140	         7.87102e+57
          1657.47770	         8.08383e+57
          1658.28400	         8.52033e+57
          1659.09030	         8.20498e+57
          1659.89660	         8.73713e+57
          1660.70290	         9.41633e+57
          1661.50920	         9.66063e+57
          1662.31550	         7.71006e+57
          1663.12180	         7.84486e+57
          1663.92810	         9.50778e+57
          1664.73440	         1.02227e+58
          1665.54070	         1.16317e+58
          1666.34700	         1.25132e+58
          1667.15330	         1.14070e+58
          1667.95960	         9.22073e+57
          1668.76590	         7.58678e+57
          1669.57220	         6.60775e+57
          1670.37850	         6.86519e+57
          1671.18480	         7.74622e+57
          1671.99110	         7.25614e+57
          1672.79740	         6.63509e+57
          1673.60370	         6.72700e+57
          1674.41000	         7.06356e+57
          1675.21630	         7.00308e+57
          1676.02260	         6.65436e+57
          1676.82890	         6.54849e+57
          1677.63520	         5.86449e+57
          1678.44150	         6.36211e+57
          1679.24780	         8.13300e+57
          1680.05410	         7.40660e+57
          1680.86040	         6.41145e+57
          1681.66670	         7.15063e+57
          1682.47300	         8.21152e+57
          1683.27930	         8.81496e+57
          1684.08560	         8.99446e+57
          1684.89190	         7.81146e+57
          1685.69820	         6.52134e+57
          1686.50450	         5.54071e+57
          1687.31080	         6.27296e+57
          1688.11710	         7.11724e+57
          1688.92340	         6.31774e+57
          1689.72970	         6.14246e+57
          1690.53600	         5.72615e+57
          1691.34230	         6.06988e+57
          1692.14860	         7.18920e+57
          1692.95490	         7.41463e+57
          1693.76120	         6.50692e+57
          1694.56750	         5.57684e+57
          1695.37380	         7.85504e+57
          1696.18010	         7.98314e+57
          1696.98640	         7.42341e+57
          1697.79270	         7.81473e+57
          1698.59900	         7.51787e+57
          1699.40530	         7.72657e+57
          1700.21160	         8.02128e+57
          1701.01790	         8.13322e+57
          1701.82420	         8.21835e+57
          1702.63050	         7.91294e+57
          1703.43680	         7.97667e+57
          1704.24310	         8.06231e+57
          1705.04940	         7.52866e+57
          1705.85570	         7.30362e+57
          1706.66200	         7.90537e+57
          1707.46830	         7.73624e+57
          1708.27460	         7.33705e+57
          1709.08090	         6.02438e+57
          1709.88720	         6.07440e+57
          1710.69350	         6.19216e+57
          1711.49980	         6.22691e+57
          1712.30610	         6.88939e+57
          1713.11240	         8.45222e+57
          1713.91870	         8.12207e+57
          1714.72500	         7.89396e+57
          1715.53130	         8.11393e+57
          1716.33760	         7.34105e+57
          1717.14390	         7.63036e+57
          1717.95020	         8.85893e+57
          1718.75650	         8.81972e+57
          1719.56280	         8.56372e+57
          1720.36910	         7.69835e+57
          1721.17540	         7.79018e+57
          1721.98170	         6.43166e+57
          1722.78800	         5.45117e+57
          1723.59430	         5.95387e+57
          1724.40060	         7.84975e+57
          1725.20690	         9.66676e+57
          1726.01320	         8.56062e+57
          1726.81950	         6.93408e+57
          1727.62580	         6.75989e+57
          1728.43210	         7.27210e+57
          1729.23840	         7.60581e+57
          1730.04470	         8.10917e+57
          1730.85100	         9.37979e+57
          1731.65730	         8.46055e+57
          1732.46360	         8.04953e+57
          1733.26990	         7.39101e+57
          1734.07620	         6.46039e+57
          1734.88250	         7.42422e+57
          1735.68880	         8.09441e+57
          1736.49510	         7.69766e+57
          1737.30140	         7.32595e+57
          1738.10770	         6.17212e+57
          1738.91400	         6.98685e+57
          1739.72030	         7.41948e+57
          1740.52660	         6.24656e+57
          1741.33290	         6.78453e+57
          1742.13920	         6.23062e+57
          1742.94550	         6.62351e+57
          1743.75180	         7.37542e+57
          1744.55810	         7.52227e+57
          1745.36440	         7.11986e+57
          1746.17070	         5.84169e+57
          1746.97700	         5.56910e+57
          1747.78330	         7.17542e+57
          1748.58960	         7.27126e+57
          1749.39590	         6.54728e+57
          1750.20220	         6.06855e+57
          1751.00850	         6.00776e+57
          1751.81480	         6.65735e+57
          1752.62110	         7.02645e+57
          1753.42740	         7.05142e+57
          1754.23370	         5.40861e+57
          1755.04000	         5.21352e+57
          1755.84630	         7.66274e+57
          1756.65260	         8.03493e+57
          1757.45890	         8.86704e+57
          1758.26520	         7.42449e+57
          1759.07150	         8.70233e+57
          1759.87780	         8.10213e+57
          1760.68410	         7.57181e+57
          1761.49040	         7.16859e+57
          1762.29670	         5.86531e+57
          1763.10300	         6.84154e+57
          1763.90930	         7.63831e+57
          1764.71560	         7.24319e+57
          1765.52190	         7.39649e+57
          1766.32820	         8.33235e+57
          1767.13450	         7.92045e+57
          1767.94080	         6.05392e+57
          1768.74710	         6.51408e+57
          1769.55340	         7.14157e+57
          1770.35970	         6.84571e+57
          1771.16600	         7.30889e+57
          1771.97230	         8.31838e+57
          1772.77860	         8.29636e+57
          1773.58490	         7.53701e+57
          1774.39120	         6.95688e+57
          1775.19750	         6.08090e+57
          1776.00380	         6.22804e+57
          1776.81010	         5.96194e+57
          1777.61640	         5.85936e+57
          1778.42270	         7.63040e+57
          1779.22900	         7.29244e+57
          1780.03530	         6.32192e+57
          1780.84160	         7.19472e+57
          1781.64790	         8.60363e+57
          1782.45420	         8.25268e+57
          1783.26050	         7.50279e+57
          1784.06680	         7.87214e+57
          1784.87310	         6.68719e+57
          1785.67940	         6.59717e+57
          1786.48570	         6.66076e+57
          1787.29200	         6.11664e+57
          1788.09830	         6.31380e+57
          1788.90460	         6.19394e+57
          1789.71090	         5.18457e+57
          1790.51720	         4.72567e+57
          1791.32350	         6.82138e+57
          1792.12980	         8.72846e+57
          1792.93610	         7.81195e+57
          1793.74240	         6.81048e+57
          1794.54870	         8.10746e+57
          1795.35500	         8.52812e+57
          1796.16130	         8.10635e+57
          1796.96760	         7.18031e+57
          1797.77390	         6.71589e+57
          1798.58020	         6.88333e+57
          1799.38650	         6.16303e+57
          1800.19280	         6.51998e+57
          1800.99910	         7.41017e+57
          1801.80540	         7.22051e+57
          1802.61170	         7.34970e+57
          1803.41800	         8.68829e+57
          1804.22430	         7.17296e+57
          1805.03060	         6.34972e+57
          1805.83690	         8.43039e+57
          1806.64320	         8.22617e+57
          1807.44950	         7.20783e+57
          1808.25580	         6.72606e+57
          1809.06210	         8.63387e+57
          1809.86840	         7.56574e+57
          1810.67470	         6.36014e+57
          1811.48100	         6.56443e+57
          1812.28730	         7.74844e+57
          1813.09360	         8.38679e+57
          1813.89990	         8.64716e+57
          1814.70620	         7.85457e+57
          1815.51250	         7.79980e+57
          1816.31880	         8.34496e+57
          1817.12510	         8.12122e+57
          1817.93140	         7.10694e+57
          1818.73770	         7.66603e+57
          1819.54400	         8.84834e+57
          1820.35030	         8.70992e+57
          1821.15660	         6.03968e+57
          1821.96290	         5.51900e+57
          1822.76920	         7.01470e+57
          1823.57550	         7.24070e+57
          1824.38180	         7.41916e+57
          1825.18810	         7.99943e+57
          1825.99440	         7.90971e+57
          1826.80070	         7.44214e+57
          1827.60700	         6.92018e+57
          1828.41330	         6.27960e+57
          1829.21960	         6.71631e+57
          1830.02590	         6.99563e+57
          1830.83220	         7.71029e+57
          1831.63850	         7.09099e+57
          1832.44480	         6.33974e+57
          1833.25110	         7.55661e+57
          1834.05740	         7.59041e+57
          1834.86370	         6.62942e+57
          1835.67000	         6.05790e+57
          1836.47630	         6.82557e+57
          1837.28260	         7.63247e+57
          1838.08890	         8.96013e+57
          1838.89520	         8.67199e+57
          1839.70150	         8.02704e+57
          1840.50780	         7.54978e+57
          1841.31410	         7.66718e+57
          1842.12040	         7.27640e+57
          1842.92670	         6.51523e+57
          1843.73300	         6.44885e+57
          1844.53930	         6.58080e+57
          1845.34560	         6.92570e+57
          1846.15190	         7.72719e+57
          1846.95820	         7.83483e+57
          1847.76450	         6.69535e+57
          1848.57080	         4.24967e+57
          1849.37710	         5.03651e+57
          1850.18340	         6.60145e+57
          1850.98970	         7.83103e+57
          1851.79600	         8.15653e+57
          1852.60230	         7.90583e+57
          1853.40860	         7.54712e+57
          1854.21490	         6.82328e+57
          1855.02120	         5.25120e+57
          1855.82750	         4.37028e+57
          1856.63380	         4.93574e+57
          1857.44010	         6.25732e+57
          1858.24640	         6.64818e+57
          1859.05270	         6.96737e+57
          1859.85900	         5.87878e+57
          1860.66530	         6.82988e+57
          1861.47160	         7.32007e+57
          1862.27790	         6.62276e+57
          1863.08420	         6.89753e+57
          1863.89050	         7.14214e+57
          1864.69680	         7.16250e+57
          1865.50310	         6.92681e+57
          1866.30940	         6.44267e+57
          1867.11570	         5.18981e+57
          1867.92200	         6.66464e+57
          1868.72830	         7.77326e+57
          1869.53460	         6.95460e+57
          1870.34090	         6.97738e+57
          1871.14720	         8.03441e+57
          1871.95350	         7.14141e+57
          1872.75980	         6.67573e+57
          1873.56610	         5.70541e+57
          1874.37240	         5.55581e+57
          1875.17870	         5.49496e+57
          1875.98500	         6.78550e+57
          1876.79130	         7.17459e+57
          1877.59760	         7.04185e+57
          1878.40390	         6.82749e+57
          1879.21020	         6.25259e+57
          1880.01650	         7.01434e+57
          1880.82280	         8.35988e+57
          1881.62910	         8.22961e+57
          1882.43540	         9.92836e+57
          1883.24170	         8.59435e+57
          1884.04800	         6.57198e+57
          1884.85430	         6.08549e+57
          1885.66060	         6.91280e+57
          1886.46690	         8.32457e+57
          1887.27320	         7.64408e+57
          1888.07950	         6.28243e+57
          1888.88580	         7.90866e+57
          1889.69210	         8.78603e+57
          1890.49840	         8.55115e+57
          1891.30470	         7.07846e+57
          1892.11100	         6.66058e+57
          1892.91730	         6.80947e+57
          1893.72360	         7.45972e+57
          1894.52990	         8.10227e+57
          1895.33620	         8.66223e+57
          1896.14250	         7.23420e+57
          1896.94880	         6.79152e+57
          1897.75510	         4.92773e+57
          1898.56140	         5.10817e+57
          1899.36770	         7.17046e+57
          1900.17400	         6.84823e+57
          1900.98030	         6.39241e+57
          1901.78660	         6.95315e+57
          1902.59290	         6.72071e+57
          1903.39920	         8.24648e+57
          1904.20550	         9.44023e+57
          1905.01180	         8.60218e+57
          1905.81810	         8.19174e+57
          1906.62440	         1.13569e+58
          1907.43070	         1.46384e+58
          1908.23700	         1.52559e+58
          1909.04330	         1.32701e+58
          1909.84960	         1.18063e+58
          1910.65590	         9.98924e+57
          1911.46220	         9.19685e+57
          1912.26850	         8.16819e+57
          1913.07480	         6.31728e+57
          1913.88110	         5.65679e+57
          1914.68740	         5.82375e+57
          1915.49370	         6.25354e+57
          1916.30000	         5.93987e+57
          1917.10630	         6.15721e+57
          1917.91260	         6.97149e+57
          1918.71890	         6.78830e+57
          1919.52520	         6.56658e+57
          1920.33150	         5.68322e+57
          1921.13780	         6.87068e+57
          1921.94410	         7.79621e+57
          1922.75040	         7.85975e+57
          1923.55670	         8.43590e+57
          1924.36300	         7.22092e+57
          1925.16930	         5.18900e+57
          1925.97560	         4.72769e+57
          1926.78190	         4.65023e+57
          1927.58820	         5.49593e+57
          1928.39450	         5.32325e+57
          1929.20080	         5.20962e+57
          1930.00710	         6.56394e+57
          1930.81340	         6.93390e+57
          1931.61970	         6.86352e+57
          1932.42600	         7.46672e+57
          1933.23230	         8.17936e+57
          1934.03860	         6.69289e+57
          1934.84490	         5.95595e+57
          1935.65120	         8.56140e+57
          1936.45750	         9.01502e+57
          1937.26380	         7.72993e+57
          1938.07010	         8.10402e+57
          1938.87640	         7.45281e+57
          1939.68270	         7.14479e+57
          1940.48900	         7.89099e+57
          1941.29530	         8.85627e+57
          1942.10160	         7.75320e+57
          1942.90790	         7.12708e+57
          1943.71420	         5.98530e+57
          1944.52050	         6.18020e+57
          1945.32680	         6.48998e+57
          1946.13310	         6.81351e+57
          1946.93940	         7.80725e+57
          1947.74570	         6.47797e+57
          1948.55200	         6.63617e+57
          1949.35830	         6.04933e+57
          1950.16460	         6.24750e+57
          1950.97090	         6.52835e+57
          1951.77720	         7.46383e+57
          1952.58350	         8.25893e+57
          1953.38980	         6.29183e+57
          1954.19610	         4.89815e+57
          1955.00240	         5.32263e+57
          1955.80870	         6.65869e+57
          1956.61500	         6.85596e+57
          1957.42130	         6.50767e+57
          1958.22760	         6.32275e+57
          1959.03390	         6.88325e+57
          1959.84020	         8.43796e+57
          1960.64650	         7.97377e+57
          1961.45280	         5.83339e+57
          1962.25910	         5.06214e+57
          1963.06540	         6.70844e+57
          1963.87170	         6.69648e+57
          1964.67800	         6.76004e+57
          1965.48430	         5.63879e+57
          1966.29060	         6.12152e+57
          1967.09690	         6.15676e+57
          1967.90320	         6.25012e+57
          1968.70950	         7.27578e+57
          1969.51580	         6.48051e+57
          1970.32210	         6.08650e+57
          1971.12840	         7.13837e+57
          1971.93470	         4.82332e+57
          1972.74100	         4.20861e+57
          1973.54730	         5.71153e+57
          1974.35360	         7.46321e+57
          1975.15990	         7.34911e+57
          1975.96620	         7.16643e+57
          1976.77250	         7.94707e+57
          1977.57880	         8.18327e+57
          1978.38510	         6.87905e+57
          1979.19140	         6.84703e+57
          1979.99770	         6.89030e+57
          1980.80400	         7.29288e+57
          1981.61030	         7.78040e+57
          1982.41660	         5.79411e+57
          1983.22290	         5.77277e+57
          1984.02920	         6.10358e+57
          1984.83550	         6.53085e+57
          1985.64180	         6.82224e+57
          1986.44810	         6.12667e+57
          1987.25440	         6.13390e+57
          1988.06070	         6.22739e+57
          1988.86700	         5.99924e+57
          1989.67330	         6.70654e+57
          1990.47960	         6.21286e+57
          1991.28590	         5.51149e+57
          1992.09220	         5.60751e+57
          1992.89850	         5.23467e+57
          1993.70480	         4.15207e+57
          1994.51110	         4.97155e+57
          1995.31740	         3.90819e+57
          1996.12370	         4.43951e+57
          1996.93000	         5.71626e+57
          1997.73630	         6.41571e+57
          1998.54260	         6.90671e+57
          1999.34890	         5.65972e+57
          2000.15520	         5.74709e+57
          2000.96150	         6.79232e+57
          2001.76780	         6.31830e+57
          2002.57410	         6.03312e+57
          2003.38040	         6.07228e+57
          2004.18670	         7.20017e+57
          2004.99300	         6.90661e+57
          2005.79930	         7.55681e+57
          2006.60560	         7.01208e+57
          2007.41190	         6.65769e+57
          2008.21820	         6.66587e+57
          2009.02450	         6.69715e+57
          2009.83080	         5.95001e+57
          2010.63710	         6.22054e+57
          2011.44340	         6.17107e+57
          2012.24970	         7.07097e+57
          2013.05600	         6.74347e+57
          2013.86230	         6.87448e+57
          2014.66860	         5.28674e+57
          2015.47490	         5.79050e+57
          2016.28120	         5.41741e+57
          2017.08750	         5.26585e+57
          2017.89380	         5.74596e+57
          2018.70010	         6.12562e+57
          2019.50640	         6.10310e+57
          2020.31270	         7.31408e+57
          2021.11900	         7.74646e+57
          2021.92530	         7.51725e+57
          2022.73160	         6.80935e+57
          2023.53790	         5.56663e+57
          2024.34420	         5.61523e+57
          2025.15050	         5.39262e+57
          2025.95680	         5.80933e+57
          2026.76310	         6.33237e+57
          2027.56940	         7.26218e+57
          2028.37570	         6.00346e+57
          2029.18200	         5.91310e+57
          2029.98830	         6.56047e+57
          2030.79460	         5.16692e+57
          2031.60090	         6.29338e+57
          2032.40720	         6.67701e+57
          2033.21350	         5.85940e+57
          2034.01980	         4.88804e+57
          2034.82610	         4.37904e+57
          2035.63240	         4.65569e+57
          2036.43870	         4.66688e+57
          2037.24500	         5.23541e+57
          2038.05130	         4.96347e+57
          2038.85760	         4.78143e+57
          2039.66390	         5.54058e+57
          2040.47020	         6.40457e+57
          2041.27650	         6.87706e+57
          2042.08280	         5.61824e+57
          2042.88910	         6.95938e+57
          2043.69540	         6.53017e+57
          2044.50170	         5.84112e+57
          2045.30800	         5.72801e+57
          2046.11430	         4.28261e+57
          2046.92060	         5.05024e+57
          2047.72690	         5.08260e+57
          2048.53320	         3.64249e+57
          2049.33950	         5.18381e+57
          2050.14580	         6.04362e+57
          2050.95210	         6.65566e+57
          2051.75840	         7.26904e+57
          2052.56470	         5.77031e+57
          2053.37100	         4.67064e+57
          2054.17730	         4.23916e+57
          2054.98360	         4.45705e+57
          2055.78990	         4.21636e+57
          2056.59620	         3.83303e+57
          2057.40250	         6.20846e+57
          2058.20880	         6.67822e+57
          2059.01510	         5.67959e+57
          2059.82140	         6.34543e+57
          2060.62770	         9.71152e+57
          2061.43400	         1.53872e+58
          2062.24030	         1.18840e+58
          2063.04660	         5.08844e+57
          2063.85290	         1.32945e+57
          2064.65920	        -2.11681e+57
          2065.46550	        -7.76531e+57
          2066.27180	        -6.92406e+57
          2067.07810	         3.41075e+57
          2067.88440	         4.77453e+57
          2068.69070	         5.22240e+57
          2069.49700	         5.30229e+57
          2070.30330	         4.35566e+57
          2071.10960	         6.39843e+57
          2071.91590	         7.08783e+57
          2072.72220	         3.60332e+57
          2073.52850	         4.24813e+57
          2074.33480	         4.97492e+57
          2075.14110	         4.73323e+57
          2075.94740	         4.10237e+57
          2076.75370	         4.75177e+57
          2077.56000	         4.52399e+57
          2078.36630	         5.33089e+57
          2079.17260	         5.37728e+57
          2079.97890	         6.13335e+57
          2080.78520	         5.48746e+57
          2081.59150	         4.49105e+57
          2082.39780	         3.71131e+57
          2083.20410	         2.42571e+57
          2084.01040	         2.09231e+57
          2084.81670	         4.50831e+57
          2085.62300	         3.87127e+57
          2086.42930	         4.36150e+57
          2087.23560	         3.36622e+57
          2088.04190	         4.09998e+57
          2088.84820	         2.82929e+57
          2089.65450	         3.19748e+57
          2090.46080	         1.66248e+57
          2091.26710	         2.07419e+57
          2092.07340	         4.06147e+57
          2092.87970	         3.47450e+57
          2093.68600	        -1.84876e+57
          2094.49230	        -6.14893e+56
          2095.29860	         5.26841e+57
          2096.10490	         2.40887e+57
          2096.91120	         1.08988e+57
          2097.71750	         1.69996e+57
          2098.52380	        -7.98008e+56
          2099.33010	         6.43751e+56
          2100.13640	         6.20647e+56
          2100.94270	         1.72334e+57
          2101.74900	         3.64149e+57
          2102.55530	         5.09268e+57
          2103.36160	         3.03101e+57
          2104.16790	         3.91107e+57
          2104.97420	         1.08679e+57
          2105.78050	        -2.90158e+56
          2106.58680	         2.38369e+56
          2107.39310	        -3.22136e+57
          2108.19940	        -3.51594e+56
          2109.00570	        -6.77633e+56
          2109.81200	         2.27659e+57
          2110.61830	         4.48828e+57
          2111.42460	         1.86972e+57
          2112.23090	         1.43324e+57
          2113.03720	         4.75800e+56
          2113.84350	         5.24648e+56
          2114.64980	         3.56127e+57
          2115.45610	         1.17844e+57
          2116.26240	        -7.71493e+57
          2117.06870	        -5.56053e+57
          2117.87500	        -2.74246e+57
          2118.68130	        -3.92630e+57
          2119.48760	        -2.48237e+55
          2120.29390	         1.77347e+57
          2121.10020	        -2.78431e+57
          2121.90650	        -5.10995e+57
          2122.71280	        -2.85752e+57
          2123.51910	         6.27156e+57
          2124.32540	         4.24583e+57
          2125.13170	         4.52093e+57
          2125.93800	         5.16077e+57
          2126.74430	        -3.48594e+57
          2127.55060	        -4.63113e+57
          2128.35690	         1.34984e+57
          2129.16320	         1.12474e+57
          2129.96950	        -4.13985e+57
          2130.77580	        -1.25959e+57
          2131.58210	        -3.49048e+57
          2132.38840	        -1.86573e+57
          2133.19470	         4.39959e+56
          2134.00100	         1.25964e+57
          2134.80730	        -5.16394e+57
          2135.61360	         8.01470e+56
          2136.41990	         6.28797e+57
          2137.22620	         1.32957e+58
          2138.03250	         4.58191e+57
          2138.83880	        -3.72593e+57
          2139.64510	        -7.10705e+57
          2140.45140	        -5.23673e+57
          2141.25770	        -1.50330e+58
          2142.06400	        -8.80749e+56
          2142.87030	         1.25196e+58
          2143.67660	         4.20988e+57
          2144.48290	        -4.13116e+57
          2145.28920	         8.29057e+57
          2146.09550	        -1.17589e+58
          2146.90180	        -7.80849e+57
          2147.70810	        -1.10109e+57
          2148.51440	        -1.92678e+57
          2149.32070	        -9.58445e+57
          2150.12700	        -7.68371e+57
          2150.93330	        -3.98932e+57
          2151.73960	        -8.97012e+56
          2152.54590	         6.35035e+56
          2153.35220	         4.89820e+57
          2154.15850	        -9.63354e+56
          2154.96480	         1.21032e+57
          2155.77110	        -1.26508e+58
          2156.57740	        -1.03518e+58
          2157.38370	        -1.53822e+57
          2158.19000	        -1.70882e+57
          2158.99630	        -5.79559e+57
          2159.80260	        -1.24405e+58
          2160.60890	        -1.33600e+58
          2161.41520	         6.78642e+56
          2162.22150	        -1.64694e+58
          2163.02780	         1.10583e+57
          2163.83410	        -3.89635e+57
          2164.64040	        -1.44058e+58
          2165.44670	        -1.38432e+58
          2166.25300	        -1.87035e+58
          2167.05930	        -1.16114e+58
          2167.86560	        -4.47612e+57
          2168.67190	         2.50592e+57
          2169.47820	         7.56627e+56
          2170.28450	        -9.31061e+57
          2171.09080	        -8.93104e+57
          2171.89710	        -5.80957e+57
          2172.70340	         3.03703e+57
          2173.50970	        -6.10716e+57
          2174.31600	        -4.90452e+57
          2175.12230	         1.24682e+57
          2175.92860	        -2.78968e+57
          2176.73490	        -9.98368e+57
          2177.54120	        -7.51841e+57
          2178.34750	        -4.79201e+57
          2179.15380	                 nan
          2179.96010	                 nan
          2180.76640	                 nan
          2181.57270	                 nan
          2182.37900	                 nan
          2183.18530	                 nan
          2183.99160	                 nan
          2184.79790	                 nan
          2185.60420	                 nan
          2186.41050	                 nan
          2187.21680	                 nan
          2188.02310	                 nan
          2188.82940	                 nan
          2189.63570	                 nan
          2190.44200	                 nan
          2191.24830	                 nan
          2192.05460	                 nan
          2192.86090	                 nan
          2193.66720	                 nan
          2194.47350	                 nan
          2195.27980	                 nan
          2196.08610	                 nan
          2196.89240	                 nan
          2197.69870	                 nan
          2198.50500	                 nan
          2199.31130	                 nan
          2200.11760	                 nan
          2200.92390	                 nan
          2201.73020	                 nan
          2202.53650	                 nan
          2203.34280	                 nan
          2204.14910	                 nan
          2204.95540	                 nan
          2205.76170	                 nan
          2206.56800	                 nan
          2207.37430	                 nan
          2208.18060	                 nan
          2208.98690	                 nan
          2209.79320	                 nan
          2210.59950	                 nan
          2211.40580	                 nan
          2212.21210	                 nan
          2213.01840	                 nan
          2213.82470	                 nan
          2214.63100	                 nan
          2215.43730	         0.00000e+00
