#sample_465_stacked_spectrum_rest_UV-bands_median_H-alpha_noDC.txt
#median Lum: 1.67398e+42
#Rest-frame wavelength (A) | Luminosity (erg/s/A)
#
          1110.00000	         0.00000e+00
          1110.80630	        -2.45342e+59
          1111.61260	         3.65368e+58
          1112.41890	         2.09573e+59
          1113.22520	         5.79582e+58
          1114.03150	        -7.64213e+58
          1114.83780	         3.13632e+59
          1115.64410	         1.05612e+59
          1116.45040	        -9.62506e+58
          1117.25670	         9.68037e+58
          1118.06300	         2.15122e+59
          1118.86930	        -5.82203e+58
          1119.67560	         5.80123e+58
          1120.48190	         3.45997e+57
          1121.28820	        -8.64203e+58
          1122.09450	         3.44518e+58
          1122.90080	         3.03589e+57
          1123.70710	         1.04010e+59
          1124.51340	         9.49358e+58
          1125.31970	        -2.79179e+56
          1126.12600	         1.18429e+58
          1126.93230	        -4.98982e+58
          1127.73860	        -1.29862e+59
          1128.54490	        -4.06795e+57
          1129.35120	        -3.40273e+56
          1130.15750	        -1.24915e+58
          1130.96380	        -1.69080e+58
          1131.77010	         3.96855e+58
          1132.57640	         2.96720e+58
          1133.38270	         1.28755e+58
          1134.18900	         2.91465e+58
          1134.99530	         3.35157e+58
          1135.80160	         4.25063e+58
          1136.60790	         9.41193e+57
          1137.41420	         1.02265e+58
          1138.22050	         6.84148e+58
          1139.02680	         4.90862e+58
          1139.83310	         2.00513e+58
          1140.63940	         3.60142e+58
          1141.44570	        -1.57402e+58
          1142.25200	        -4.74207e+57
          1143.05830	         2.36663e+58
          1143.86460	         3.76154e+58
          1144.67090	         1.81692e+58
          1145.47720	         1.02979e+58
          1146.28350	         2.34251e+58
          1147.08980	         6.54897e+57
          1147.89610	         1.67179e+58
          1148.70240	         1.23199e+58
          1149.50870	         2.45892e+58
          1150.31500	         1.27015e+58
          1151.12130	         7.08046e+57
          1151.92760	         1.26170e+58
          1152.73390	         1.52447e+58
          1153.54020	         5.52114e+57
          1154.34650	         2.42395e+58
          1155.15280	         2.50208e+58
          1155.95910	         3.64005e+57
          1156.76540	         1.64974e+57
          1157.57170	         4.39653e+57
          1158.37800	        -1.12764e+58
          1159.18430	        -1.22708e+58
          1159.99060	         9.61730e+57
          1160.79690	         4.81061e+57
          1161.60320	         8.80562e+57
          1162.40950	         1.39747e+58
          1163.21580	         4.24010e+57
          1164.02210	         1.26004e+58
          1164.82840	         1.35611e+58
          1165.63470	         2.00258e+58
          1166.44100	         2.71609e+58
          1167.24730	         2.61576e+58
          1168.05360	         1.63233e+57
          1168.85990	         2.26365e+57
          1169.66620	         8.93207e+57
          1170.47250	         1.10528e+58
          1171.27880	         5.88348e+57
          1172.08510	         1.54773e+58
          1172.89140	         1.57799e+58
          1173.69770	         6.44345e+57
          1174.50400	         1.19612e+58
          1175.31030	         1.02083e+58
          1176.11660	         1.45869e+58
          1176.92290	         1.78080e+58
          1177.72920	         1.33331e+58
          1178.53550	         6.70556e+57
          1179.34180	         5.13828e+57
          1180.14810	         8.98764e+57
          1180.95440	         9.68718e+57
          1181.76070	         1.00677e+58
          1182.56700	         9.60764e+57
          1183.37330	         7.02712e+57
          1184.17960	         1.22789e+58
          1184.98590	         1.72460e+58
          1185.79220	         1.04105e+58
          1186.59850	         1.18366e+58
          1187.40480	         1.27641e+58
          1188.21110	         1.36846e+58
          1189.01740	         7.16001e+57
          1189.82370	         7.48417e+57
          1190.63000	         8.05010e+57
          1191.43630	         1.36839e+58
          1192.24260	         9.55979e+57
          1193.04890	         1.20624e+58
          1193.85520	         1.54290e+58
          1194.66150	         1.02314e+58
          1195.46780	         1.88259e+58
          1196.27410	         1.77106e+58
          1197.08040	         1.41282e+58
          1197.88670	         1.45350e+58
          1198.69300	         1.31818e+58
          1199.49930	         1.45953e+58
          1200.30560	         1.13811e+58
          1201.11190	         8.75552e+57
          1201.91820	         7.18092e+57
          1202.72450	         7.63273e+57
          1203.53080	         1.92276e+58
          1204.33710	         1.44097e+58
          1205.14340	         7.88175e+57
          1205.94970	         7.30251e+57
          1206.75600	         6.78453e+57
          1207.56230	         8.87293e+57
          1208.36860	         7.68757e+57
          1209.17490	         4.97231e+57
          1209.98120	         3.92508e+57
          1210.78750	         8.07804e+57
          1211.59380	         1.27695e+58
          1212.40010	         1.74679e+58
          1213.20640	         1.80360e+58
          1214.01270	         1.84076e+58
          1214.81900	         2.42233e+58
          1215.62530	         4.10527e+58
          1216.43160	         8.49377e+58
          1217.23790	         1.49570e+59
          1218.04420	         1.10948e+59
          1218.85050	         8.20873e+58
          1219.65680	         5.60775e+58
          1220.46310	         3.48517e+58
          1221.26940	         2.19802e+58
          1222.07570	         1.32655e+58
          1222.88200	         1.53080e+58
          1223.68830	         1.36032e+58
          1224.49460	         7.34058e+57
          1225.30090	         8.52471e+57
          1226.10720	         6.83512e+57
          1226.91350	         7.83658e+57
          1227.71980	         9.90829e+57
          1228.52610	         1.13289e+58
          1229.33240	         8.63737e+57
          1230.13870	         7.14583e+57
          1230.94500	         7.59996e+57
          1231.75130	         6.35077e+57
          1232.55760	         9.12050e+57
          1233.36390	         9.16435e+57
          1234.17020	         8.20630e+57
          1234.97650	         8.62761e+57
          1235.78280	         5.84211e+57
          1236.58910	         4.28305e+57
          1237.39540	         8.64757e+57
          1238.20170	         9.48831e+57
          1239.00800	         1.11721e+58
          1239.81430	         1.31694e+58
          1240.62060	         9.95634e+57
          1241.42690	         1.09329e+58
          1242.23320	         1.26089e+58
          1243.03950	         9.02940e+57
          1243.84580	         7.12243e+57
          1244.65210	         8.79186e+57
          1245.45840	         8.79703e+57
          1246.26470	         6.59763e+57
          1247.07100	         6.23218e+57
          1247.87730	         7.42844e+57
          1248.68360	         5.62296e+57
          1249.48990	         9.11110e+57
          1250.29620	         7.68897e+57
          1251.10250	         6.51329e+57
          1251.90880	         6.68982e+57
          1252.71510	         6.25049e+57
          1253.52140	         5.14599e+57
          1254.32770	         7.62578e+57
          1255.13400	         1.26335e+58
          1255.94030	         1.11124e+58
          1256.74660	         8.77938e+57
          1257.55290	         1.04801e+58
          1258.35920	         8.43084e+57
          1259.16550	         6.62105e+57
          1259.97180	         5.78021e+57
          1260.77810	         7.48658e+57
          1261.58440	         8.66893e+57
          1262.39070	         7.35301e+57
          1263.19700	         6.69499e+57
          1264.00330	         8.05994e+57
          1264.80960	         9.84639e+57
          1265.61590	         1.27982e+58
          1266.42220	         1.37341e+58
          1267.22850	         1.10770e+58
          1268.03480	         1.29297e+58
          1268.84110	         1.44532e+58
          1269.64740	         1.36338e+58
          1270.45370	         1.25587e+58
          1271.26000	         1.32469e+58
          1272.06630	         1.56516e+58
          1272.87260	         1.46444e+58
          1273.67890	         1.17519e+58
          1274.48520	         1.20503e+58
          1275.29150	         1.25808e+58
          1276.09780	         1.25308e+58
          1276.90410	         1.61878e+58
          1277.71040	         1.28451e+58
          1278.51670	         1.20540e+58
          1279.32300	         1.48396e+58
          1280.12930	         1.23196e+58
          1280.93560	         1.15516e+58
          1281.74190	         1.50744e+58
          1282.54820	         1.49139e+58
          1283.35450	         1.25791e+58
          1284.16080	         1.14352e+58
          1284.96710	         1.18883e+58
          1285.77340	         1.12112e+58
          1286.57970	         1.08930e+58
          1287.38600	         1.42492e+58
          1288.19230	         1.65423e+58
          1288.99860	         1.45115e+58
          1289.80490	         1.02107e+58
          1290.61120	         1.14493e+58
          1291.41750	         1.19854e+58
          1292.22380	         1.05780e+58
          1293.03010	         9.29663e+57
          1293.83640	         9.45270e+57
          1294.64270	         8.64482e+57
          1295.44900	         6.00958e+57
          1296.25530	         7.03816e+57
          1297.06160	         1.09050e+58
          1297.86790	         1.16835e+58
          1298.67420	         9.10760e+57
          1299.48050	         1.01486e+58
          1300.28680	         9.30525e+57
          1301.09310	         7.00688e+57
          1301.89940	         4.73671e+57
          1302.70570	         7.20767e+57
          1303.51200	         8.29857e+57
          1304.31830	         1.03909e+58
          1305.12460	         1.02613e+58
          1305.93090	         1.01773e+58
          1306.73720	         1.34315e+58
          1307.54350	         1.43801e+58
          1308.34980	         1.23042e+58
          1309.15610	         1.47532e+58
          1309.96240	         1.61840e+58
          1310.76870	         1.29775e+58
          1311.57500	         1.28403e+58
          1312.38130	         1.37493e+58
          1313.18760	         1.38118e+58
          1313.99390	         1.38180e+58
          1314.80020	         1.51019e+58
          1315.60650	         1.46287e+58
          1316.41280	         1.25529e+58
          1317.21910	         1.23630e+58
          1318.02540	         1.16640e+58
          1318.83170	         1.24990e+58
          1319.63800	         1.10285e+58
          1320.44430	         1.10151e+58
          1321.25060	         1.21486e+58
          1322.05690	         1.31419e+58
          1322.86320	         1.25183e+58
          1323.66950	         1.22142e+58
          1324.47580	         1.07671e+58
          1325.28210	         8.65987e+57
          1326.08840	         9.97624e+57
          1326.89470	         1.25690e+58
          1327.70100	         1.10747e+58
          1328.50730	         7.50292e+57
          1329.31360	         9.13882e+57
          1330.11990	         1.01279e+58
          1330.92620	         8.91574e+57
          1331.73250	         1.00231e+58
          1332.53880	         9.99411e+57
          1333.34510	         9.57288e+57
          1334.15140	         9.94475e+57
          1334.95770	         9.44132e+57
          1335.76400	         9.55256e+57
          1336.57030	         9.49148e+57
          1337.37660	         9.74585e+57
          1338.18290	         1.15747e+58
          1338.98920	         1.23740e+58
          1339.79550	         1.11075e+58
          1340.60180	         1.10175e+58
          1341.40810	         1.35621e+58
          1342.21440	         1.22898e+58
          1343.02070	         1.41245e+58
          1343.82700	         1.59011e+58
          1344.63330	         1.15148e+58
          1345.43960	         1.15832e+58
          1346.24590	         1.24521e+58
          1347.05220	         1.13769e+58
          1347.85850	         1.00047e+58
          1348.66480	         1.16416e+58
          1349.47110	         1.18057e+58
          1350.27740	         1.07784e+58
          1351.08370	         1.10764e+58
          1351.89000	         1.13673e+58
          1352.69630	         1.17725e+58
          1353.50260	         1.15051e+58
          1354.30890	         1.13333e+58
          1355.11520	         1.19763e+58
          1355.92150	         1.04997e+58
          1356.72780	         1.06621e+58
          1357.53410	         9.39311e+57
          1358.34040	         9.65454e+57
          1359.14670	         1.01468e+58
          1359.95300	         1.22150e+58
          1360.75930	         1.23493e+58
          1361.56560	         1.19151e+58
          1362.37190	         1.11619e+58
          1363.17820	         1.03735e+58
          1363.98450	         1.11850e+58
          1364.79080	         1.13424e+58
          1365.59710	         1.13321e+58
          1366.40340	         1.11393e+58
          1367.20970	         1.12180e+58
          1368.01600	         1.13877e+58
          1368.82230	         9.90024e+57
          1369.62860	         1.01527e+58
          1370.43490	         9.45239e+57
          1371.24120	         9.72436e+57
          1372.04750	         8.60809e+57
          1372.85380	         9.10238e+57
          1373.66010	         1.01171e+58
          1374.46640	         1.00238e+58
          1375.27270	         1.04995e+58
          1376.07900	         9.17598e+57
          1376.88530	         8.55966e+57
          1377.69160	         7.64991e+57
          1378.49790	         6.18600e+57
          1379.30420	         5.71226e+57
          1380.11050	         6.66153e+57
          1380.91680	         8.35235e+57
          1381.72310	         8.95289e+57
          1382.52940	         8.90543e+57
          1383.33570	         8.23936e+57
          1384.14200	         9.80613e+57
          1384.94830	         1.05230e+58
          1385.75460	         9.56945e+57
          1386.56090	         1.15582e+58
          1387.36720	         1.01560e+58
          1388.17350	         1.21598e+58
          1388.97980	         1.21966e+58
          1389.78610	         1.07329e+58
          1390.59240	         9.82474e+57
          1391.39870	         7.48826e+57
          1392.20500	         8.37554e+57
          1393.01130	         8.89450e+57
          1393.81760	         8.46614e+57
          1394.62390	         8.37668e+57
          1395.43020	         6.32722e+57
          1396.23650	         5.82833e+57
          1397.04280	         6.85553e+57
          1397.84910	         9.09128e+57
          1398.65540	         9.05992e+57
          1399.46170	         1.02577e+58
          1400.26800	         9.33893e+57
          1401.07430	         8.19311e+57
          1401.88060	         8.02328e+57
          1402.68690	         9.10475e+57
          1403.49320	         9.94803e+57
          1404.29950	         1.05547e+58
          1405.10580	         1.04263e+58
          1405.91210	         1.04421e+58
          1406.71840	         1.11786e+58
          1407.52470	         1.08023e+58
          1408.33100	         9.24217e+57
          1409.13730	         1.09092e+58
          1409.94360	         1.22999e+58
          1410.74990	         1.15233e+58
          1411.55620	         9.89806e+57
          1412.36250	         9.31320e+57
          1413.16880	         9.47774e+57
          1413.97510	         8.37100e+57
          1414.78140	         7.50634e+57
          1415.58770	         9.65259e+57
          1416.39400	         1.02883e+58
          1417.20030	         9.30742e+57
          1418.00660	         8.40250e+57
          1418.81290	         9.59564e+57
          1419.61920	         1.06424e+58
          1420.42550	         1.16392e+58
          1421.23180	         1.36552e+58
          1422.03810	         1.30726e+58
          1422.84440	         1.12684e+58
          1423.65070	         1.12119e+58
          1424.45700	         1.03590e+58
          1425.26330	         8.71414e+57
          1426.06960	         9.71292e+57
          1426.87590	         1.03352e+58
          1427.68220	         9.49038e+57
          1428.48850	         9.67978e+57
          1429.29480	         9.82817e+57
          1430.10110	         8.67330e+57
          1430.90740	         7.42530e+57
          1431.71370	         8.25271e+57
          1432.52000	         7.47164e+57
          1433.32630	         6.81286e+57
          1434.13260	         8.32295e+57
          1434.93890	         8.43162e+57
          1435.74520	         9.09318e+57
          1436.55150	         1.01927e+58
          1437.35780	         1.02178e+58
          1438.16410	         9.86052e+57
          1438.97040	         8.86572e+57
          1439.77670	         8.80718e+57
          1440.58300	         9.62897e+57
          1441.38930	         9.06945e+57
          1442.19560	         1.02750e+58
          1443.00190	         1.02731e+58
          1443.80820	         1.07591e+58
          1444.61450	         9.53338e+57
          1445.42080	         8.27117e+57
          1446.22710	         9.97526e+57
          1447.03340	         1.02965e+58
          1447.83970	         1.19458e+58
          1448.64600	         1.09494e+58
          1449.45230	         8.31684e+57
          1450.25860	         8.78353e+57
          1451.06490	         7.44672e+57
          1451.87120	         6.64466e+57
          1452.67750	         7.86764e+57
          1453.48380	         9.01857e+57
          1454.29010	         7.65342e+57
          1455.09640	         6.34265e+57
          1455.90270	         8.71153e+57
          1456.70900	         9.55829e+57
          1457.51530	         9.71766e+57
          1458.32160	         1.22697e+58
          1459.12790	         1.21569e+58
          1459.93420	         1.05554e+58
          1460.74050	         9.07437e+57
          1461.54680	         8.93367e+57
          1462.35310	         7.70957e+57
          1463.15940	         8.80769e+57
          1463.96570	         1.04768e+58
          1464.77200	         1.15074e+58
          1465.57830	         1.12811e+58
          1466.38460	         9.48500e+57
          1467.19090	         7.05678e+57
          1467.99720	         7.08328e+57
          1468.80350	         8.88673e+57
          1469.60980	         1.03219e+58
          1470.41610	         1.08873e+58
          1471.22240	         9.46458e+57
          1472.02870	         9.85167e+57
          1472.83500	         9.67763e+57
          1473.64130	         9.51986e+57
          1474.44760	         9.92718e+57
          1475.25390	         9.02491e+57
          1476.06020	         8.21950e+57
          1476.86650	         9.06373e+57
          1477.67280	         9.04464e+57
          1478.47910	         7.01882e+57
          1479.28540	         7.61779e+57
          1480.09170	         9.03465e+57
          1480.89800	         8.68188e+57
          1481.70430	         8.20005e+57
          1482.51060	         8.40726e+57
          1483.31690	         8.66742e+57
          1484.12320	         7.97852e+57
          1484.92950	         8.28792e+57
          1485.73580	         7.65219e+57
          1486.54210	         7.01006e+57
          1487.34840	         7.37063e+57
          1488.15470	         8.41998e+57
          1488.96100	         8.54476e+57
          1489.76730	         8.36953e+57
          1490.57360	         8.22981e+57
          1491.37990	         7.90630e+57
          1492.18620	         8.49134e+57
          1492.99250	         7.89398e+57
          1493.79880	         8.12967e+57
          1494.60510	         8.99093e+57
          1495.41140	         8.01647e+57
          1496.21770	         8.47720e+57
          1497.02400	         9.66887e+57
          1497.83030	         8.88574e+57
          1498.63660	         7.64288e+57
          1499.44290	         7.27480e+57
          1500.24920	         8.04186e+57
          1501.05550	         8.24753e+57
          1501.86180	         8.45776e+57
          1502.66810	         8.06323e+57
          1503.47440	         7.99729e+57
          1504.28070	         8.67676e+57
          1505.08700	         1.04577e+58
          1505.89330	         1.01068e+58
          1506.69960	         8.03709e+57
          1507.50590	         7.22058e+57
          1508.31220	         8.05945e+57
          1509.11850	         7.95223e+57
          1509.92480	         8.50121e+57
          1510.73110	         9.65642e+57
          1511.53740	         7.82719e+57
          1512.34370	         7.26435e+57
          1513.15000	         9.27034e+57
          1513.95630	         1.04024e+58
          1514.76260	         8.59246e+57
          1515.56890	         7.69433e+57
          1516.37520	         8.21489e+57
          1517.18150	         7.80711e+57
          1517.98780	         7.52687e+57
          1518.79410	         7.77901e+57
          1519.60040	         8.48809e+57
          1520.40670	         8.78567e+57
          1521.21300	         8.25706e+57
          1522.01930	         7.58354e+57
          1522.82560	         8.89328e+57
          1523.63190	         9.75316e+57
          1524.43820	         8.22297e+57
          1525.24450	         6.67076e+57
          1526.05080	         6.44550e+57
          1526.85710	         6.85565e+57
          1527.66340	         6.27100e+57
          1528.46970	         8.10465e+57
          1529.27600	         8.35756e+57
          1530.08230	         7.61955e+57
          1530.88860	         7.79841e+57
          1531.69490	         8.79000e+57
          1532.50120	         9.72793e+57
          1533.30750	         9.72473e+57
          1534.11380	         9.01843e+57
          1534.92010	         9.08660e+57
          1535.72640	         9.60386e+57
          1536.53270	         9.27867e+57
          1537.33900	         8.93888e+57
          1538.14530	         9.60285e+57
          1538.95160	         9.01943e+57
          1539.75790	         8.60350e+57
          1540.56420	         8.03912e+57
          1541.37050	         6.87976e+57
          1542.17680	         6.53811e+57
          1542.98310	         6.09163e+57
          1543.78940	         6.26140e+57
          1544.59570	         6.76738e+57
          1545.40200	         7.81305e+57
          1546.20830	         9.00864e+57
          1547.01460	         1.02709e+58
          1547.82090	         1.17465e+58
          1548.62720	         1.26804e+58
          1549.43350	         1.24853e+58
          1550.23980	         1.13112e+58
          1551.04610	         1.20911e+58
          1551.85240	         1.17540e+58
          1552.65870	         1.19469e+58
          1553.46500	         1.07706e+58
          1554.27130	         1.02812e+58
          1555.07760	         1.06416e+58
          1555.88390	         8.85558e+57
          1556.69020	         8.64069e+57
          1557.49650	         8.87426e+57
          1558.30280	         7.93216e+57
          1559.10910	         7.93052e+57
          1559.91540	         9.13331e+57
          1560.72170	         9.91127e+57
          1561.52800	         8.45916e+57
          1562.33430	         8.21717e+57
          1563.14060	         7.06081e+57
          1563.94690	         7.16405e+57
          1564.75320	         7.99588e+57
          1565.55950	         7.07604e+57
          1566.36580	         6.77292e+57
          1567.17210	         8.10433e+57
          1567.97840	         9.34033e+57
          1568.78470	         9.49845e+57
          1569.59100	         9.44983e+57
          1570.39730	         8.93696e+57
          1571.20360	         8.54047e+57
          1572.00990	         8.79392e+57
          1572.81620	         8.79073e+57
          1573.62250	         1.02031e+58
          1574.42880	         9.31300e+57
          1575.23510	         7.72798e+57
          1576.04140	         8.15571e+57
          1576.84770	         8.81462e+57
          1577.65400	         8.90466e+57
          1578.46030	         9.28911e+57
          1579.26660	         1.01188e+58
          1580.07290	         9.16432e+57
          1580.87920	         7.86075e+57
          1581.68550	         6.95533e+57
          1582.49180	         7.52117e+57
          1583.29810	         8.36991e+57
          1584.10440	         8.30917e+57
          1584.91070	         7.62281e+57
          1585.71700	         8.65171e+57
          1586.52330	         9.05805e+57
          1587.32960	         8.30902e+57
          1588.13590	         8.25912e+57
          1588.94220	         8.09796e+57
          1589.74850	         9.05069e+57
          1590.55480	         9.45351e+57
          1591.36110	         8.40081e+57
          1592.16740	         7.90633e+57
          1592.97370	         8.04468e+57
          1593.78000	         8.29036e+57
          1594.58630	         9.26112e+57
          1595.39260	         8.81215e+57
          1596.19890	         8.63601e+57
          1597.00520	         9.05431e+57
          1597.81150	         8.00142e+57
          1598.61780	         6.91423e+57
          1599.42410	         6.39467e+57
          1600.23040	         7.11430e+57
          1601.03670	         7.91368e+57
          1601.84300	         7.55571e+57
          1602.64930	         8.34523e+57
          1603.45560	         9.09389e+57
          1604.26190	         8.09590e+57
          1605.06820	         8.14750e+57
          1605.87450	         7.75414e+57
          1606.68080	         7.57358e+57
          1607.48710	         5.99107e+57
          1608.29340	         5.28957e+57
          1609.09970	         7.22253e+57
          1609.90600	         7.39007e+57
          1610.71230	         7.34833e+57
          1611.51860	         7.42912e+57
          1612.32490	         6.74264e+57
          1613.13120	         6.64870e+57
          1613.93750	         7.60661e+57
          1614.74380	         8.38549e+57
          1615.55010	         9.16719e+57
          1616.35640	         1.00206e+58
          1617.16270	         9.77994e+57
          1617.96900	         1.03441e+58
          1618.77530	         9.04474e+57
          1619.58160	         8.58581e+57
          1620.38790	         8.76190e+57
          1621.19420	         9.55941e+57
          1622.00050	         8.97794e+57
          1622.80680	         8.67005e+57
          1623.61310	         7.96091e+57
          1624.41940	         8.00309e+57
          1625.22570	         9.50769e+57
          1626.03200	         9.44359e+57
          1626.83830	         8.90807e+57
          1627.64460	         6.82664e+57
          1628.45090	         5.23416e+57
          1629.25720	         7.39231e+57
          1630.06350	         9.03663e+57
          1630.86980	         7.19989e+57
          1631.67610	         7.26134e+57
          1632.48240	         8.25762e+57
          1633.28870	         8.00678e+57
          1634.09500	         8.53066e+57
          1634.90130	         1.09591e+58
          1635.70760	         8.22877e+57
          1636.51390	         6.27379e+57
          1637.32020	         6.66035e+57
          1638.12650	         8.07367e+57
          1638.93280	         8.67386e+57
          1639.73910	         8.91408e+57
          1640.54540	         9.04146e+57
          1641.35170	         7.88056e+57
          1642.15800	         9.15500e+57
          1642.96430	         8.97579e+57
          1643.77060	         8.29471e+57
          1644.57690	         8.46935e+57
          1645.38320	         8.30198e+57
          1646.18950	         7.33214e+57
          1646.99580	         9.07987e+57
          1647.80210	         9.30783e+57
          1648.60840	         8.21572e+57
          1649.41470	         8.39815e+57
          1650.22100	         6.74268e+57
          1651.02730	         7.67387e+57
          1651.83360	         7.90992e+57
          1652.63990	         7.10173e+57
          1653.44620	         7.72561e+57
          1654.25250	         7.17165e+57
          1655.05880	         7.56723e+57
          1655.86510	         8.25536e+57
          1656.67140	         8.06612e+57
          1657.47770	         7.81252e+57
          1658.28400	         7.87690e+57
          1659.09030	         9.18969e+57
          1659.89660	         9.43888e+57
          1660.70290	         9.62017e+57
          1661.50920	         9.68323e+57
          1662.31550	         9.06532e+57
          1663.12180	         8.60796e+57
          1663.92810	         9.09504e+57
          1664.73440	         1.07076e+58
          1665.54070	         1.15754e+58
          1666.34700	         1.18001e+58
          1667.15330	         1.05709e+58
          1667.95960	         8.26357e+57
          1668.76590	         6.81199e+57
          1669.57220	         5.99202e+57
          1670.37850	         6.66332e+57
          1671.18480	         7.72963e+57
          1671.99110	         7.74470e+57
          1672.79740	         6.18997e+57
          1673.60370	         5.30983e+57
          1674.41000	         6.70960e+57
          1675.21630	         7.34921e+57
          1676.02260	         6.51875e+57
          1676.82890	         5.95803e+57
          1677.63520	         6.73907e+57
          1678.44150	         7.03652e+57
          1679.24780	         8.71213e+57
          1680.05410	         7.98219e+57
          1680.86040	         6.58317e+57
          1681.66670	         7.88916e+57
          1682.47300	         8.91611e+57
          1683.27930	         8.48673e+57
          1684.08560	         7.72543e+57
          1684.89190	         7.52560e+57
          1685.69820	         5.59387e+57
          1686.50450	         5.10663e+57
          1687.31080	         5.19987e+57
          1688.11710	         6.82741e+57
          1688.92340	         6.47381e+57
          1689.72970	         6.42534e+57
          1690.53600	         6.53286e+57
          1691.34230	         6.95831e+57
          1692.14860	         7.77445e+57
          1692.95490	         6.95679e+57
          1693.76120	         6.83593e+57
          1694.56750	         7.11858e+57
          1695.37380	         9.57557e+57
          1696.18010	         9.13463e+57
          1696.98640	         8.22502e+57
          1697.79270	         7.33680e+57
          1698.59900	         7.29997e+57
          1699.40530	         6.85370e+57
          1700.21160	         6.72323e+57
          1701.01790	         8.62082e+57
          1701.82420	         7.33861e+57
          1702.63050	         6.90382e+57
          1703.43680	         7.88559e+57
          1704.24310	         8.47731e+57
          1705.04940	         8.05646e+57
          1705.85570	         8.29780e+57
          1706.66200	         8.82303e+57
          1707.46830	         8.78016e+57
          1708.27460	         8.08642e+57
          1709.08090	         7.40428e+57
          1709.88720	         6.80178e+57
          1710.69350	         6.26393e+57
          1711.49980	         6.55003e+57
          1712.30610	         7.47514e+57
          1713.11240	         8.39282e+57
          1713.91870	         8.10673e+57
          1714.72500	         8.88330e+57
          1715.53130	         9.00081e+57
          1716.33760	         7.98603e+57
          1717.14390	         7.14740e+57
          1717.95020	         8.01944e+57
          1718.75650	         8.30092e+57
          1719.56280	         8.30983e+57
          1720.36910	         7.46424e+57
          1721.17540	         7.72103e+57
          1721.98170	         6.94966e+57
          1722.78800	         5.87560e+57
          1723.59430	         6.49878e+57
          1724.40060	         8.36605e+57
          1725.20690	         8.73896e+57
          1726.01320	         7.79414e+57
          1726.81950	         8.59829e+57
          1727.62580	         7.36415e+57
          1728.43210	         6.97158e+57
          1729.23840	         7.92555e+57
          1730.04470	         8.18430e+57
          1730.85100	         9.03508e+57
          1731.65730	         8.09936e+57
          1732.46360	         7.88137e+57
          1733.26990	         8.08775e+57
          1734.07620	         7.86209e+57
          1734.88250	         7.30733e+57
          1735.68880	         7.33875e+57
          1736.49510	         8.37188e+57
          1737.30140	         8.39919e+57
          1738.10770	         6.46870e+57
          1738.91400	         6.84227e+57
          1739.72030	         7.38304e+57
          1740.52660	         5.39923e+57
          1741.33290	         5.48421e+57
          1742.13920	         5.63606e+57
          1742.94550	         6.30502e+57
          1743.75180	         7.35437e+57
          1744.55810	         8.04468e+57
          1745.36440	         7.19627e+57
          1746.17070	         5.32732e+57
          1746.97700	         5.00807e+57
          1747.78330	         6.50187e+57
          1748.58960	         7.01807e+57
          1749.39590	         7.63251e+57
          1750.20220	         7.10158e+57
          1751.00850	         4.85098e+57
          1751.81480	         6.22299e+57
          1752.62110	         7.63357e+57
          1753.42740	         8.27493e+57
          1754.23370	         7.39156e+57
          1755.04000	         6.96770e+57
          1755.84630	         7.06772e+57
          1756.65260	         8.66290e+57
          1757.45890	         8.77776e+57
          1758.26520	         6.63794e+57
          1759.07150	         8.21100e+57
          1759.87780	         8.28757e+57
          1760.68410	         7.58193e+57
          1761.49040	         8.07740e+57
          1762.29670	         6.65588e+57
          1763.10300	         6.19281e+57
          1763.90930	         6.36924e+57
          1764.71560	         7.27497e+57
          1765.52190	         7.69288e+57
          1766.32820	         8.35667e+57
          1767.13450	         8.00360e+57
          1767.94080	         6.80790e+57
          1768.74710	         7.69971e+57
          1769.55340	         6.96338e+57
          1770.35970	         6.44301e+57
          1771.16600	         7.53878e+57
          1771.97230	         8.13837e+57
          1772.77860	         8.86166e+57
          1773.58490	         6.97097e+57
          1774.39120	         4.81885e+57
          1775.19750	         5.22911e+57
          1776.00380	         6.04985e+57
          1776.81010	         6.49579e+57
          1777.61640	         6.64441e+57
          1778.42270	         6.87607e+57
          1779.22900	         6.81900e+57
          1780.03530	         6.95530e+57
          1780.84160	         7.60777e+57
          1781.64790	         8.56798e+57
          1782.45420	         6.87110e+57
          1783.26050	         6.30943e+57
          1784.06680	         7.46146e+57
          1784.87310	         7.14503e+57
          1785.67940	         6.86299e+57
          1786.48570	         5.91710e+57
          1787.29200	         6.05852e+57
          1788.09830	         5.78290e+57
          1788.90460	         6.15342e+57
          1789.71090	         5.53575e+57
          1790.51720	         4.97983e+57
          1791.32350	         6.20075e+57
          1792.12980	         8.51308e+57
          1792.93610	         7.86891e+57
          1793.74240	         7.49321e+57
          1794.54870	         8.99169e+57
          1795.35500	         9.42737e+57
          1796.16130	         7.95676e+57
          1796.96760	         6.14088e+57
          1797.77390	         6.33769e+57
          1798.58020	         6.51561e+57
          1799.38650	         5.94574e+57
          1800.19280	         7.00570e+57
          1800.99910	         7.69675e+57
          1801.80540	         7.15039e+57
          1802.61170	         8.68148e+57
          1803.41800	         8.20008e+57
          1804.22430	         6.74600e+57
          1805.03060	         6.79085e+57
          1805.83690	         8.22860e+57
          1806.64320	         8.15747e+57
          1807.44950	         7.66572e+57
          1808.25580	         7.69610e+57
          1809.06210	         9.01846e+57
          1809.86840	         8.22842e+57
          1810.67470	         7.45019e+57
          1811.48100	         8.30954e+57
          1812.28730	         8.06294e+57
          1813.09360	         6.73192e+57
          1813.89990	         7.41726e+57
          1814.70620	         6.87290e+57
          1815.51250	         8.27651e+57
          1816.31880	         7.48307e+57
          1817.12510	         6.32113e+57
          1817.93140	         5.28775e+57
          1818.73770	         5.90793e+57
          1819.54400	         8.40506e+57
          1820.35030	         8.81045e+57
          1821.15660	         6.48093e+57
          1821.96290	         6.26307e+57
          1822.76920	         7.71859e+57
          1823.57550	         8.12777e+57
          1824.38180	         7.57385e+57
          1825.18810	         8.19519e+57
          1825.99440	         8.26250e+57
          1826.80070	         8.07453e+57
          1827.60700	         7.36382e+57
          1828.41330	         6.42037e+57
          1829.21960	         6.66326e+57
          1830.02590	         6.44096e+57
          1830.83220	         7.15242e+57
          1831.63850	         7.19862e+57
          1832.44480	         8.50366e+57
          1833.25110	         9.09290e+57
          1834.05740	         8.07083e+57
          1834.86370	         6.34915e+57
          1835.67000	         5.47755e+57
          1836.47630	         7.86103e+57
          1837.28260	         9.10835e+57
          1838.08890	         7.89234e+57
          1838.89520	         8.21399e+57
          1839.70150	         7.52873e+57
          1840.50780	         7.47049e+57
          1841.31410	         7.51565e+57
          1842.12040	         7.28311e+57
          1842.92670	         7.31306e+57
          1843.73300	         6.21173e+57
          1844.53930	         5.66920e+57
          1845.34560	         6.74877e+57
          1846.15190	         7.83030e+57
          1846.95820	         8.17456e+57
          1847.76450	         7.15791e+57
          1848.57080	         6.52732e+57
          1849.37710	         7.45002e+57
          1850.18340	         8.08866e+57
          1850.98970	         8.06734e+57
          1851.79600	         8.17375e+57
          1852.60230	         6.49161e+57
          1853.40860	         7.38310e+57
          1854.21490	         7.26003e+57
          1855.02120	         6.87213e+57
          1855.82750	         5.83264e+57
          1856.63380	         6.26705e+57
          1857.44010	         6.97271e+57
          1858.24640	         7.24929e+57
          1859.05270	         6.75749e+57
          1859.85900	         5.46077e+57
          1860.66530	         5.16096e+57
          1861.47160	         6.12514e+57
          1862.27790	         6.65705e+57
          1863.08420	         6.98822e+57
          1863.89050	         7.93554e+57
          1864.69680	         7.31927e+57
          1865.50310	         7.29315e+57
          1866.30940	         5.90388e+57
          1867.11570	         6.19886e+57
          1867.92200	         7.58786e+57
          1868.72830	         7.84941e+57
          1869.53460	         7.15651e+57
          1870.34090	         7.19677e+57
          1871.14720	         6.74873e+57
          1871.95350	         6.50359e+57
          1872.75980	         7.27534e+57
          1873.56610	         7.03572e+57
          1874.37240	         5.46249e+57
          1875.17870	         4.94376e+57
          1875.98500	         6.68290e+57
          1876.79130	         7.39122e+57
          1877.59760	         6.74373e+57
          1878.40390	         5.99144e+57
          1879.21020	         5.21078e+57
          1880.01650	         6.27996e+57
          1880.82280	         8.50304e+57
          1881.62910	         9.27377e+57
          1882.43540	         1.00080e+58
          1883.24170	         7.76718e+57
          1884.04800	         6.06564e+57
          1884.85430	         5.97825e+57
          1885.66060	         7.36298e+57
          1886.46690	         7.20433e+57
          1887.27320	         6.75320e+57
          1888.07950	         6.35647e+57
          1888.88580	         6.68419e+57
          1889.69210	         8.60632e+57
          1890.49840	         7.86274e+57
          1891.30470	         7.27665e+57
          1892.11100	         8.32651e+57
          1892.91730	         8.01955e+57
          1893.72360	         7.46856e+57
          1894.52990	         7.19495e+57
          1895.33620	         8.58011e+57
          1896.14250	         7.98576e+57
          1896.94880	         6.38063e+57
          1897.75510	         3.93227e+57
          1898.56140	         4.87777e+57
          1899.36770	         6.20494e+57
          1900.17400	         5.93953e+57
          1900.98030	         6.34489e+57
          1901.78660	         7.41979e+57
          1902.59290	         7.66742e+57
          1903.39920	         8.58245e+57
          1904.20550	         8.83251e+57
          1905.01180	         8.64659e+57
          1905.81810	         9.97135e+57
          1906.62440	         1.22286e+58
          1907.43070	         1.54234e+58
          1908.23700	         1.48761e+58
          1909.04330	         1.39824e+58
          1909.84960	         1.12994e+58
          1910.65590	         1.01147e+58
          1911.46220	         9.23181e+57
          1912.26850	         7.88715e+57
          1913.07480	         5.19016e+57
          1913.88110	         4.66101e+57
          1914.68740	         5.70303e+57
          1915.49370	         5.75581e+57
          1916.30000	         6.18557e+57
          1917.10630	         6.71600e+57
          1917.91260	         6.12225e+57
          1918.71890	         5.68832e+57
          1919.52520	         5.40189e+57
          1920.33150	         5.83124e+57
          1921.13780	         6.83084e+57
          1921.94410	         8.10339e+57
          1922.75040	         7.77886e+57
          1923.55670	         7.46122e+57
          1924.36300	         6.75487e+57
          1925.16930	         5.66977e+57
          1925.97560	         5.05343e+57
          1926.78190	         4.50892e+57
          1927.58820	         5.62819e+57
          1928.39450	         5.24224e+57
          1929.20080	         5.40448e+57
          1930.00710	         7.31481e+57
          1930.81340	         8.14863e+57
          1931.61970	         7.77772e+57
          1932.42600	         7.99728e+57
          1933.23230	         7.91487e+57
          1934.03860	         5.67504e+57
          1934.84490	         5.24471e+57
          1935.65120	         8.12673e+57
          1936.45750	         8.62238e+57
          1937.26380	         6.78041e+57
          1938.07010	         7.22752e+57
          1938.87640	         8.25473e+57
          1939.68270	         7.68495e+57
          1940.48900	         7.94059e+57
          1941.29530	         8.81675e+57
          1942.10160	         8.05857e+57
          1942.90790	         7.04717e+57
          1943.71420	         6.21783e+57
          1944.52050	         5.44327e+57
          1945.32680	         5.69694e+57
          1946.13310	         6.06579e+57
          1946.93940	         7.24206e+57
          1947.74570	         7.66498e+57
          1948.55200	         7.32926e+57
          1949.35830	         6.74461e+57
          1950.16460	         6.24468e+57
          1950.97090	         5.99078e+57
          1951.77720	         8.02218e+57
          1952.58350	         8.43708e+57
          1953.38980	         5.58529e+57
          1954.19610	         3.47607e+57
          1955.00240	         4.32330e+57
          1955.80870	         6.31596e+57
          1956.61500	         6.94588e+57
          1957.42130	         6.50559e+57
          1958.22760	         6.63493e+57
          1959.03390	         7.70685e+57
          1959.84020	         7.77008e+57
          1960.64650	         5.46971e+57
          1961.45280	         5.53520e+57
          1962.25910	         5.79235e+57
          1963.06540	         6.49114e+57
          1963.87170	         6.10822e+57
          1964.67800	         7.93178e+57
          1965.48430	         7.34569e+57
          1966.29060	         7.53197e+57
          1967.09690	         8.56613e+57
          1967.90320	         7.45581e+57
          1968.70950	         6.81305e+57
          1969.51580	         5.04478e+57
          1970.32210	         5.90227e+57
          1971.12840	         6.55307e+57
          1971.93470	         5.51817e+57
          1972.74100	         4.95208e+57
          1973.54730	         6.08246e+57
          1974.35360	         6.91954e+57
          1975.15990	         7.33141e+57
          1975.96620	         7.56233e+57
          1976.77250	         8.23219e+57
          1977.57880	         7.63078e+57
          1978.38510	         6.76880e+57
          1979.19140	         7.36863e+57
          1979.99770	         8.23921e+57
          1980.80400	         7.34473e+57
          1981.61030	         6.91912e+57
          1982.41660	         5.40733e+57
          1983.22290	         5.71610e+57
          1984.02920	         5.19126e+57
          1984.83550	         6.05542e+57
          1985.64180	         6.49006e+57
          1986.44810	         6.37536e+57
          1987.25440	         5.04879e+57
          1988.06070	         5.15227e+57
          1988.86700	         4.21151e+57
          1989.67330	         6.23557e+57
          1990.47960	         6.61128e+57
          1991.28590	         5.43827e+57
          1992.09220	         6.40574e+57
          1992.89850	         5.11757e+57
          1993.70480	         5.19388e+57
          1994.51110	         4.83393e+57
          1995.31740	         5.44153e+57
          1996.12370	         5.17473e+57
          1996.93000	         6.17232e+57
          1997.73630	         7.60328e+57
          1998.54260	         7.83109e+57
          1999.34890	         7.15724e+57
          2000.15520	         6.43470e+57
          2000.96150	         6.51586e+57
          2001.76780	         6.29002e+57
          2002.57410	         5.90455e+57
          2003.38040	         6.53865e+57
          2004.18670	         5.71133e+57
          2004.99300	         6.05542e+57
          2005.79930	         7.25022e+57
          2006.60560	         7.41610e+57
          2007.41190	         6.53324e+57
          2008.21820	         6.87506e+57
          2009.02450	         6.26244e+57
          2009.83080	         6.68640e+57
          2010.63710	         6.41174e+57
          2011.44340	         6.29767e+57
          2012.24970	         7.20921e+57
          2013.05600	         6.73662e+57
          2013.86230	         6.55447e+57
          2014.66860	         6.04216e+57
          2015.47490	         5.43740e+57
          2016.28120	         4.80071e+57
          2017.08750	         5.42929e+57
          2017.89380	         6.25846e+57
          2018.70010	         6.40204e+57
          2019.50640	         5.51003e+57
          2020.31270	         5.83580e+57
          2021.11900	         7.77594e+57
          2021.92530	         7.16201e+57
          2022.73160	         6.87721e+57
          2023.53790	         7.47622e+57
          2024.34420	         6.51303e+57
          2025.15050	         5.93289e+57
          2025.95680	         6.08419e+57
          2026.76310	         7.12934e+57
          2027.56940	         5.53708e+57
          2028.37570	         6.19393e+57
          2029.18200	         6.66851e+57
          2029.98830	         7.10728e+57
          2030.79460	         6.87260e+57
          2031.60090	         6.76046e+57
          2032.40720	         5.95144e+57
          2033.21350	         6.01296e+57
          2034.01980	         5.56759e+57
          2034.82610	         3.66105e+57
          2035.63240	         3.93130e+57
          2036.43870	         5.03270e+57
          2037.24500	         5.74042e+57
          2038.05130	         6.84407e+57
          2038.85760	         5.52458e+57
          2039.66390	         5.09255e+57
          2040.47020	         6.68315e+57
          2041.27650	         7.01281e+57
          2042.08280	         6.15972e+57
          2042.88910	         5.65767e+57
          2043.69540	         4.97673e+57
          2044.50170	         5.81157e+57
          2045.30800	         4.47163e+57
          2046.11430	         3.43909e+57
          2046.92060	         5.35115e+57
          2047.72690	         5.82755e+57
          2048.53320	         6.53492e+57
          2049.33950	         6.73565e+57
          2050.14580	         6.69729e+57
          2050.95210	         6.29292e+57
          2051.75840	         6.49810e+57
          2052.56470	         4.88245e+57
          2053.37100	         4.16402e+57
          2054.17730	         3.88057e+57
          2054.98360	         4.91111e+57
          2055.78990	         5.56349e+57
          2056.59620	         4.31738e+57
          2057.40250	         5.42519e+57
          2058.20880	         7.26203e+57
          2059.01510	         6.04555e+57
          2059.82140	         5.73864e+57
          2060.62770	         8.72868e+57
          2061.43400	         1.50995e+58
          2062.24030	         1.32457e+58
          2063.04660	         3.00357e+57
          2063.85290	         7.82599e+56
          2064.65920	        -3.42969e+57
          2065.46550	        -9.96109e+57
          2066.27180	        -9.08050e+57
          2067.07810	         3.33078e+57
          2067.88440	         5.01718e+57
          2068.69070	         5.54503e+57
          2069.49700	         3.54587e+57
          2070.30330	         2.95788e+57
          2071.10960	         5.45315e+57
          2071.91590	         7.38471e+57
          2072.72220	         4.34110e+57
          2073.52850	         4.61339e+57
          2074.33480	         5.00935e+57
          2075.14110	         5.15627e+57
          2075.94740	         4.13113e+57
          2076.75370	         3.62365e+57
          2077.56000	         4.50906e+57
          2078.36630	         4.55123e+57
          2079.17260	         4.28722e+57
          2079.97890	         5.30163e+57
          2080.78520	         5.68369e+57
          2081.59150	         5.50790e+57
          2082.39780	         5.11560e+57
          2083.20410	         2.38051e+57
          2084.01040	         2.65433e+57
          2084.81670	         4.61416e+57
          2085.62300	         3.38914e+57
          2086.42930	         3.00416e+57
          2087.23560	         3.67761e+57
          2088.04190	         3.91138e+57
          2088.84820	         3.77125e+57
          2089.65450	         2.86429e+57
          2090.46080	         1.53738e+57
          2091.26710	         2.20608e+57
          2092.07340	         3.65205e+57
          2092.87970	         3.30559e+57
          2093.68600	        -6.53517e+56
          2094.49230	         1.86930e+57
          2095.29860	         4.75228e+57
          2096.10490	         2.96638e+57
          2096.91120	         1.93834e+57
          2097.71750	         2.23462e+57
          2098.52380	         4.85869e+56
          2099.33010	         2.88501e+56
          2100.13640	         2.02134e+57
          2100.94270	         2.66691e+57
          2101.74900	         2.40896e+57
          2102.55530	         1.54912e+57
          2103.36160	         1.79595e+57
          2104.16790	         3.67957e+57
          2104.97420	         2.59215e+57
          2105.78050	         3.30386e+57
          2106.58680	         3.39893e+57
          2107.39310	        -1.40989e+57
          2108.19940	         1.63791e+56
          2109.00570	         3.83382e+56
          2109.81200	        -1.46740e+57
          2110.61830	         1.89988e+57
          2111.42460	         1.50118e+57
          2112.23090	        -9.33851e+56
          2113.03720	        -2.09741e+57
          2113.84350	        -1.84716e+57
          2114.64980	         1.48701e+57
          2115.45610	        -7.95638e+56
          2116.26240	        -5.25566e+56
          2117.06870	         1.29527e+57
          2117.87500	        -9.55478e+56
          2118.68130	        -9.36614e+56
          2119.48760	         4.09506e+57
          2120.29390	         3.87166e+57
          2121.10020	        -4.05657e+56
          2121.90650	        -3.38548e+56
          2122.71280	        -4.03245e+57
          2123.51910	        -3.16828e+56
          2124.32540	         1.51973e+56
          2125.13170	        -9.09170e+56
          2125.93800	        -1.95709e+57
          2126.74430	         9.84064e+56
          2127.55060	        -3.39431e+57
          2128.35690	        -6.14007e+57
          2129.16320	         1.93550e+57
          2129.96950	        -1.43106e+57
          2130.77580	        -2.83279e+57
          2131.58210	        -5.45851e+57
          2132.38840	         2.52843e+57
          2133.19470	         2.20559e+57
          2134.00100	         1.80489e+57
          2134.80730	        -1.16080e+58
          2135.61360	        -5.47339e+57
          2136.41990	         7.58794e+57
          2137.22620	         8.66196e+57
          2138.03250	         7.77623e+56
          2138.83880	        -3.85153e+57
          2139.64510	        -1.28864e+57
          2140.45140	        -2.77826e+57
          2141.25770	        -1.04626e+58
          2142.06400	        -8.25020e+57
          2142.87030	         9.99410e+56
          2143.67660	         1.22334e+58
          2144.48290	         2.31668e+58
          2145.28920	         1.77446e+58
          2146.09550	         2.71001e+57
          2146.90180	        -6.97616e+57
          2147.70810	        -1.67984e+57
          2148.51440	        -4.20891e+57
          2149.32070	        -5.49608e+57
          2150.12700	        -1.03677e+58
          2150.93330	        -5.47190e+57
          2151.73960	         7.90455e+57
          2152.54590	        -7.70167e+56
          2153.35220	        -6.90792e+57
          2154.15850	        -3.30081e+57
          2154.96480	         1.77754e+57
          2155.77110	         5.13888e+56
          2156.57740	         9.56604e+56
          2157.38370	        -4.23543e+57
          2158.19000	         9.46434e+56
          2158.99630	        -3.30517e+57
          2159.80260	        -7.57368e+57
          2160.60890	        -8.12990e+57
          2161.41520	        -1.15055e+57
          2162.22150	        -3.71449e+57
          2163.02780	         3.13086e+56
          2163.83410	        -6.46587e+57
          2164.64040	        -1.05432e+58
          2165.44670	        -1.67569e+58
          2166.25300	        -1.07979e+58
          2167.05930	        -5.08492e+57
          2167.86560	        -2.49038e+57
          2168.67190	        -4.64041e+57
          2169.47820	        -5.55924e+57
          2170.28450	        -1.95371e+56
          2171.09080	         1.72186e+56
          2171.89710	        -7.14577e+56
          2172.70340	         1.97002e+57
          2173.50970	        -7.24228e+57
          2174.31600	        -1.97574e+56
          2175.12230	         1.91572e+57
          2175.92860	        -3.83184e+57
          2176.73490	        -8.46639e+57
          2177.54120	        -7.47608e+57
          2178.34750	        -3.27318e+56
          2179.15380	                 nan
          2179.96010	                 nan
          2180.76640	                 nan
          2181.57270	                 nan
          2182.37900	                 nan
          2183.18530	                 nan
          2183.99160	                 nan
          2184.79790	                 nan
          2185.60420	                 nan
          2186.41050	                 nan
          2187.21680	                 nan
          2188.02310	                 nan
          2188.82940	                 nan
          2189.63570	                 nan
          2190.44200	                 nan
          2191.24830	                 nan
          2192.05460	                 nan
          2192.86090	                 nan
          2193.66720	                 nan
          2194.47350	                 nan
          2195.27980	                 nan
          2196.08610	                 nan
          2196.89240	                 nan
          2197.69870	                 nan
          2198.50500	                 nan
          2199.31130	                 nan
          2200.11760	                 nan
          2200.92390	                 nan
          2201.73020	                 nan
          2202.53650	                 nan
          2203.34280	                 nan
          2204.14910	                 nan
          2204.95540	                 nan
          2205.76170	                 nan
          2206.56800	                 nan
          2207.37430	                 nan
          2208.18060	                 nan
          2208.98690	                 nan
          2209.79320	                 nan
          2210.59950	                 nan
          2211.40580	                 nan
          2212.21210	                 nan
          2213.01840	                 nan
          2213.82470	                 nan
          2214.63100	                 nan
          2215.43730	         0.00000e+00
