#sample_347_stacked_spectrum_rest_UV-bands_median_H-alpha_noDC.txt
#median Lum: 1.66289e+42
#Rest-frame wavelength (A) | Luminosity (erg/s/A)
#
          1110.00000	         0.00000e+00
          1110.80630	         2.45951e+59
          1111.61260	         3.56266e+59
          1112.41890	         2.93672e+59
          1113.22520	         1.39837e+59
          1114.03150	        -5.54531e+58
          1114.83780	         5.36037e+58
          1115.64410	         1.74159e+59
          1116.45040	         1.00127e+59
          1117.25670	         1.06819e+59
          1118.06300	         4.55248e+58
          1118.86930	        -6.30342e+58
          1119.67560	         1.78533e+59
          1120.48190	         3.03687e+58
          1121.28820	        -7.02347e+58
          1122.09450	        -6.81526e+58
          1122.90080	         1.73446e+58
          1123.70710	         1.26602e+59
          1124.51340	         8.87037e+58
          1125.31970	         3.85686e+57
          1126.12600	         2.02433e+57
          1126.93230	         8.53845e+57
          1127.73860	        -3.37962e+58
          1128.54490	         1.04296e+58
          1129.35120	         8.09667e+57
          1130.15750	        -2.10386e+58
          1130.96380	        -3.92002e+58
          1131.77010	         6.88526e+58
          1132.57640	         3.53539e+58
          1133.38270	         3.25383e+58
          1134.18900	         2.80897e+58
          1134.99530	         1.18263e+58
          1135.80160	         1.45095e+58
          1136.60790	         3.28650e+58
          1137.41420	        -8.06256e+57
          1138.22050	         4.94091e+58
          1139.02680	         4.31382e+58
          1139.83310	         3.29241e+58
          1140.63940	         2.59570e+58
          1141.44570	        -2.97797e+57
          1142.25200	         2.08532e+58
          1143.05830	         1.96054e+58
          1143.86460	         1.47900e+58
          1144.67090	         1.76534e+58
          1145.47720	         8.94046e+57
          1146.28350	         3.88576e+57
          1147.08980	         3.27869e+57
          1147.89610	         1.52781e+58
          1148.70240	         2.52410e+58
          1149.50870	         1.89388e+58
          1150.31500	         1.49669e+58
          1151.12130	         1.54514e+58
          1151.92760	         1.59946e+58
          1152.73390	         3.11787e+57
          1153.54020	         5.28145e+57
          1154.34650	         2.58605e+58
          1155.15280	         1.78998e+58
          1155.95910	         6.93803e+57
          1156.76540	         5.53396e+57
          1157.57170	         6.72055e+57
          1158.37800	        -3.42129e+57
          1159.18430	         4.48136e+57
          1159.99060	         1.84762e+58
          1160.79690	         1.40568e+58
          1161.60320	         1.99867e+58
          1162.40950	         1.03324e+58
          1163.21580	         1.89932e+58
          1164.02210	         1.14368e+58
          1164.82840	         1.14104e+58
          1165.63470	         1.84303e+58
          1166.44100	         2.98108e+58
          1167.24730	         2.39158e+58
          1168.05360	         5.42240e+57
          1168.85990	         2.74333e+57
          1169.66620	         1.14762e+58
          1170.47250	         1.37917e+58
          1171.27880	         1.39113e+58
          1172.08510	         1.41444e+58
          1172.89140	         1.19531e+58
          1173.69770	         9.82674e+57
          1174.50400	         1.02189e+58
          1175.31030	         1.80840e+58
          1176.11660	         1.83352e+58
          1176.92290	         1.35477e+58
          1177.72920	         1.01023e+58
          1178.53550	         5.85880e+57
          1179.34180	         4.88077e+57
          1180.14810	         1.05228e+58
          1180.95440	         1.04260e+58
          1181.76070	         5.68818e+57
          1182.56700	         8.15067e+57
          1183.37330	         4.99125e+57
          1184.17960	         1.19438e+58
          1184.98590	         1.41301e+58
          1185.79220	         8.01181e+57
          1186.59850	         1.10964e+58
          1187.40480	         1.10937e+58
          1188.21110	         1.83926e+58
          1189.01740	         8.61507e+57
          1189.82370	         8.07727e+57
          1190.63000	         8.08877e+57
          1191.43630	         1.00708e+58
          1192.24260	         8.45397e+57
          1193.04890	         9.11069e+57
          1193.85520	         1.19736e+58
          1194.66150	         8.82400e+57
          1195.46780	         9.17440e+57
          1196.27410	         1.16329e+58
          1197.08040	         6.06639e+57
          1197.88670	         1.21527e+58
          1198.69300	         1.44549e+58
          1199.49930	         1.37692e+58
          1200.30560	         1.37347e+58
          1201.11190	         1.20400e+58
          1201.91820	         1.02726e+58
          1202.72450	         1.12131e+58
          1203.53080	         1.81176e+58
          1204.33710	         1.02602e+58
          1205.14340	         6.02123e+57
          1205.94970	         6.58061e+57
          1206.75600	         6.59366e+57
          1207.56230	         5.04693e+57
          1208.36860	         8.68165e+57
          1209.17490	         5.20671e+57
          1209.98120	         4.64971e+57
          1210.78750	         8.89542e+57
          1211.59380	         1.12226e+58
          1212.40010	         1.98568e+58
          1213.20640	         2.15431e+58
          1214.01270	         1.74781e+58
          1214.81900	         2.68578e+58
          1215.62530	         4.82554e+58
          1216.43160	         9.12651e+58
          1217.23790	         1.52732e+59
          1218.04420	         1.13355e+59
          1218.85050	         9.12499e+58
          1219.65680	         6.30114e+58
          1220.46310	         3.50740e+58
          1221.26940	         2.22081e+58
          1222.07570	         1.38096e+58
          1222.88200	         1.02936e+58
          1223.68830	         7.19218e+57
          1224.49460	         5.39605e+57
          1225.30090	         4.54042e+57
          1226.10720	         8.26156e+57
          1226.91350	         7.34606e+57
          1227.71980	         7.39679e+57
          1228.52610	         9.93347e+57
          1229.33240	         6.27750e+57
          1230.13870	         6.93889e+57
          1230.94500	         7.21301e+57
          1231.75130	         5.41835e+57
          1232.55760	         7.95064e+57
          1233.36390	         1.05492e+58
          1234.17020	         1.06895e+58
          1234.97650	         7.22104e+57
          1235.78280	         7.19015e+57
          1236.58910	         1.03914e+58
          1237.39540	         9.90135e+57
          1238.20170	         7.88560e+57
          1239.00800	         9.89807e+57
          1239.81430	         1.37758e+58
          1240.62060	         9.96061e+57
          1241.42690	         1.13006e+58
          1242.23320	         1.34677e+58
          1243.03950	         1.01754e+58
          1243.84580	         1.06578e+58
          1244.65210	         1.10849e+58
          1245.45840	         8.45995e+57
          1246.26470	         8.44209e+57
          1247.07100	         7.94943e+57
          1247.87730	         9.13273e+57
          1248.68360	         5.18724e+57
          1249.48990	         9.29145e+57
          1250.29620	         1.12477e+58
          1251.10250	         7.79747e+57
          1251.90880	         3.72797e+57
          1252.71510	         3.16920e+57
          1253.52140	         4.92524e+57
          1254.32770	         7.91880e+57
          1255.13400	         1.03718e+58
          1255.94030	         1.20046e+58
          1256.74660	         1.07132e+58
          1257.55290	         1.02987e+58
          1258.35920	         8.01722e+57
          1259.16550	         4.75721e+57
          1259.97180	         4.90272e+57
          1260.77810	         8.03238e+57
          1261.58440	         1.16635e+58
          1262.39070	         8.18776e+57
          1263.19700	         6.89340e+57
          1264.00330	         9.01506e+57
          1264.80960	         1.00194e+58
          1265.61590	         1.22855e+58
          1266.42220	         1.21113e+58
          1267.22850	         8.74954e+57
          1268.03480	         1.18244e+58
          1268.84110	         1.39614e+58
          1269.64740	         1.33491e+58
          1270.45370	         1.54424e+58
          1271.26000	         1.28015e+58
          1272.06630	         1.06360e+58
          1272.87260	         1.11319e+58
          1273.67890	         1.22099e+58
          1274.48520	         1.26044e+58
          1275.29150	         1.22767e+58
          1276.09780	         1.25304e+58
          1276.90410	         1.31677e+58
          1277.71040	         1.31024e+58
          1278.51670	         1.23574e+58
          1279.32300	         1.39389e+58
          1280.12930	         1.33967e+58
          1280.93560	         1.26703e+58
          1281.74190	         1.24154e+58
          1282.54820	         1.30145e+58
          1283.35450	         1.00713e+58
          1284.16080	         8.40657e+57
          1284.96710	         1.43034e+58
          1285.77340	         1.19125e+58
          1286.57970	         1.04920e+58
          1287.38600	         1.45489e+58
          1288.19230	         1.73049e+58
          1288.99860	         1.55836e+58
          1289.80490	         1.23789e+58
          1290.61120	         1.35155e+58
          1291.41750	         1.65107e+58
          1292.22380	         1.27741e+58
          1293.03010	         1.06990e+58
          1293.83640	         1.33407e+58
          1294.64270	         1.08266e+58
          1295.44900	         5.81556e+57
          1296.25530	         6.25439e+57
          1297.06160	         9.88244e+57
          1297.86790	         1.18895e+58
          1298.67420	         1.19204e+58
          1299.48050	         1.04024e+58
          1300.28680	         9.93332e+57
          1301.09310	         8.34153e+57
          1301.89940	         4.86616e+57
          1302.70570	         6.66737e+57
          1303.51200	         7.94930e+57
          1304.31830	         9.36602e+57
          1305.12460	         1.09432e+58
          1305.93090	         1.08867e+58
          1306.73720	         1.19964e+58
          1307.54350	         1.51642e+58
          1308.34980	         1.64890e+58
          1309.15610	         1.53714e+58
          1309.96240	         1.54294e+58
          1310.76870	         1.42782e+58
          1311.57500	         1.12985e+58
          1312.38130	         9.03547e+57
          1313.18760	         1.28670e+58
          1313.99390	         1.70585e+58
          1314.80020	         1.57354e+58
          1315.60650	         1.48024e+58
          1316.41280	         1.35748e+58
          1317.21910	         1.09036e+58
          1318.02540	         1.23182e+58
          1318.83170	         1.27223e+58
          1319.63800	         1.24020e+58
          1320.44430	         1.16965e+58
          1321.25060	         1.16468e+58
          1322.05690	         1.19842e+58
          1322.86320	         1.23751e+58
          1323.66950	         1.12961e+58
          1324.47580	         8.37920e+57
          1325.28210	         8.06305e+57
          1326.08840	         1.05366e+58
          1326.89470	         1.27198e+58
          1327.70100	         1.23087e+58
          1328.50730	         8.61842e+57
          1329.31360	         9.07624e+57
          1330.11990	         1.05786e+58
          1330.92620	         1.02544e+58
          1331.73250	         1.14935e+58
          1332.53880	         1.16147e+58
          1333.34510	         9.61995e+57
          1334.15140	         8.60918e+57
          1334.95770	         1.00442e+58
          1335.76400	         1.12734e+58
          1336.57030	         1.06962e+58
          1337.37660	         9.63677e+57
          1338.18290	         1.06333e+58
          1338.98920	         1.16181e+58
          1339.79550	         1.13493e+58
          1340.60180	         1.15805e+58
          1341.40810	         1.32260e+58
          1342.21440	         1.23906e+58
          1343.02070	         1.18123e+58
          1343.82700	         1.43425e+58
          1344.63330	         1.48017e+58
          1345.43960	         1.37835e+58
          1346.24590	         1.12706e+58
          1347.05220	         1.28748e+58
          1347.85850	         1.14747e+58
          1348.66480	         1.26674e+58
          1349.47110	         1.31815e+58
          1350.27740	         1.21584e+58
          1351.08370	         1.15565e+58
          1351.89000	         1.17698e+58
          1352.69630	         1.22469e+58
          1353.50260	         1.20171e+58
          1354.30890	         1.26435e+58
          1355.11520	         1.30490e+58
          1355.92150	         1.13505e+58
          1356.72780	         9.52365e+57
          1357.53410	         9.71048e+57
          1358.34040	         1.11733e+58
          1359.14670	         1.16402e+58
          1359.95300	         1.10806e+58
          1360.75930	         1.11570e+58
          1361.56560	         1.19064e+58
          1362.37190	         1.19220e+58
          1363.17820	         1.06880e+58
          1363.98450	         1.07200e+58
          1364.79080	         1.22107e+58
          1365.59710	         1.31002e+58
          1366.40340	         1.20158e+58
          1367.20970	         9.14970e+57
          1368.01600	         1.11978e+58
          1368.82230	         1.15373e+58
          1369.62860	         1.01140e+58
          1370.43490	         8.96696e+57
          1371.24120	         7.21681e+57
          1372.04750	         7.73797e+57
          1372.85380	         9.71263e+57
          1373.66010	         1.12619e+58
          1374.46640	         1.12872e+58
          1375.27270	         1.08927e+58
          1376.07900	         9.64713e+57
          1376.88530	         8.74288e+57
          1377.69160	         9.74130e+57
          1378.49790	         8.17306e+57
          1379.30420	         8.01849e+57
          1380.11050	         8.49325e+57
          1380.91680	         8.46769e+57
          1381.72310	         7.60742e+57
          1382.52940	         7.06081e+57
          1383.33570	         7.73641e+57
          1384.14200	         9.59098e+57
          1384.94830	         9.63229e+57
          1385.75460	         9.88100e+57
          1386.56090	         1.14359e+58
          1387.36720	         1.18694e+58
          1388.17350	         1.37847e+58
          1388.97980	         1.16567e+58
          1389.78610	         9.14182e+57
          1390.59240	         8.50534e+57
          1391.39870	         7.15356e+57
          1392.20500	         8.59903e+57
          1393.01130	         8.25501e+57
          1393.81760	         6.98155e+57
          1394.62390	         6.86014e+57
          1395.43020	         6.18098e+57
          1396.23650	         7.08302e+57
          1397.04280	         8.86675e+57
          1397.84910	         9.09682e+57
          1398.65540	         8.00879e+57
          1399.46170	         8.45896e+57
          1400.26800	         8.33562e+57
          1401.07430	         8.50535e+57
          1401.88060	         9.32999e+57
          1402.68690	         1.01249e+58
          1403.49320	         9.60429e+57
          1404.29950	         8.65045e+57
          1405.10580	         1.10687e+58
          1405.91210	         1.16204e+58
          1406.71840	         1.06973e+58
          1407.52470	         1.05240e+58
          1408.33100	         1.03093e+58
          1409.13730	         1.20278e+58
          1409.94360	         1.14445e+58
          1410.74990	         1.02858e+58
          1411.55620	         9.77687e+57
          1412.36250	         9.55346e+57
          1413.16880	         9.28642e+57
          1413.97510	         7.53495e+57
          1414.78140	         8.93143e+57
          1415.58770	         1.09630e+58
          1416.39400	         1.03122e+58
          1417.20030	         1.05445e+58
          1418.00660	         1.10084e+58
          1418.81290	         1.16335e+58
          1419.61920	         1.21161e+58
          1420.42550	         1.43398e+58
          1421.23180	         1.43214e+58
          1422.03810	         1.23211e+58
          1422.84440	         1.08848e+58
          1423.65070	         1.16759e+58
          1424.45700	         1.05007e+58
          1425.26330	         7.86010e+57
          1426.06960	         8.90524e+57
          1426.87590	         1.01322e+58
          1427.68220	         9.80469e+57
          1428.48850	         1.15103e+58
          1429.29480	         1.12510e+58
          1430.10110	         9.59297e+57
          1430.90740	         8.06488e+57
          1431.71370	         8.15873e+57
          1432.52000	         8.94848e+57
          1433.32630	         8.10647e+57
          1434.13260	         7.99816e+57
          1434.93890	         8.19580e+57
          1435.74520	         9.02654e+57
          1436.55150	         9.66266e+57
          1437.35780	         9.09554e+57
          1438.16410	         9.67110e+57
          1438.97040	         9.48154e+57
          1439.77670	         8.88215e+57
          1440.58300	         9.45431e+57
          1441.38930	         9.46391e+57
          1442.19560	         1.01948e+58
          1443.00190	         1.09379e+58
          1443.80820	         1.16842e+58
          1444.61450	         1.06176e+58
          1445.42080	         7.80446e+57
          1446.22710	         9.53343e+57
          1447.03340	         1.02096e+58
          1447.83970	         1.06123e+58
          1448.64600	         1.10795e+58
          1449.45230	         9.41798e+57
          1450.25860	         9.14419e+57
          1451.06490	         9.01923e+57
          1451.87120	         7.86532e+57
          1452.67750	         7.96414e+57
          1453.48380	         9.60956e+57
          1454.29010	         8.87225e+57
          1455.09640	         8.21520e+57
          1455.90270	         9.98365e+57
          1456.70900	         9.12921e+57
          1457.51530	         1.00519e+58
          1458.32160	         1.19571e+58
          1459.12790	         1.09575e+58
          1459.93420	         8.70434e+57
          1460.74050	         6.45446e+57
          1461.54680	         7.09354e+57
          1462.35310	         7.19895e+57
          1463.15940	         8.17958e+57
          1463.96570	         1.01857e+58
          1464.77200	         1.17843e+58
          1465.57830	         9.82454e+57
          1466.38460	         8.76560e+57
          1467.19090	         9.04136e+57
          1467.99720	         9.05086e+57
          1468.80350	         9.12537e+57
          1469.60980	         9.63748e+57
          1470.41610	         1.13048e+58
          1471.22240	         9.70917e+57
          1472.02870	         9.70335e+57
          1472.83500	         1.07051e+58
          1473.64130	         1.03018e+58
          1474.44760	         1.02289e+58
          1475.25390	         9.43451e+57
          1476.06020	         9.04917e+57
          1476.86650	         9.23156e+57
          1477.67280	         9.29023e+57
          1478.47910	         7.44235e+57
          1479.28540	         6.54560e+57
          1480.09170	         8.33335e+57
          1480.89800	         8.49419e+57
          1481.70430	         8.69862e+57
          1482.51060	         8.48966e+57
          1483.31690	         8.19074e+57
          1484.12320	         8.42575e+57
          1484.92950	         8.18101e+57
          1485.73580	         8.75709e+57
          1486.54210	         9.63430e+57
          1487.34840	         1.00440e+58
          1488.15470	         1.01920e+58
          1488.96100	         9.99149e+57
          1489.76730	         9.46097e+57
          1490.57360	         8.20654e+57
          1491.37990	         7.00989e+57
          1492.18620	         8.06725e+57
          1492.99250	         8.26222e+57
          1493.79880	         8.25025e+57
          1494.60510	         9.02761e+57
          1495.41140	         7.76439e+57
          1496.21770	         8.97943e+57
          1497.02400	         1.09199e+58
          1497.83030	         9.11638e+57
          1498.63660	         7.12648e+57
          1499.44290	         7.18126e+57
          1500.24920	         6.99407e+57
          1501.05550	         8.01973e+57
          1501.86180	         9.34639e+57
          1502.66810	         1.01008e+58
          1503.47440	         9.65040e+57
          1504.28070	         8.98953e+57
          1505.08700	         1.00152e+58
          1505.89330	         9.78478e+57
          1506.69960	         8.77157e+57
          1507.50590	         8.65029e+57
          1508.31220	         8.28333e+57
          1509.11850	         8.17474e+57
          1509.92480	         9.03001e+57
          1510.73110	         8.97751e+57
          1511.53740	         7.04578e+57
          1512.34370	         6.34995e+57
          1513.15000	         8.50269e+57
          1513.95630	         9.52185e+57
          1514.76260	         8.20910e+57
          1515.56890	         8.17168e+57
          1516.37520	         8.09569e+57
          1517.18150	         7.51728e+57
          1517.98780	         7.05378e+57
          1518.79410	         7.45378e+57
          1519.60040	         8.18957e+57
          1520.40670	         9.17260e+57
          1521.21300	         8.84707e+57
          1522.01930	         8.05309e+57
          1522.82560	         9.12702e+57
          1523.63190	         9.23737e+57
          1524.43820	         8.50722e+57
          1525.24450	         7.16215e+57
          1526.05080	         6.78039e+57
          1526.85710	         6.82604e+57
          1527.66340	         6.74642e+57
          1528.46970	         7.51884e+57
          1529.27600	         8.30440e+57
          1530.08230	         8.25097e+57
          1530.88860	         7.66785e+57
          1531.69490	         9.13604e+57
          1532.50120	         9.47551e+57
          1533.30750	         9.80991e+57
          1534.11380	         9.43728e+57
          1534.92010	         9.56147e+57
          1535.72640	         9.03858e+57
          1536.53270	         9.72113e+57
          1537.33900	         9.95160e+57
          1538.14530	         8.81055e+57
          1538.95160	         9.13771e+57
          1539.75790	         8.75208e+57
          1540.56420	         9.04520e+57
          1541.37050	         8.50109e+57
          1542.17680	         7.10892e+57
          1542.98310	         7.60003e+57
          1543.78940	         8.15601e+57
          1544.59570	         7.21906e+57
          1545.40200	         8.41212e+57
          1546.20830	         8.92125e+57
          1547.01460	         1.01780e+58
          1547.82090	         1.10489e+58
          1548.62720	         1.12874e+58
          1549.43350	         1.12056e+58
          1550.23980	         1.11375e+58
          1551.04610	         1.25063e+58
          1551.85240	         1.23078e+58
          1552.65870	         1.20261e+58
          1553.46500	         1.00877e+58
          1554.27130	         9.31657e+57
          1555.07760	         9.24009e+57
          1555.88390	         8.59513e+57
          1556.69020	         8.83011e+57
          1557.49650	         8.44966e+57
          1558.30280	         8.72280e+57
          1559.10910	         8.69738e+57
          1559.91540	         8.83063e+57
          1560.72170	         9.32252e+57
          1561.52800	         9.07620e+57
          1562.33430	         8.83437e+57
          1563.14060	         7.65132e+57
          1563.94690	         7.16144e+57
          1564.75320	         7.87509e+57
          1565.55950	         7.53210e+57
          1566.36580	         8.00824e+57
          1567.17210	         9.18510e+57
          1567.97840	         8.69078e+57
          1568.78470	         8.63074e+57
          1569.59100	         9.12025e+57
          1570.39730	         8.36237e+57
          1571.20360	         7.68485e+57
          1572.00990	         8.36879e+57
          1572.81620	         8.60994e+57
          1573.62250	         9.28495e+57
          1574.42880	         8.82632e+57
          1575.23510	         8.29838e+57
          1576.04140	         8.80444e+57
          1576.84770	         8.86880e+57
          1577.65400	         8.57808e+57
          1578.46030	         1.03708e+58
          1579.26660	         1.06556e+58
          1580.07290	         9.53834e+57
          1580.87920	         7.75508e+57
          1581.68550	         6.91787e+57
          1582.49180	         7.78588e+57
          1583.29810	         7.63656e+57
          1584.10440	         8.05986e+57
          1584.91070	         7.65812e+57
          1585.71700	         7.46570e+57
          1586.52330	         8.83897e+57
          1587.32960	         8.90030e+57
          1588.13590	         9.13372e+57
          1588.94220	         9.07506e+57
          1589.74850	         9.23843e+57
          1590.55480	         9.92071e+57
          1591.36110	         8.14539e+57
          1592.16740	         7.90323e+57
          1592.97370	         9.05407e+57
          1593.78000	         8.93718e+57
          1594.58630	         9.12947e+57
          1595.39260	         8.58657e+57
          1596.19890	         8.99720e+57
          1597.00520	         9.16845e+57
          1597.81150	         9.03434e+57
          1598.61780	         7.66098e+57
          1599.42410	         6.81642e+57
          1600.23040	         6.42047e+57
          1601.03670	         7.62704e+57
          1601.84300	         7.90330e+57
          1602.64930	         8.93475e+57
          1603.45560	         8.96881e+57
          1604.26190	         7.75072e+57
          1605.06820	         8.24917e+57
          1605.87450	         7.84193e+57
          1606.68080	         6.61620e+57
          1607.48710	         6.49882e+57
          1608.29340	         6.25255e+57
          1609.09970	         6.81816e+57
          1609.90600	         7.99951e+57
          1610.71230	         7.74976e+57
          1611.51860	         6.76486e+57
          1612.32490	         6.21607e+57
          1613.13120	         6.56515e+57
          1613.93750	         7.33421e+57
          1614.74380	         8.81322e+57
          1615.55010	         8.94704e+57
          1616.35640	         9.30668e+57
          1617.16270	         1.06642e+58
          1617.96900	         1.00723e+58
          1618.77530	         8.24468e+57
          1619.58160	         8.30000e+57
          1620.38790	         9.72285e+57
          1621.19420	         9.36632e+57
          1622.00050	         8.20872e+57
          1622.80680	         8.96539e+57
          1623.61310	         8.14420e+57
          1624.41940	         7.63537e+57
          1625.22570	         8.35314e+57
          1626.03200	         8.69333e+57
          1626.83830	         8.33762e+57
          1627.64460	         7.36915e+57
          1628.45090	         6.78202e+57
          1629.25720	         8.53227e+57
          1630.06350	         1.02937e+58
          1630.86980	         6.23191e+57
          1631.67610	         5.77809e+57
          1632.48240	         8.17309e+57
          1633.28870	         8.97505e+57
          1634.09500	         9.24997e+57
          1634.90130	         1.07877e+58
          1635.70760	         8.92120e+57
          1636.51390	         7.20958e+57
          1637.32020	         6.54118e+57
          1638.12650	         9.30193e+57
          1638.93280	         9.85064e+57
          1639.73910	         1.01069e+58
          1640.54540	         1.11907e+58
          1641.35170	         9.42174e+57
          1642.15800	         9.40575e+57
          1642.96430	         8.72167e+57
          1643.77060	         9.17866e+57
          1644.57690	         8.37605e+57
          1645.38320	         8.01296e+57
          1646.18950	         7.71729e+57
          1646.99580	         8.37971e+57
          1647.80210	         8.09460e+57
          1648.60840	         7.14597e+57
          1649.41470	         7.79645e+57
          1650.22100	         7.12461e+57
          1651.02730	         6.41292e+57
          1651.83360	         7.68758e+57
          1652.63990	         8.06411e+57
          1653.44620	         8.20328e+57
          1654.25250	         7.99335e+57
          1655.05880	         7.54214e+57
          1655.86510	         8.78178e+57
          1656.67140	         8.78598e+57
          1657.47770	         8.44432e+57
          1658.28400	         8.11282e+57
          1659.09030	         8.43757e+57
          1659.89660	         9.64783e+57
          1660.70290	         9.87115e+57
          1661.50920	         9.14553e+57
          1662.31550	         8.60268e+57
          1663.12180	         8.62628e+57
          1663.92810	         9.50238e+57
          1664.73440	         1.11079e+58
          1665.54070	         1.23748e+58
          1666.34700	         1.22330e+58
          1667.15330	         1.04045e+58
          1667.95960	         8.84930e+57
          1668.76590	         7.88511e+57
          1669.57220	         6.84726e+57
          1670.37850	         7.34734e+57
          1671.18480	         8.42194e+57
          1671.99110	         7.80310e+57
          1672.79740	         7.20139e+57
          1673.60370	         6.49947e+57
          1674.41000	         7.49438e+57
          1675.21630	         7.11477e+57
          1676.02260	         6.70354e+57
          1676.82890	         7.24749e+57
          1677.63520	         6.26990e+57
          1678.44150	         6.73264e+57
          1679.24780	         8.84731e+57
          1680.05410	         8.55717e+57
          1680.86040	         6.43539e+57
          1681.66670	         6.70839e+57
          1682.47300	         7.70250e+57
          1683.27930	         7.77058e+57
          1684.08560	         7.99141e+57
          1684.89190	         7.20683e+57
          1685.69820	         5.07760e+57
          1686.50450	         5.37282e+57
          1687.31080	         6.67565e+57
          1688.11710	         7.86867e+57
          1688.92340	         7.11430e+57
          1689.72970	         6.91903e+57
          1690.53600	         7.49803e+57
          1691.34230	         7.84324e+57
          1692.14860	         7.98683e+57
          1692.95490	         7.57357e+57
          1693.76120	         7.29012e+57
          1694.56750	         7.26657e+57
          1695.37380	         8.23540e+57
          1696.18010	         8.22864e+57
          1696.98640	         8.47505e+57
          1697.79270	         8.20850e+57
          1698.59900	         7.51922e+57
          1699.40530	         6.17165e+57
          1700.21160	         6.77222e+57
          1701.01790	         7.96581e+57
          1701.82420	         7.06211e+57
          1702.63050	         7.24938e+57
          1703.43680	         9.17856e+57
          1704.24310	         8.51251e+57
          1705.04940	         8.81466e+57
          1705.85570	         9.01907e+57
          1706.66200	         8.66566e+57
          1707.46830	         8.97736e+57
          1708.27460	         7.55621e+57
          1709.08090	         6.44937e+57
          1709.88720	         7.47221e+57
          1710.69350	         7.28250e+57
          1711.49980	         6.53848e+57
          1712.30610	         7.22490e+57
          1713.11240	         8.78103e+57
          1713.91870	         7.72242e+57
          1714.72500	         7.48724e+57
          1715.53130	         8.56267e+57
          1716.33760	         8.29399e+57
          1717.14390	         7.12068e+57
          1717.95020	         8.30887e+57
          1718.75650	         9.22859e+57
          1719.56280	         8.69618e+57
          1720.36910	         7.71358e+57
          1721.17540	         7.27567e+57
          1721.98170	         6.60653e+57
          1722.78800	         5.98175e+57
          1723.59430	         6.72268e+57
          1724.40060	         7.95808e+57
          1725.20690	         7.80174e+57
          1726.01320	         7.31117e+57
          1726.81950	         7.37010e+57
          1727.62580	         7.49294e+57
          1728.43210	         7.24002e+57
          1729.23840	         7.37273e+57
          1730.04470	         7.53244e+57
          1730.85100	         8.14226e+57
          1731.65730	         8.25667e+57
          1732.46360	         7.68155e+57
          1733.26990	         6.23122e+57
          1734.07620	         6.62684e+57
          1734.88250	         7.60545e+57
          1735.68880	         7.50849e+57
          1736.49510	         8.28412e+57
          1737.30140	         8.10031e+57
          1738.10770	         6.74577e+57
          1738.91400	         7.81773e+57
          1739.72030	         7.00741e+57
          1740.52660	         5.86455e+57
          1741.33290	         6.01745e+57
          1742.13920	         6.49220e+57
          1742.94550	         7.50188e+57
          1743.75180	         6.92798e+57
          1744.55810	         6.68971e+57
          1745.36440	         8.02843e+57
          1746.17070	         6.54453e+57
          1746.97700	         5.54949e+57
          1747.78330	         6.71825e+57
          1748.58960	         7.82367e+57
          1749.39590	         7.84233e+57
          1750.20220	         6.97579e+57
          1751.00850	         5.94596e+57
          1751.81480	         6.46217e+57
          1752.62110	         7.86405e+57
          1753.42740	         8.38637e+57
          1754.23370	         7.89747e+57
          1755.04000	         7.97191e+57
          1755.84630	         8.76057e+57
          1756.65260	         9.72474e+57
          1757.45890	         8.22000e+57
          1758.26520	         6.91876e+57
          1759.07150	         9.06985e+57
          1759.87780	         8.78854e+57
          1760.68410	         7.91307e+57
          1761.49040	         7.18331e+57
          1762.29670	         5.57198e+57
          1763.10300	         6.01806e+57
          1763.90930	         7.81731e+57
          1764.71560	         7.55559e+57
          1765.52190	         7.89329e+57
          1766.32820	         8.73677e+57
          1767.13450	         8.63130e+57
          1767.94080	         6.08242e+57
          1768.74710	         5.35378e+57
          1769.55340	         6.95116e+57
          1770.35970	         6.66375e+57
          1771.16600	         7.03755e+57
          1771.97230	         8.06942e+57
          1772.77860	         8.48335e+57
          1773.58490	         8.12938e+57
          1774.39120	         6.22297e+57
          1775.19750	         5.24144e+57
          1776.00380	         6.51517e+57
          1776.81010	         7.35758e+57
          1777.61640	         6.63860e+57
          1778.42270	         6.45501e+57
          1779.22900	         6.40896e+57
          1780.03530	         6.68737e+57
          1780.84160	         8.59699e+57
          1781.64790	         9.21840e+57
          1782.45420	         7.39071e+57
          1783.26050	         6.67460e+57
          1784.06680	         7.21702e+57
          1784.87310	         6.82439e+57
          1785.67940	         7.14211e+57
          1786.48570	         7.14785e+57
          1787.29200	         6.11733e+57
          1788.09830	         5.63237e+57
          1788.90460	         5.96368e+57
          1789.71090	         6.22530e+57
          1790.51720	         4.91613e+57
          1791.32350	         6.68693e+57
          1792.12980	         8.28164e+57
          1792.93610	         7.65796e+57
          1793.74240	         6.89692e+57
          1794.54870	         7.41673e+57
          1795.35500	         8.05198e+57
          1796.16130	         8.33569e+57
          1796.96760	         7.53719e+57
          1797.77390	         7.55635e+57
          1798.58020	         7.11710e+57
          1799.38650	         6.69278e+57
          1800.19280	         7.07494e+57
          1800.99910	         7.14498e+57
          1801.80540	         8.30864e+57
          1802.61170	         8.73496e+57
          1803.41800	         7.47155e+57
          1804.22430	         7.72036e+57
          1805.03060	         6.51057e+57
          1805.83690	         7.77622e+57
          1806.64320	         8.44420e+57
          1807.44950	         7.07590e+57
          1808.25580	         8.33448e+57
          1809.06210	         9.22217e+57
          1809.86840	         7.14471e+57
          1810.67470	         6.81607e+57
          1811.48100	         8.69252e+57
          1812.28730	         7.80601e+57
          1813.09360	         6.82050e+57
          1813.89990	         6.97554e+57
          1814.70620	         7.39443e+57
          1815.51250	         7.91154e+57
          1816.31880	         6.70486e+57
          1817.12510	         6.21604e+57
          1817.93140	         5.76628e+57
          1818.73770	         6.17195e+57
          1819.54400	         8.36444e+57
          1820.35030	         9.50742e+57
          1821.15660	         7.38000e+57
          1821.96290	         5.94370e+57
          1822.76920	         6.60105e+57
          1823.57550	         7.11798e+57
          1824.38180	         7.51007e+57
          1825.18810	         7.52175e+57
          1825.99440	         8.04108e+57
          1826.80070	         7.59827e+57
          1827.60700	         7.80175e+57
          1828.41330	         7.43194e+57
          1829.21960	         7.72597e+57
          1830.02590	         7.30094e+57
          1830.83220	         7.57786e+57
          1831.63850	         6.95362e+57
          1832.44480	         6.58611e+57
          1833.25110	         8.01292e+57
          1834.05740	         8.26011e+57
          1834.86370	         7.08731e+57
          1835.67000	         5.27160e+57
          1836.47630	         6.50020e+57
          1837.28260	         8.59853e+57
          1838.08890	         9.00538e+57
          1838.89520	         8.82417e+57
          1839.70150	         7.46324e+57
          1840.50780	         7.32810e+57
          1841.31410	         6.72591e+57
          1842.12040	         6.66503e+57
          1842.92670	         6.43687e+57
          1843.73300	         6.04576e+57
          1844.53930	         6.71010e+57
          1845.34560	         7.14625e+57
          1846.15190	         7.76960e+57
          1846.95820	         8.39820e+57
          1847.76450	         7.54255e+57
          1848.57080	         5.26643e+57
          1849.37710	         4.67899e+57
          1850.18340	         6.49424e+57
          1850.98970	         7.58243e+57
          1851.79600	         7.92491e+57
          1852.60230	         7.21427e+57
          1853.40860	         7.09278e+57
          1854.21490	         6.75330e+57
          1855.02120	         5.34571e+57
          1855.82750	         4.67676e+57
          1856.63380	         5.31699e+57
          1857.44010	         7.38197e+57
          1858.24640	         7.04054e+57
          1859.05270	         5.74343e+57
          1859.85900	         4.54747e+57
          1860.66530	         4.17440e+57
          1861.47160	         6.37235e+57
          1862.27790	         7.12448e+57
          1863.08420	         6.99091e+57
          1863.89050	         7.18726e+57
          1864.69680	         6.81210e+57
          1865.50310	         6.94660e+57
          1866.30940	         6.08232e+57
          1867.11570	         5.98500e+57
          1867.92200	         7.84981e+57
          1868.72830	         7.20789e+57
          1869.53460	         6.42274e+57
          1870.34090	         6.79283e+57
          1871.14720	         7.35222e+57
          1871.95350	         7.19631e+57
          1872.75980	         7.53707e+57
          1873.56610	         6.88276e+57
          1874.37240	         5.43152e+57
          1875.17870	         6.21740e+57
          1875.98500	         7.94835e+57
          1876.79130	         8.21124e+57
          1877.59760	         6.47191e+57
          1878.40390	         6.20351e+57
          1879.21020	         6.16207e+57
          1880.01650	         6.94555e+57
          1880.82280	         8.32773e+57
          1881.62910	         8.56280e+57
          1882.43540	         1.02395e+58
          1883.24170	         7.85600e+57
          1884.04800	         5.73127e+57
          1884.85430	         6.76935e+57
          1885.66060	         8.21953e+57
          1886.46690	         8.50958e+57
          1887.27320	         7.94095e+57
          1888.07950	         6.54231e+57
          1888.88580	         6.11469e+57
          1889.69210	         7.79227e+57
          1890.49840	         8.17709e+57
          1891.30470	         7.28622e+57
          1892.11100	         8.01601e+57
          1892.91730	         8.40722e+57
          1893.72360	         7.30291e+57
          1894.52990	         7.85761e+57
          1895.33620	         8.10228e+57
          1896.14250	         7.23645e+57
          1896.94880	         7.36247e+57
          1897.75510	         5.56410e+57
          1898.56140	         5.59516e+57
          1899.36770	         8.11585e+57
          1900.17400	         6.64918e+57
          1900.98030	         6.35867e+57
          1901.78660	         8.41846e+57
          1902.59290	         7.66280e+57
          1903.39920	         8.01119e+57
          1904.20550	         9.04946e+57
          1905.01180	         9.04000e+57
          1905.81810	         8.53852e+57
          1906.62440	         1.06701e+58
          1907.43070	         1.48392e+58
          1908.23700	         1.61703e+58
          1909.04330	         1.27145e+58
          1909.84960	         1.13464e+58
          1910.65590	         9.76735e+57
          1911.46220	         9.30622e+57
          1912.26850	         7.82603e+57
          1913.07480	         6.64793e+57
          1913.88110	         5.81915e+57
          1914.68740	         5.84551e+57
          1915.49370	         6.38463e+57
          1916.30000	         6.45638e+57
          1917.10630	         6.56192e+57
          1917.91260	         6.46267e+57
          1918.71890	         6.60438e+57
          1919.52520	         6.82766e+57
          1920.33150	         6.00879e+57
          1921.13780	         6.55423e+57
          1921.94410	         7.35147e+57
          1922.75040	         7.70242e+57
          1923.55670	         8.44778e+57
          1924.36300	         8.36331e+57
          1925.16930	         6.06873e+57
          1925.97560	         5.35482e+57
          1926.78190	         5.42564e+57
          1927.58820	         6.61476e+57
          1928.39450	         6.95965e+57
          1929.20080	         5.91710e+57
          1930.00710	         6.65569e+57
          1930.81340	         7.39479e+57
          1931.61970	         6.91902e+57
          1932.42600	         7.49173e+57
          1933.23230	         8.97205e+57
          1934.03860	         7.20334e+57
          1934.84490	         5.38479e+57
          1935.65120	         8.48831e+57
          1936.45750	         8.93893e+57
          1937.26380	         7.21998e+57
          1938.07010	         7.41488e+57
          1938.87640	         6.26016e+57
          1939.68270	         6.78709e+57
          1940.48900	         7.04197e+57
          1941.29530	         8.51559e+57
          1942.10160	         8.59997e+57
          1942.90790	         6.41769e+57
          1943.71420	         5.75413e+57
          1944.52050	         5.88369e+57
          1945.32680	         5.27283e+57
          1946.13310	         7.03582e+57
          1946.93940	         8.20314e+57
          1947.74570	         7.35902e+57
          1948.55200	         5.86089e+57
          1949.35830	         6.92156e+57
          1950.16460	         6.42262e+57
          1950.97090	         6.42711e+57
          1951.77720	         6.61950e+57
          1952.58350	         6.73124e+57
          1953.38980	         5.95599e+57
          1954.19610	         3.58987e+57
          1955.00240	         4.44262e+57
          1955.80870	         5.65167e+57
          1956.61500	         5.85384e+57
          1957.42130	         6.36657e+57
          1958.22760	         6.90536e+57
          1959.03390	         6.57177e+57
          1959.84020	         7.49812e+57
          1960.64650	         6.57743e+57
          1961.45280	         4.75003e+57
          1962.25910	         4.99093e+57
          1963.06540	         5.47929e+57
          1963.87170	         5.08918e+57
          1964.67800	         6.42697e+57
          1965.48430	         6.07566e+57
          1966.29060	         6.10946e+57
          1967.09690	         6.75587e+57
          1967.90320	         6.97621e+57
          1968.70950	         6.58470e+57
          1969.51580	         6.15257e+57
          1970.32210	         6.39032e+57
          1971.12840	         6.99279e+57
          1971.93470	         4.72211e+57
          1972.74100	         4.82449e+57
          1973.54730	         6.35932e+57
          1974.35360	         6.92227e+57
          1975.15990	         6.67099e+57
          1975.96620	         6.78910e+57
          1976.77250	         8.32198e+57
          1977.57880	         7.64007e+57
          1978.38510	         6.80049e+57
          1979.19140	         7.16093e+57
          1979.99770	         7.17338e+57
          1980.80400	         6.97746e+57
          1981.61030	         6.75257e+57
          1982.41660	         6.06675e+57
          1983.22290	         6.19741e+57
          1984.02920	         5.94907e+57
          1984.83550	         6.07521e+57
          1985.64180	         5.80454e+57
          1986.44810	         6.03565e+57
          1987.25440	         6.48192e+57
          1988.06070	         6.78748e+57
          1988.86700	         6.55955e+57
          1989.67330	         7.02372e+57
          1990.47960	         6.67276e+57
          1991.28590	         6.80198e+57
          1992.09220	         6.62117e+57
          1992.89850	         4.98918e+57
          1993.70480	         4.63470e+57
          1994.51110	         4.60682e+57
          1995.31740	         4.97722e+57
          1996.12370	         4.83201e+57
          1996.93000	         5.79914e+57
          1997.73630	         6.48834e+57
          1998.54260	         7.30335e+57
          1999.34890	         6.77691e+57
          2000.15520	         6.32485e+57
          2000.96150	         6.51597e+57
          2001.76780	         6.83405e+57
          2002.57410	         6.07029e+57
          2003.38040	         6.90815e+57
          2004.18670	         7.55157e+57
          2004.99300	         6.58907e+57
          2005.79930	         6.61915e+57
          2006.60560	         6.06825e+57
          2007.41190	         6.48844e+57
          2008.21820	         7.12315e+57
          2009.02450	         6.79463e+57
          2009.83080	         5.84356e+57
          2010.63710	         6.61801e+57
          2011.44340	         6.60390e+57
          2012.24970	         7.35588e+57
          2013.05600	         6.45943e+57
          2013.86230	         6.20545e+57
          2014.66860	         5.03932e+57
          2015.47490	         6.42409e+57
          2016.28120	         4.90405e+57
          2017.08750	         4.66430e+57
          2017.89380	         5.99591e+57
          2018.70010	         6.96298e+57
          2019.50640	         6.74182e+57
          2020.31270	         6.47345e+57
          2021.11900	         8.21751e+57
          2021.92530	         7.82919e+57
          2022.73160	         6.40392e+57
          2023.53790	         6.40813e+57
          2024.34420	         6.07574e+57
          2025.15050	         5.80942e+57
          2025.95680	         6.32890e+57
          2026.76310	         7.00593e+57
          2027.56940	         6.59328e+57
          2028.37570	         6.21511e+57
          2029.18200	         6.05664e+57
          2029.98830	         6.11444e+57
          2030.79460	         6.10867e+57
          2031.60090	         6.71596e+57
          2032.40720	         6.16589e+57
          2033.21350	         5.37061e+57
          2034.01980	         5.36863e+57
          2034.82610	         4.66602e+57
          2035.63240	         4.30313e+57
          2036.43870	         4.87993e+57
          2037.24500	         6.48062e+57
          2038.05130	         7.71263e+57
          2038.85760	         6.28941e+57
          2039.66390	         6.08552e+57
          2040.47020	         5.75138e+57
          2041.27650	         5.05077e+57
          2042.08280	         4.65978e+57
          2042.88910	         6.12070e+57
          2043.69540	         7.01340e+57
          2044.50170	         7.23221e+57
          2045.30800	         4.73541e+57
          2046.11430	         4.40035e+57
          2046.92060	         5.57916e+57
          2047.72690	         6.48006e+57
          2048.53320	         5.97092e+57
          2049.33950	         5.04735e+57
          2050.14580	         5.07970e+57
          2050.95210	         7.28269e+57
          2051.75840	         7.70418e+57
          2052.56470	         5.26944e+57
          2053.37100	         2.93052e+57
          2054.17730	         4.23167e+57
          2054.98360	         4.79213e+57
          2055.78990	         2.84925e+57
          2056.59620	         2.68776e+57
          2057.40250	         4.76340e+57
          2058.20880	         6.25759e+57
          2059.01510	         6.57833e+57
          2059.82140	         5.90218e+57
          2060.62770	         9.66859e+57
          2061.43400	         1.60147e+58
          2062.24030	         9.34293e+57
          2063.04660	         6.36188e+57
          2063.85290	         3.76056e+57
          2064.65920	        -2.51604e+57
          2065.46550	        -7.76789e+57
          2066.27180	        -8.51520e+57
          2067.07810	         2.94311e+57
          2067.88440	         6.14346e+57
          2068.69070	         6.89660e+57
          2069.49700	         5.98206e+57
          2070.30330	         5.07355e+57
          2071.10960	         5.30509e+57
          2071.91590	         7.10874e+57
          2072.72220	         4.43776e+57
          2073.52850	         3.98551e+57
          2074.33480	         4.58078e+57
          2075.14110	         4.73383e+57
          2075.94740	         4.74300e+57
          2076.75370	         6.12284e+57
          2077.56000	         5.52431e+57
          2078.36630	         5.96212e+57
          2079.17260	         5.45454e+57
          2079.97890	         5.86406e+57
          2080.78520	         5.03628e+57
          2081.59150	         4.42529e+57
          2082.39780	         3.76580e+57
          2083.20410	         1.97317e+57
          2084.01040	         1.81981e+57
          2084.81670	         4.65571e+57
          2085.62300	         4.45382e+57
          2086.42930	         4.00539e+57
          2087.23560	         4.15113e+57
          2088.04190	         4.51858e+57
          2088.84820	         3.21706e+57
          2089.65450	         2.85687e+57
          2090.46080	         2.09373e+57
          2091.26710	         3.77090e+57
          2092.07340	         3.79592e+57
          2092.87970	         3.58149e+57
          2093.68600	         1.11946e+57
          2094.49230	         1.21853e+57
          2095.29860	         5.28968e+57
          2096.10490	         3.09967e+57
          2096.91120	         1.69207e+57
          2097.71750	         1.15403e+57
          2098.52380	         5.98526e+56
          2099.33010	         1.72462e+57
          2100.13640	         1.92759e+57
          2100.94270	         2.63764e+57
          2101.74900	         2.89915e+57
          2102.55530	         1.46666e+57
          2103.36160	         1.69194e+57
          2104.16790	         2.72519e+57
          2104.97420	         2.01012e+57
          2105.78050	        -1.58593e+55
          2106.58680	         2.05406e+57
          2107.39310	        -2.98889e+56
          2108.19940	         1.17875e+57
          2109.00570	         1.28613e+56
          2109.81200	         1.45398e+57
          2110.61830	         1.74614e+57
          2111.42460	         4.83877e+56
          2112.23090	        -7.05525e+56
          2113.03720	         9.44970e+56
          2113.84350	         1.16971e+57
          2114.64980	         8.04470e+57
          2115.45610	         1.19173e+57
          2116.26240	        -6.84471e+57
          2117.06870	        -2.20213e+57
          2117.87500	        -4.10639e+57
          2118.68130	        -2.05849e+57
          2119.48760	        -8.84072e+55
          2120.29390	        -2.31710e+57
          2121.10020	        -4.40155e+57
          2121.90650	        -3.60831e+57
          2122.71280	         3.01330e+57
          2123.51910	         4.61290e+57
          2124.32540	         2.13715e+57
          2125.13170	         1.59062e+57
          2125.93800	         7.32348e+57
          2126.74430	         1.28185e+57
          2127.55060	        -5.20447e+57
          2128.35690	        -6.84917e+57
          2129.16320	        -4.01947e+57
          2129.96950	        -5.48367e+57
          2130.77580	        -1.42478e+57
          2131.58210	         6.48735e+57
          2132.38840	         1.36374e+57
          2133.19470	        -8.19293e+57
          2134.00100	         3.47949e+57
          2134.80730	        -5.62087e+57
          2135.61360	         6.59841e+57
          2136.41990	         9.10301e+57
          2137.22620	         5.93375e+57
          2138.03250	         4.24432e+56
          2138.83880	        -8.11901e+57
          2139.64510	        -4.47807e+57
          2140.45140	         1.26712e+56
          2141.25770	        -1.13746e+58
          2142.06400	        -3.80503e+57
          2142.87030	         4.00928e+57
          2143.67660	         1.87126e+57
          2144.48290	        -4.25183e+57
          2145.28920	        -9.64732e+56
          2146.09550	        -1.62813e+58
          2146.90180	        -1.07398e+58
          2147.70810	        -7.72722e+57
          2148.51440	        -6.61042e+57
          2149.32070	        -2.13926e+58
          2150.12700	        -1.76841e+58
          2150.93330	        -1.59358e+57
          2151.73960	        -2.65619e+57
          2152.54590	         3.93608e+56
          2153.35220	        -1.48836e+57
          2154.15850	        -4.13265e+57
          2154.96480	        -7.00849e+56
          2155.77110	        -1.04993e+58
          2156.57740	        -3.27057e+57
          2157.38370	        -8.00626e+56
          2158.19000	         4.79359e+57
          2158.99630	         5.90968e+57
          2159.80260	        -9.28610e+57
          2160.60890	        -1.99040e+58
          2161.41520	        -1.64966e+57
          2162.22150	         1.04979e+57
          2163.02780	         2.03313e+57
          2163.83410	        -9.71429e+57
          2164.64040	        -1.00456e+58
          2165.44670	        -9.32782e+57
          2166.25300	        -7.09881e+57
          2167.05930	         2.24051e+57
          2167.86560	        -4.67064e+57
          2168.67190	        -2.56972e+57
          2169.47820	        -3.14459e+57
          2170.28450	        -3.49500e+57
          2171.09080	        -4.21671e+57
          2171.89710	        -9.85958e+57
          2172.70340	        -5.26495e+56
          2173.50970	        -6.53936e+57
          2174.31600	        -2.49959e+57
          2175.12230	         7.47975e+56
          2175.92860	        -2.94653e+57
          2176.73490	        -2.19063e+57
          2177.54120	        -1.89125e+57
          2178.34750	         7.01994e+56
          2179.15380	                 nan
          2179.96010	                 nan
          2180.76640	                 nan
          2181.57270	                 nan
          2182.37900	                 nan
          2183.18530	                 nan
          2183.99160	                 nan
          2184.79790	                 nan
          2185.60420	                 nan
          2186.41050	                 nan
          2187.21680	                 nan
          2188.02310	                 nan
          2188.82940	                 nan
          2189.63570	                 nan
          2190.44200	                 nan
          2191.24830	                 nan
          2192.05460	                 nan
          2192.86090	                 nan
          2193.66720	                 nan
          2194.47350	                 nan
          2195.27980	                 nan
          2196.08610	                 nan
          2196.89240	                 nan
          2197.69870	                 nan
          2198.50500	                 nan
          2199.31130	                 nan
          2200.11760	                 nan
          2200.92390	                 nan
          2201.73020	                 nan
          2202.53650	                 nan
          2203.34280	                 nan
          2204.14910	                 nan
          2204.95540	                 nan
          2205.76170	                 nan
          2206.56800	                 nan
          2207.37430	                 nan
          2208.18060	                 nan
          2208.98690	                 nan
          2209.79320	                 nan
          2210.59950	                 nan
          2211.40580	                 nan
          2212.21210	                 nan
          2213.01840	                 nan
          2213.82470	                 nan
          2214.63100	                 nan
          2215.43730	         0.00000e+00
