#sample_482_stacked_spectrum_rest_UV-bands_median_H-alpha_noDC.txt
#median Lum: 1.66264e+42
#Rest-frame wavelength (A) | Luminosity (erg/s/A)
#
          1110.00000	         0.00000e+00
          1110.80630	         3.84910e+58
          1111.61260	         5.25812e+58
          1112.41890	         2.84796e+59
          1113.22520	         3.11315e+59
          1114.03150	        -1.05241e+59
          1114.83780	         2.16574e+59
          1115.64410	         1.37065e+59
          1116.45040	         8.42161e+58
          1117.25670	        -7.81546e+58
          1118.06300	         1.58060e+59
          1118.86930	         1.61842e+58
          1119.67560	         1.03982e+59
          1120.48190	        -1.46811e+58
          1121.28820	        -1.98231e+59
          1122.09450	         2.09272e+58
          1122.90080	         1.24974e+59
          1123.70710	         9.49778e+58
          1124.51340	         2.04992e+58
          1125.31970	        -3.26277e+57
          1126.12600	        -2.02830e+57
          1126.93230	        -1.98349e+58
          1127.73860	        -3.30579e+58
          1128.54490	         3.29959e+58
          1129.35120	         7.54601e+57
          1130.15750	         6.63604e+57
          1130.96380	        -1.81946e+58
          1131.77010	         8.21892e+58
          1132.57640	         3.30137e+58
          1133.38270	         2.17346e+58
          1134.18900	         1.73537e+58
          1134.99530	        -1.10468e+58
          1135.80160	         3.16280e+58
          1136.60790	         1.04966e+58
          1137.41420	        -2.12270e+57
          1138.22050	         3.32416e+58
          1139.02680	         2.72532e+58
          1139.83310	         7.86651e+57
          1140.63940	         6.87566e+57
          1141.44570	        -2.29823e+58
          1142.25200	        -1.73847e+58
          1143.05830	         1.29696e+58
          1143.86460	         1.08889e+58
          1144.67090	         1.01591e+58
          1145.47720	         1.28920e+58
          1146.28350	         7.58930e+57
          1147.08980	         2.10752e+58
          1147.89610	         2.57437e+58
          1148.70240	         2.77516e+58
          1149.50870	         2.00732e+58
          1150.31500	         4.80696e+57
          1151.12130	         1.72878e+57
          1151.92760	         3.11035e+57
          1152.73390	         6.09965e+57
          1153.54020	         2.89967e+57
          1154.34650	         2.37513e+58
          1155.15280	         2.32244e+58
          1155.95910	         7.34244e+57
          1156.76540	         3.65425e+57
          1157.57170	         3.57356e+57
          1158.37800	         5.79219e+57
          1159.18430	         2.80490e+57
          1159.99060	         6.02075e+57
          1160.79690	         1.17682e+57
          1161.60320	         1.08402e+58
          1162.40950	         2.16027e+58
          1163.21580	         2.26833e+58
          1164.02210	         1.76308e+58
          1164.82840	         5.46244e+57
          1165.63470	         1.18935e+58
          1166.44100	         2.47163e+58
          1167.24730	         1.41584e+58
          1168.05360	         5.84591e+57
          1168.85990	         3.38853e+57
          1169.66620	         5.22680e+57
          1170.47250	         1.06360e+58
          1171.27880	         9.70865e+57
          1172.08510	         1.17097e+58
          1172.89140	         1.06536e+58
          1173.69770	         1.31108e+58
          1174.50400	         1.30533e+58
          1175.31030	         2.04017e+58
          1176.11660	         1.80181e+58
          1176.92290	         1.17744e+58
          1177.72920	         1.25580e+58
          1178.53550	         1.39509e+58
          1179.34180	         1.26240e+58
          1180.14810	         1.18928e+58
          1180.95440	         9.23314e+57
          1181.76070	         4.41929e+57
          1182.56700	         6.03522e+57
          1183.37330	         8.38701e+57
          1184.17960	         1.24717e+58
          1184.98590	         7.25214e+57
          1185.79220	         3.63583e+57
          1186.59850	         1.21116e+58
          1187.40480	         1.09085e+58
          1188.21110	         1.31964e+58
          1189.01740	         1.18661e+58
          1189.82370	         1.07778e+58
          1190.63000	         1.43840e+58
          1191.43630	         1.42025e+58
          1192.24260	         8.14444e+57
          1193.04890	         1.36261e+58
          1193.85520	         1.21241e+58
          1194.66150	         5.15317e+57
          1195.46780	         7.57249e+57
          1196.27410	         1.08116e+58
          1197.08040	         4.91069e+57
          1197.88670	         8.15309e+57
          1198.69300	         1.39942e+58
          1199.49930	         1.58153e+58
          1200.30560	         9.73156e+57
          1201.11190	         8.37931e+57
          1201.91820	         1.03385e+58
          1202.72450	         9.66817e+57
          1203.53080	         1.29244e+58
          1204.33710	         5.49217e+57
          1205.14340	         6.06632e+57
          1205.94970	         3.28645e+57
          1206.75600	         6.03588e+57
          1207.56230	         6.03428e+57
          1208.36860	         9.28456e+57
          1209.17490	         5.21833e+57
          1209.98120	         4.84111e+57
          1210.78750	         8.65142e+57
          1211.59380	         1.37731e+58
          1212.40010	         2.11081e+58
          1213.20640	         1.64997e+58
          1214.01270	         1.99422e+58
          1214.81900	         2.70827e+58
          1215.62530	         4.42147e+58
          1216.43160	         9.15760e+58
          1217.23790	         1.51836e+59
          1218.04420	         1.14396e+59
          1218.85050	         8.87755e+58
          1219.65680	         5.91210e+58
          1220.46310	         3.34548e+58
          1221.26940	         2.26299e+58
          1222.07570	         1.32226e+58
          1222.88200	         1.15876e+58
          1223.68830	         7.24737e+57
          1224.49460	         6.34998e+57
          1225.30090	         6.62489e+57
          1226.10720	         4.90317e+57
          1226.91350	         6.92142e+57
          1227.71980	         9.92547e+57
          1228.52610	         1.48006e+58
          1229.33240	         6.59422e+57
          1230.13870	         1.16972e+58
          1230.94500	         8.37469e+57
          1231.75130	         6.28228e+57
          1232.55760	         8.00031e+57
          1233.36390	         9.96109e+57
          1234.17020	         1.08391e+58
          1234.97650	         9.36131e+57
          1235.78280	         9.05805e+57
          1236.58910	         7.85094e+57
          1237.39540	         9.06097e+57
          1238.20170	         9.36280e+57
          1239.00800	         1.02321e+58
          1239.81430	         1.29937e+58
          1240.62060	         1.27021e+58
          1241.42690	         1.07155e+58
          1242.23320	         1.06846e+58
          1243.03950	         6.53973e+57
          1243.84580	         7.01610e+57
          1244.65210	         1.04883e+58
          1245.45840	         8.85073e+57
          1246.26470	         6.88973e+57
          1247.07100	         7.97485e+57
          1247.87730	         6.32462e+57
          1248.68360	         4.19731e+57
          1249.48990	         8.05566e+57
          1250.29620	         9.84588e+57
          1251.10250	         5.83207e+57
          1251.90880	         3.54802e+57
          1252.71510	         5.10092e+57
          1253.52140	         7.23325e+57
          1254.32770	         9.76272e+57
          1255.13400	         1.19708e+58
          1255.94030	         1.25972e+58
          1256.74660	         1.08920e+58
          1257.55290	         1.17330e+58
          1258.35920	         8.72979e+57
          1259.16550	         6.09142e+57
          1259.97180	         5.33432e+57
          1260.77810	         8.72022e+57
          1261.58440	         7.72044e+57
          1262.39070	         4.84567e+57
          1263.19700	         8.05639e+57
          1264.00330	         9.40772e+57
          1264.80960	         9.25966e+57
          1265.61590	         1.26883e+58
          1266.42220	         1.13579e+58
          1267.22850	         1.10988e+58
          1268.03480	         1.58784e+58
          1268.84110	         1.65031e+58
          1269.64740	         1.35798e+58
          1270.45370	         1.36182e+58
          1271.26000	         1.19993e+58
          1272.06630	         9.32811e+57
          1272.87260	         1.03360e+58
          1273.67890	         1.19946e+58
          1274.48520	         1.42538e+58
          1275.29150	         1.53941e+58
          1276.09780	         1.32734e+58
          1276.90410	         1.36273e+58
          1277.71040	         1.19128e+58
          1278.51670	         1.04328e+58
          1279.32300	         1.20033e+58
          1280.12930	         1.17324e+58
          1280.93560	         9.94126e+57
          1281.74190	         1.03698e+58
          1282.54820	         9.55780e+57
          1283.35450	         9.53623e+57
          1284.16080	         1.16721e+58
          1284.96710	         1.31897e+58
          1285.77340	         1.02852e+58
          1286.57970	         9.12380e+57
          1287.38600	         1.26477e+58
          1288.19230	         1.54842e+58
          1288.99860	         1.45313e+58
          1289.80490	         1.01352e+58
          1290.61120	         1.22489e+58
          1291.41750	         1.33675e+58
          1292.22380	         1.14095e+58
          1293.03010	         1.11022e+58
          1293.83640	         1.20234e+58
          1294.64270	         9.26460e+57
          1295.44900	         4.97766e+57
          1296.25530	         6.07133e+57
          1297.06160	         8.74585e+57
          1297.86790	         7.37677e+57
          1298.67420	         7.98544e+57
          1299.48050	         1.12116e+58
          1300.28680	         1.16748e+58
          1301.09310	         7.87575e+57
          1301.89940	         3.33569e+57
          1302.70570	         7.07394e+57
          1303.51200	         8.77855e+57
          1304.31830	         8.81615e+57
          1305.12460	         9.83981e+57
          1305.93090	         9.46243e+57
          1306.73720	         1.28138e+58
          1307.54350	         1.56703e+58
          1308.34980	         1.34278e+58
          1309.15610	         1.44563e+58
          1309.96240	         1.61661e+58
          1310.76870	         1.20711e+58
          1311.57500	         1.08083e+58
          1312.38130	         1.23719e+58
          1313.18760	         1.30713e+58
          1313.99390	         1.48893e+58
          1314.80020	         1.70141e+58
          1315.60650	         1.64233e+58
          1316.41280	         1.46503e+58
          1317.21910	         1.15321e+58
          1318.02540	         1.15017e+58
          1318.83170	         1.30996e+58
          1319.63800	         1.24146e+58
          1320.44430	         1.06490e+58
          1321.25060	         1.12189e+58
          1322.05690	         1.14441e+58
          1322.86320	         1.14876e+58
          1323.66950	         1.02955e+58
          1324.47580	         8.77574e+57
          1325.28210	         9.54276e+57
          1326.08840	         1.03668e+58
          1326.89470	         1.03792e+58
          1327.70100	         9.62407e+57
          1328.50730	         6.64813e+57
          1329.31360	         7.69081e+57
          1330.11990	         9.69450e+57
          1330.92620	         8.02155e+57
          1331.73250	         1.01386e+58
          1332.53880	         1.04237e+58
          1333.34510	         8.84886e+57
          1334.15140	         8.16637e+57
          1334.95770	         7.50872e+57
          1335.76400	         9.81398e+57
          1336.57030	         1.20872e+58
          1337.37660	         1.11748e+58
          1338.18290	         1.09365e+58
          1338.98920	         1.09798e+58
          1339.79550	         1.05821e+58
          1340.60180	         1.18907e+58
          1341.40810	         1.23661e+58
          1342.21440	         1.12714e+58
          1343.02070	         1.28459e+58
          1343.82700	         1.26551e+58
          1344.63330	         1.06809e+58
          1345.43960	         1.15144e+58
          1346.24590	         1.09627e+58
          1347.05220	         1.16022e+58
          1347.85850	         1.04282e+58
          1348.66480	         1.13316e+58
          1349.47110	         1.19689e+58
          1350.27740	         1.17685e+58
          1351.08370	         1.15802e+58
          1351.89000	         1.08930e+58
          1352.69630	         1.11974e+58
          1353.50260	         1.20754e+58
          1354.30890	         1.30722e+58
          1355.11520	         1.31175e+58
          1355.92150	         1.13985e+58
          1356.72780	         9.68082e+57
          1357.53410	         1.02476e+58
          1358.34040	         1.17062e+58
          1359.14670	         1.11985e+58
          1359.95300	         1.05323e+58
          1360.75930	         1.10656e+58
          1361.56560	         1.15900e+58
          1362.37190	         1.05513e+58
          1363.17820	         1.12478e+58
          1363.98450	         1.28269e+58
          1364.79080	         1.33020e+58
          1365.59710	         1.19131e+58
          1366.40340	         1.13899e+58
          1367.20970	         1.02877e+58
          1368.01600	         1.08196e+58
          1368.82230	         8.61419e+57
          1369.62860	         8.68579e+57
          1370.43490	         9.20704e+57
          1371.24120	         8.81784e+57
          1372.04750	         9.44420e+57
          1372.85380	         1.11601e+58
          1373.66010	         1.19498e+58
          1374.46640	         1.14542e+58
          1375.27270	         1.05972e+58
          1376.07900	         8.08909e+57
          1376.88530	         8.74456e+57
          1377.69160	         8.67381e+57
          1378.49790	         7.11120e+57
          1379.30420	         8.10812e+57
          1380.11050	         1.05179e+58
          1380.91680	         1.02591e+58
          1381.72310	         8.52961e+57
          1382.52940	         8.55178e+57
          1383.33570	         8.79076e+57
          1384.14200	         8.27847e+57
          1384.94830	         1.16641e+58
          1385.75460	         1.27173e+58
          1386.56090	         1.10159e+58
          1387.36720	         9.89490e+57
          1388.17350	         1.12287e+58
          1388.97980	         1.04334e+58
          1389.78610	         7.97710e+57
          1390.59240	         6.70098e+57
          1391.39870	         7.11794e+57
          1392.20500	         8.40422e+57
          1393.01130	         7.57948e+57
          1393.81760	         7.46314e+57
          1394.62390	         6.85872e+57
          1395.43020	         6.31254e+57
          1396.23650	         7.09768e+57
          1397.04280	         8.54853e+57
          1397.84910	         9.17103e+57
          1398.65540	         8.55372e+57
          1399.46170	         1.01909e+58
          1400.26800	         9.15718e+57
          1401.07430	         7.58255e+57
          1401.88060	         8.31401e+57
          1402.68690	         1.01957e+58
          1403.49320	         1.12659e+58
          1404.29950	         1.04185e+58
          1405.10580	         9.86400e+57
          1405.91210	         1.08769e+58
          1406.71840	         1.05187e+58
          1407.52470	         1.03873e+58
          1408.33100	         9.46617e+57
          1409.13730	         1.00928e+58
          1409.94360	         1.17697e+58
          1410.74990	         1.19420e+58
          1411.55620	         9.69679e+57
          1412.36250	         8.37821e+57
          1413.16880	         8.84225e+57
          1413.97510	         7.55859e+57
          1414.78140	         9.44374e+57
          1415.58770	         1.18406e+58
          1416.39400	         9.63903e+57
          1417.20030	         9.31013e+57
          1418.00660	         9.33675e+57
          1418.81290	         1.09405e+58
          1419.61920	         1.02923e+58
          1420.42550	         1.18728e+58
          1421.23180	         1.32463e+58
          1422.03810	         1.17672e+58
          1422.84440	         1.14716e+58
          1423.65070	         1.23431e+58
          1424.45700	         1.05007e+58
          1425.26330	         8.11429e+57
          1426.06960	         9.05493e+57
          1426.87590	         1.10945e+58
          1427.68220	         1.09803e+58
          1428.48850	         1.09040e+58
          1429.29480	         1.04025e+58
          1430.10110	         9.97914e+57
          1430.90740	         9.61802e+57
          1431.71370	         9.11362e+57
          1432.52000	         8.19451e+57
          1433.32630	         7.95544e+57
          1434.13260	         7.92753e+57
          1434.93890	         8.24455e+57
          1435.74520	         8.13622e+57
          1436.55150	         9.41009e+57
          1437.35780	         9.00172e+57
          1438.16410	         8.64014e+57
          1438.97040	         8.50702e+57
          1439.77670	         8.35238e+57
          1440.58300	         9.18234e+57
          1441.38930	         9.22519e+57
          1442.19560	         9.99514e+57
          1443.00190	         1.05693e+58
          1443.80820	         1.01737e+58
          1444.61450	         8.74831e+57
          1445.42080	         8.68165e+57
          1446.22710	         1.03446e+58
          1447.03340	         8.73696e+57
          1447.83970	         9.44117e+57
          1448.64600	         1.04335e+58
          1449.45230	         1.03804e+58
          1450.25860	         9.77343e+57
          1451.06490	         9.23261e+57
          1451.87120	         8.03491e+57
          1452.67750	         8.18181e+57
          1453.48380	         8.76916e+57
          1454.29010	         7.58618e+57
          1455.09640	         7.37668e+57
          1455.90270	         8.59658e+57
          1456.70900	         8.69920e+57
          1457.51530	         9.58893e+57
          1458.32160	         1.16743e+58
          1459.12790	         1.08828e+58
          1459.93420	         9.79005e+57
          1460.74050	         8.42597e+57
          1461.54680	         8.79199e+57
          1462.35310	         9.86313e+57
          1463.15940	         1.03152e+58
          1463.96570	         1.11202e+58
          1464.77200	         1.21874e+58
          1465.57830	         1.12115e+58
          1466.38460	         9.23378e+57
          1467.19090	         8.88186e+57
          1467.99720	         9.04013e+57
          1468.80350	         9.52640e+57
          1469.60980	         1.01492e+58
          1470.41610	         1.08387e+58
          1471.22240	         9.19733e+57
          1472.02870	         9.37110e+57
          1472.83500	         1.08294e+58
          1473.64130	         1.09901e+58
          1474.44760	         1.12592e+58
          1475.25390	         1.02098e+58
          1476.06020	         8.72601e+57
          1476.86650	         8.98821e+57
          1477.67280	         8.14990e+57
          1478.47910	         6.01336e+57
          1479.28540	         6.65207e+57
          1480.09170	         8.05590e+57
          1480.89800	         7.66687e+57
          1481.70430	         9.75895e+57
          1482.51060	         9.62370e+57
          1483.31690	         8.27486e+57
          1484.12320	         8.50551e+57
          1484.92950	         7.57996e+57
          1485.73580	         8.09930e+57
          1486.54210	         8.78422e+57
          1487.34840	         8.80044e+57
          1488.15470	         9.04527e+57
          1488.96100	         8.74728e+57
          1489.76730	         8.46496e+57
          1490.57360	         8.07272e+57
          1491.37990	         6.83574e+57
          1492.18620	         7.40962e+57
          1492.99250	         8.38291e+57
          1493.79880	         8.34633e+57
          1494.60510	         8.05616e+57
          1495.41140	         6.86730e+57
          1496.21770	         8.48282e+57
          1497.02400	         1.12378e+58
          1497.83030	         9.07939e+57
          1498.63660	         6.34106e+57
          1499.44290	         7.18442e+57
          1500.24920	         8.07175e+57
          1501.05550	         8.29753e+57
          1501.86180	         9.24509e+57
          1502.66810	         9.56549e+57
          1503.47440	         9.06805e+57
          1504.28070	         8.08276e+57
          1505.08700	         9.13102e+57
          1505.89330	         9.60078e+57
          1506.69960	         9.12369e+57
          1507.50590	         8.45992e+57
          1508.31220	         8.29458e+57
          1509.11850	         8.61172e+57
          1509.92480	         8.31957e+57
          1510.73110	         9.15929e+57
          1511.53740	         8.50297e+57
          1512.34370	         7.07477e+57
          1513.15000	         9.11338e+57
          1513.95630	         1.00101e+58
          1514.76260	         8.79478e+57
          1515.56890	         8.35746e+57
          1516.37520	         9.27261e+57
          1517.18150	         9.05984e+57
          1517.98780	         7.53526e+57
          1518.79410	         7.41108e+57
          1519.60040	         8.07605e+57
          1520.40670	         9.42198e+57
          1521.21300	         9.39029e+57
          1522.01930	         7.99056e+57
          1522.82560	         8.58636e+57
          1523.63190	         1.00379e+58
          1524.43820	         8.55106e+57
          1525.24450	         7.60326e+57
          1526.05080	         7.24364e+57
          1526.85710	         6.37952e+57
          1527.66340	         7.11370e+57
          1528.46970	         8.28535e+57
          1529.27600	         8.00669e+57
          1530.08230	         7.57804e+57
          1530.88860	         7.58084e+57
          1531.69490	         8.11095e+57
          1532.50120	         9.24777e+57
          1533.30750	         9.20282e+57
          1534.11380	         8.57163e+57
          1534.92010	         9.19625e+57
          1535.72640	         8.67407e+57
          1536.53270	         9.06308e+57
          1537.33900	         7.86167e+57
          1538.14530	         8.81387e+57
          1538.95160	         9.44038e+57
          1539.75790	         8.42830e+57
          1540.56420	         8.43235e+57
          1541.37050	         7.82263e+57
          1542.17680	         8.35305e+57
          1542.98310	         8.15943e+57
          1543.78940	         6.79658e+57
          1544.59570	         6.51435e+57
          1545.40200	         8.30525e+57
          1546.20830	         9.73062e+57
          1547.01460	         1.07687e+58
          1547.82090	         9.96393e+57
          1548.62720	         1.11792e+58
          1549.43350	         1.24441e+58
          1550.23980	         1.14537e+58
          1551.04610	         1.23785e+58
          1551.85240	         1.07522e+58
          1552.65870	         1.14392e+58
          1553.46500	         1.14420e+58
          1554.27130	         1.08690e+58
          1555.07760	         1.01805e+58
          1555.88390	         8.51579e+57
          1556.69020	         8.87865e+57
          1557.49650	         8.69943e+57
          1558.30280	         8.53619e+57
          1559.10910	         8.65861e+57
          1559.91540	         8.91254e+57
          1560.72170	         9.05748e+57
          1561.52800	         8.56576e+57
          1562.33430	         9.04312e+57
          1563.14060	         8.61511e+57
          1563.94690	         8.19342e+57
          1564.75320	         7.95460e+57
          1565.55950	         7.39089e+57
          1566.36580	         7.24287e+57
          1567.17210	         9.06402e+57
          1567.97840	         9.99115e+57
          1568.78470	         9.33596e+57
          1569.59100	         8.69182e+57
          1570.39730	         8.64789e+57
          1571.20360	         7.72578e+57
          1572.00990	         7.77760e+57
          1572.81620	         8.79364e+57
          1573.62250	         9.91541e+57
          1574.42880	         9.71041e+57
          1575.23510	         8.34552e+57
          1576.04140	         8.80165e+57
          1576.84770	         9.08887e+57
          1577.65400	         8.29680e+57
          1578.46030	         9.47077e+57
          1579.26660	         1.02313e+58
          1580.07290	         9.86502e+57
          1580.87920	         9.15080e+57
          1581.68550	         7.99130e+57
          1582.49180	         8.10534e+57
          1583.29810	         7.98742e+57
          1584.10440	         8.35236e+57
          1584.91070	         9.22422e+57
          1585.71700	         9.12537e+57
          1586.52330	         9.03866e+57
          1587.32960	         9.13225e+57
          1588.13590	         8.74930e+57
          1588.94220	         8.56752e+57
          1589.74850	         8.92834e+57
          1590.55480	         8.98531e+57
          1591.36110	         7.09424e+57
          1592.16740	         6.90389e+57
          1592.97370	         7.26737e+57
          1593.78000	         8.23938e+57
          1594.58630	         9.55537e+57
          1595.39260	         8.49273e+57
          1596.19890	         9.06038e+57
          1597.00520	         1.00527e+58
          1597.81150	         9.82709e+57
          1598.61780	         7.94903e+57
          1599.42410	         7.03421e+57
          1600.23040	         7.07243e+57
          1601.03670	         8.29418e+57
          1601.84300	         8.58814e+57
          1602.64930	         8.48976e+57
          1603.45560	         9.07670e+57
          1604.26190	         7.96818e+57
          1605.06820	         7.85254e+57
          1605.87450	         6.95011e+57
          1606.68080	         6.74677e+57
          1607.48710	         5.91326e+57
          1608.29340	         5.53576e+57
          1609.09970	         6.46234e+57
          1609.90600	         6.55960e+57
          1610.71230	         6.25258e+57
          1611.51860	         7.09008e+57
          1612.32490	         7.28870e+57
          1613.13120	         8.68904e+57
          1613.93750	         8.43116e+57
          1614.74380	         8.57228e+57
          1615.55010	         8.56480e+57
          1616.35640	         9.58169e+57
          1617.16270	         1.03210e+58
          1617.96900	         8.89321e+57
          1618.77530	         7.93854e+57
          1619.58160	         7.93759e+57
          1620.38790	         8.08138e+57
          1621.19420	         8.89877e+57
          1622.00050	         7.94585e+57
          1622.80680	         8.11580e+57
          1623.61310	         8.44947e+57
          1624.41940	         8.17209e+57
          1625.22570	         8.58081e+57
          1626.03200	         9.78495e+57
          1626.83830	         8.76240e+57
          1627.64460	         7.41007e+57
          1628.45090	         7.23055e+57
          1629.25720	         8.95160e+57
          1630.06350	         9.93750e+57
          1630.86980	         7.04807e+57
          1631.67610	         6.67972e+57
          1632.48240	         7.82577e+57
          1633.28870	         7.08145e+57
          1634.09500	         7.07594e+57
          1634.90130	         9.42635e+57
          1635.70760	         8.70987e+57
          1636.51390	         8.58087e+57
          1637.32020	         7.60410e+57
          1638.12650	         8.29551e+57
          1638.93280	         9.27713e+57
          1639.73910	         1.06038e+58
          1640.54540	         1.15988e+58
          1641.35170	         9.24516e+57
          1642.15800	         9.68660e+57
          1642.96430	         9.81551e+57
          1643.77060	         9.49666e+57
          1644.57690	         7.41835e+57
          1645.38320	         8.07444e+57
          1646.18950	         7.27266e+57
          1646.99580	         8.21600e+57
          1647.80210	         8.26498e+57
          1648.60840	         7.96921e+57
          1649.41470	         8.42472e+57
          1650.22100	         7.57571e+57
          1651.02730	         8.08689e+57
          1651.83360	         9.52547e+57
          1652.63990	         9.07178e+57
          1653.44620	         8.75372e+57
          1654.25250	         7.71888e+57
          1655.05880	         7.27865e+57
          1655.86510	         8.74511e+57
          1656.67140	         8.88902e+57
          1657.47770	         7.82213e+57
          1658.28400	         8.13690e+57
          1659.09030	         8.71580e+57
          1659.89660	         8.56069e+57
          1660.70290	         9.45856e+57
          1661.50920	         8.93602e+57
          1662.31550	         7.36463e+57
          1663.12180	         7.91787e+57
          1663.92810	         9.27342e+57
          1664.73440	         1.02821e+58
          1665.54070	         1.18693e+58
          1666.34700	         1.25248e+58
          1667.15330	         1.10111e+58
          1667.95960	         9.16567e+57
          1668.76590	         7.50918e+57
          1669.57220	         6.70338e+57
          1670.37850	         7.26168e+57
          1671.18480	         7.41086e+57
          1671.99110	         6.48792e+57
          1672.79740	         6.89752e+57
          1673.60370	         6.99228e+57
          1674.41000	         7.15380e+57
          1675.21630	         7.59292e+57
          1676.02260	         6.09249e+57
          1676.82890	         6.16841e+57
          1677.63520	         7.30878e+57
          1678.44150	         6.65227e+57
          1679.24780	         8.69312e+57
          1680.05410	         8.22074e+57
          1680.86040	         6.08503e+57
          1681.66670	         6.71212e+57
          1682.47300	         8.45284e+57
          1683.27930	         8.49388e+57
          1684.08560	         8.30320e+57
          1684.89190	         7.24393e+57
          1685.69820	         5.45137e+57
          1686.50450	         5.74924e+57
          1687.31080	         5.94002e+57
          1688.11710	         7.68467e+57
          1688.92340	         7.00022e+57
          1689.72970	         5.95950e+57
          1690.53600	         7.25764e+57
          1691.34230	         7.10684e+57
          1692.14860	         6.52748e+57
          1692.95490	         7.62991e+57
          1693.76120	         7.31130e+57
          1694.56750	         6.60493e+57
          1695.37380	         7.81078e+57
          1696.18010	         7.94817e+57
          1696.98640	         7.52871e+57
          1697.79270	         8.92924e+57
          1698.59900	         7.92575e+57
          1699.40530	         7.18463e+57
          1700.21160	         6.99750e+57
          1701.01790	         8.31233e+57
          1701.82420	         8.45490e+57
          1702.63050	         8.51719e+57
          1703.43680	         8.18928e+57
          1704.24310	         8.84042e+57
          1705.04940	         8.17233e+57
          1705.85570	         7.69572e+57
          1706.66200	         8.38470e+57
          1707.46830	         8.41450e+57
          1708.27460	         7.68057e+57
          1709.08090	         6.71501e+57
          1709.88720	         6.61793e+57
          1710.69350	         7.25205e+57
          1711.49980	         6.57469e+57
          1712.30610	         6.62390e+57
          1713.11240	         8.63175e+57
          1713.91870	         7.54822e+57
          1714.72500	         8.12672e+57
          1715.53130	         9.63468e+57
          1716.33760	         9.00428e+57
          1717.14390	         8.33543e+57
          1717.95020	         8.42864e+57
          1718.75650	         8.67968e+57
          1719.56280	         8.54600e+57
          1720.36910	         7.22771e+57
          1721.17540	         7.42130e+57
          1721.98170	         6.15498e+57
          1722.78800	         5.17616e+57
          1723.59430	         6.14342e+57
          1724.40060	         7.92060e+57
          1725.20690	         7.85062e+57
          1726.01320	         8.26246e+57
          1726.81950	         8.39010e+57
          1727.62580	         7.66530e+57
          1728.43210	         7.00985e+57
          1729.23840	         7.87804e+57
          1730.04470	         8.93420e+57
          1730.85100	         8.70345e+57
          1731.65730	         8.54466e+57
          1732.46360	         8.26737e+57
          1733.26990	         7.57405e+57
          1734.07620	         7.64705e+57
          1734.88250	         7.91985e+57
          1735.68880	         8.11785e+57
          1736.49510	         9.00943e+57
          1737.30140	         8.19758e+57
          1738.10770	         6.95065e+57
          1738.91400	         7.91877e+57
          1739.72030	         7.47885e+57
          1740.52660	         6.34623e+57
          1741.33290	         6.27869e+57
          1742.13920	         5.94996e+57
          1742.94550	         6.62024e+57
          1743.75180	         7.00656e+57
          1744.55810	         7.27490e+57
          1745.36440	         7.84766e+57
          1746.17070	         6.69387e+57
          1746.97700	         6.37932e+57
          1747.78330	         6.81329e+57
          1748.58960	         5.70373e+57
          1749.39590	         6.28277e+57
          1750.20220	         6.84626e+57
          1751.00850	         6.25576e+57
          1751.81480	         6.30090e+57
          1752.62110	         7.17294e+57
          1753.42740	         8.19576e+57
          1754.23370	         6.96272e+57
          1755.04000	         6.85348e+57
          1755.84630	         7.78914e+57
          1756.65260	         9.11951e+57
          1757.45890	         8.34464e+57
          1758.26520	         6.42821e+57
          1759.07150	         8.60625e+57
          1759.87780	         8.63366e+57
          1760.68410	         7.49414e+57
          1761.49040	         7.69626e+57
          1762.29670	         7.12622e+57
          1763.10300	         7.41688e+57
          1763.90930	         6.97234e+57
          1764.71560	         7.24554e+57
          1765.52190	         8.28406e+57
          1766.32820	         8.70940e+57
          1767.13450	         8.35323e+57
          1767.94080	         8.41019e+57
          1768.74710	         7.49837e+57
          1769.55340	         6.92227e+57
          1770.35970	         7.40595e+57
          1771.16600	         8.15112e+57
          1771.97230	         8.47946e+57
          1772.77860	         9.01196e+57
          1773.58490	         6.95603e+57
          1774.39120	         5.58917e+57
          1775.19750	         5.37923e+57
          1776.00380	         5.94677e+57
          1776.81010	         6.47966e+57
          1777.61640	         7.00882e+57
          1778.42270	         7.21562e+57
          1779.22900	         6.49084e+57
          1780.03530	         6.92250e+57
          1780.84160	         8.44359e+57
          1781.64790	         8.13709e+57
          1782.45420	         6.84769e+57
          1783.26050	         6.42224e+57
          1784.06680	         6.59497e+57
          1784.87310	         7.91588e+57
          1785.67940	         7.98455e+57
          1786.48570	         7.64695e+57
          1787.29200	         6.37318e+57
          1788.09830	         5.58035e+57
          1788.90460	         5.16162e+57
          1789.71090	         4.81091e+57
          1790.51720	         4.93386e+57
          1791.32350	         6.87033e+57
          1792.12980	         8.61918e+57
          1792.93610	         8.57148e+57
          1793.74240	         8.12565e+57
          1794.54870	         8.55582e+57
          1795.35500	         9.12280e+57
          1796.16130	         7.67138e+57
          1796.96760	         7.32523e+57
          1797.77390	         8.43786e+57
          1798.58020	         8.44110e+57
          1799.38650	         7.73486e+57
          1800.19280	         7.37292e+57
          1800.99910	         7.96923e+57
          1801.80540	         7.71024e+57
          1802.61170	         8.41381e+57
          1803.41800	         8.84147e+57
          1804.22430	         7.03833e+57
          1805.03060	         7.54889e+57
          1805.83690	         8.12699e+57
          1806.64320	         8.17142e+57
          1807.44950	         7.81355e+57
          1808.25580	         7.43533e+57
          1809.06210	         7.65590e+57
          1809.86840	         6.44490e+57
          1810.67470	         6.83846e+57
          1811.48100	         8.35059e+57
          1812.28730	         8.15375e+57
          1813.09360	         7.96159e+57
          1813.89990	         7.76367e+57
          1814.70620	         7.54356e+57
          1815.51250	         7.87069e+57
          1816.31880	         8.92699e+57
          1817.12510	         8.10434e+57
          1817.93140	         6.97064e+57
          1818.73770	         7.56372e+57
          1819.54400	         8.90958e+57
          1820.35030	         9.42628e+57
          1821.15660	         6.64864e+57
          1821.96290	         6.38038e+57
          1822.76920	         7.50883e+57
          1823.57550	         7.58947e+57
          1824.38180	         6.95256e+57
          1825.18810	         6.88053e+57
          1825.99440	         7.73662e+57
          1826.80070	         8.16095e+57
          1827.60700	         7.17921e+57
          1828.41330	         6.31534e+57
          1829.21960	         6.88835e+57
          1830.02590	         7.65297e+57
          1830.83220	         8.15116e+57
          1831.63850	         7.82411e+57
          1832.44480	         7.74489e+57
          1833.25110	         9.44846e+57
          1834.05740	         9.92823e+57
          1834.86370	         8.09943e+57
          1835.67000	         6.52998e+57
          1836.47630	         7.12351e+57
          1837.28260	         8.37730e+57
          1838.08890	         7.82819e+57
          1838.89520	         7.89339e+57
          1839.70150	         8.12891e+57
          1840.50780	         8.17486e+57
          1841.31410	         7.40840e+57
          1842.12040	         7.94434e+57
          1842.92670	         7.33644e+57
          1843.73300	         5.83978e+57
          1844.53930	         6.81177e+57
          1845.34560	         7.92836e+57
          1846.15190	         7.07109e+57
          1846.95820	         7.52642e+57
          1847.76450	         7.31144e+57
          1848.57080	         6.03143e+57
          1849.37710	         5.64153e+57
          1850.18340	         6.88235e+57
          1850.98970	         7.54425e+57
          1851.79600	         8.25332e+57
          1852.60230	         7.92920e+57
          1853.40860	         7.34909e+57
          1854.21490	         7.25005e+57
          1855.02120	         6.69984e+57
          1855.82750	         4.69756e+57
          1856.63380	         5.65434e+57
          1857.44010	         6.90326e+57
          1858.24640	         6.61022e+57
          1859.05270	         7.18294e+57
          1859.85900	         5.62174e+57
          1860.66530	         6.07034e+57
          1861.47160	         7.12450e+57
          1862.27790	         7.15715e+57
          1863.08420	         6.79775e+57
          1863.89050	         6.27416e+57
          1864.69680	         6.11995e+57
          1865.50310	         6.89614e+57
          1866.30940	         6.42240e+57
          1867.11570	         6.65002e+57
          1867.92200	         7.26006e+57
          1868.72830	         7.21385e+57
          1869.53460	         6.46643e+57
          1870.34090	         7.78634e+57
          1871.14720	         7.89798e+57
          1871.95350	         7.34928e+57
          1872.75980	         7.12159e+57
          1873.56610	         6.83911e+57
          1874.37240	         6.40694e+57
          1875.17870	         6.02777e+57
          1875.98500	         6.77633e+57
          1876.79130	         8.43326e+57
          1877.59760	         7.56661e+57
          1878.40390	         6.04511e+57
          1879.21020	         6.48474e+57
          1880.01650	         7.13357e+57
          1880.82280	         8.59383e+57
          1881.62910	         8.28324e+57
          1882.43540	         9.74647e+57
          1883.24170	         7.84985e+57
          1884.04800	         7.02964e+57
          1884.85430	         8.02072e+57
          1885.66060	         7.96530e+57
          1886.46690	         7.64112e+57
          1887.27320	         7.37615e+57
          1888.07950	         5.60612e+57
          1888.88580	         5.87473e+57
          1889.69210	         8.81574e+57
          1890.49840	         8.41620e+57
          1891.30470	         7.52612e+57
          1892.11100	         8.01094e+57
          1892.91730	         8.20474e+57
          1893.72360	         7.48429e+57
          1894.52990	         7.80437e+57
          1895.33620	         8.55762e+57
          1896.14250	         7.39223e+57
          1896.94880	         7.40344e+57
          1897.75510	         5.87196e+57
          1898.56140	         5.99278e+57
          1899.36770	         7.83432e+57
          1900.17400	         7.05214e+57
          1900.98030	         6.69040e+57
          1901.78660	         7.66616e+57
          1902.59290	         7.43991e+57
          1903.39920	         9.04701e+57
          1904.20550	         9.09708e+57
          1905.01180	         8.84232e+57
          1905.81810	         1.02641e+58
          1906.62440	         1.25817e+58
          1907.43070	         1.53421e+58
          1908.23700	         1.64704e+58
          1909.04330	         1.39136e+58
          1909.84960	         1.06178e+58
          1910.65590	         1.00450e+58
          1911.46220	         1.02508e+58
          1912.26850	         8.50571e+57
          1913.07480	         6.05096e+57
          1913.88110	         5.66233e+57
          1914.68740	         5.72373e+57
          1915.49370	         5.58010e+57
          1916.30000	         6.12594e+57
          1917.10630	         6.88327e+57
          1917.91260	         6.83558e+57
          1918.71890	         6.79590e+57
          1919.52520	         6.15079e+57
          1920.33150	         6.75516e+57
          1921.13780	         6.28512e+57
          1921.94410	         6.61969e+57
          1922.75040	         7.90427e+57
          1923.55670	         8.19932e+57
          1924.36300	         7.79373e+57
          1925.16930	         7.40066e+57
          1925.97560	         5.98279e+57
          1926.78190	         4.75644e+57
          1927.58820	         5.74619e+57
          1928.39450	         5.15201e+57
          1929.20080	         4.55515e+57
          1930.00710	         7.35637e+57
          1930.81340	         8.32421e+57
          1931.61970	         6.74797e+57
          1932.42600	         7.07801e+57
          1933.23230	         7.61890e+57
          1934.03860	         6.80972e+57
          1934.84490	         5.05523e+57
          1935.65120	         6.93451e+57
          1936.45750	         8.91525e+57
          1937.26380	         7.85379e+57
          1938.07010	         7.03228e+57
          1938.87640	         6.15265e+57
          1939.68270	         7.51897e+57
          1940.48900	         7.94674e+57
          1941.29530	         8.83389e+57
          1942.10160	         8.26930e+57
          1942.90790	         6.94415e+57
          1943.71420	         6.98192e+57
          1944.52050	         6.08651e+57
          1945.32680	         5.65102e+57
          1946.13310	         6.78571e+57
          1946.93940	         8.59158e+57
          1947.74570	         6.97439e+57
          1948.55200	         6.60753e+57
          1949.35830	         6.15883e+57
          1950.16460	         5.29431e+57
          1950.97090	         5.78460e+57
          1951.77720	         6.94927e+57
          1952.58350	         8.13112e+57
          1953.38980	         6.81777e+57
          1954.19610	         5.76633e+57
          1955.00240	         5.42901e+57
          1955.80870	         6.24859e+57
          1956.61500	         6.19921e+57
          1957.42130	         5.55126e+57
          1958.22760	         5.42058e+57
          1959.03390	         6.20144e+57
          1959.84020	         7.07915e+57
          1960.64650	         7.16941e+57
          1961.45280	         5.29843e+57
          1962.25910	         5.86093e+57
          1963.06540	         6.66905e+57
          1963.87170	         5.82453e+57
          1964.67800	         7.42895e+57
          1965.48430	         6.60943e+57
          1966.29060	         5.66601e+57
          1967.09690	         6.40824e+57
          1967.90320	         5.84747e+57
          1968.70950	         6.47013e+57
          1969.51580	         5.61263e+57
          1970.32210	         6.15378e+57
          1971.12840	         7.21597e+57
          1971.93470	         5.27017e+57
          1972.74100	         5.24895e+57
          1973.54730	         6.98750e+57
          1974.35360	         6.93766e+57
          1975.15990	         7.61202e+57
          1975.96620	         6.76116e+57
          1976.77250	         8.22131e+57
          1977.57880	         8.50254e+57
          1978.38510	         6.65062e+57
          1979.19140	         7.52371e+57
          1979.99770	         7.50018e+57
          1980.80400	         7.89519e+57
          1981.61030	         6.44510e+57
          1982.41660	         6.58139e+57
          1983.22290	         5.89851e+57
          1984.02920	         5.97980e+57
          1984.83550	         6.37548e+57
          1985.64180	         7.02979e+57
          1986.44810	         6.54700e+57
          1987.25440	         5.20949e+57
          1988.06070	         5.39591e+57
          1988.86700	         6.53782e+57
          1989.67330	         7.73146e+57
          1990.47960	         7.33452e+57
          1991.28590	         6.94653e+57
          1992.09220	         6.10081e+57
          1992.89850	         5.75061e+57
          1993.70480	         5.57408e+57
          1994.51110	         4.55798e+57
          1995.31740	         4.29036e+57
          1996.12370	         5.40449e+57
          1996.93000	         5.99867e+57
          1997.73630	         6.74024e+57
          1998.54260	         6.46280e+57
          1999.34890	         6.73369e+57
          2000.15520	         7.13944e+57
          2000.96150	         7.39903e+57
          2001.76780	         6.76354e+57
          2002.57410	         5.18745e+57
          2003.38040	         5.28437e+57
          2004.18670	         6.05675e+57
          2004.99300	         5.53632e+57
          2005.79930	         6.23182e+57
          2006.60560	         7.00900e+57
          2007.41190	         6.09514e+57
          2008.21820	         5.92277e+57
          2009.02450	         7.42574e+57
          2009.83080	         6.49234e+57
          2010.63710	         6.74529e+57
          2011.44340	         6.93912e+57
          2012.24970	         6.12455e+57
          2013.05600	         6.13153e+57
          2013.86230	         6.73050e+57
          2014.66860	         6.45123e+57
          2015.47490	         6.42298e+57
          2016.28120	         5.95367e+57
          2017.08750	         6.18619e+57
          2017.89380	         6.30940e+57
          2018.70010	         6.83626e+57
          2019.50640	         5.76513e+57
          2020.31270	         6.26088e+57
          2021.11900	         7.68509e+57
          2021.92530	         7.84438e+57
          2022.73160	         6.35106e+57
          2023.53790	         5.99367e+57
          2024.34420	         6.33262e+57
          2025.15050	         4.61246e+57
          2025.95680	         5.35283e+57
          2026.76310	         6.78580e+57
          2027.56940	         6.13763e+57
          2028.37570	         5.63956e+57
          2029.18200	         6.19739e+57
          2029.98830	         6.73786e+57
          2030.79460	         6.51586e+57
          2031.60090	         5.92479e+57
          2032.40720	         5.52313e+57
          2033.21350	         6.48940e+57
          2034.01980	         6.75218e+57
          2034.82610	         5.23805e+57
          2035.63240	         5.31095e+57
          2036.43870	         5.12838e+57
          2037.24500	         6.47382e+57
          2038.05130	         7.16317e+57
          2038.85760	         6.91023e+57
          2039.66390	         6.14914e+57
          2040.47020	         5.51507e+57
          2041.27650	         5.49853e+57
          2042.08280	         4.61304e+57
          2042.88910	         5.59143e+57
          2043.69540	         5.90284e+57
          2044.50170	         4.45901e+57
          2045.30800	         4.40196e+57
          2046.11430	         5.48350e+57
          2046.92060	         5.67132e+57
          2047.72690	         5.40643e+57
          2048.53320	         5.43335e+57
          2049.33950	         5.08486e+57
          2050.14580	         6.63081e+57
          2050.95210	         6.05839e+57
          2051.75840	         7.18871e+57
          2052.56470	         5.56376e+57
          2053.37100	         2.45384e+57
          2054.17730	         4.67138e+57
          2054.98360	         5.37139e+57
          2055.78990	         4.49032e+57
          2056.59620	         4.31422e+57
          2057.40250	         5.67952e+57
          2058.20880	         7.41263e+57
          2059.01510	         7.38281e+57
          2059.82140	         6.34053e+57
          2060.62770	         9.45438e+57
          2061.43400	         1.56671e+58
          2062.24030	         1.15092e+58
          2063.04660	         4.22177e+57
          2063.85290	         1.70978e+57
          2064.65920	        -2.51689e+57
          2065.46550	        -8.27978e+57
          2066.27180	        -8.40897e+57
          2067.07810	         4.62036e+57
          2067.88440	         5.56650e+57
          2068.69070	         5.58605e+57
          2069.49700	         6.43917e+57
          2070.30330	         5.21388e+57
          2071.10960	         4.82187e+57
          2071.91590	         6.27987e+57
          2072.72220	         3.64220e+57
          2073.52850	         4.40454e+57
          2074.33480	         5.31542e+57
          2075.14110	         5.44136e+57
          2075.94740	         5.12617e+57
          2076.75370	         4.46759e+57
          2077.56000	         4.43838e+57
          2078.36630	         5.50885e+57
          2079.17260	         4.57000e+57
          2079.97890	         5.99549e+57
          2080.78520	         5.99856e+57
          2081.59150	         5.77344e+57
          2082.39780	         4.44505e+57
          2083.20410	         1.10494e+57
          2084.01040	         1.61210e+57
          2084.81670	         4.20838e+57
          2085.62300	         3.14899e+57
          2086.42930	         2.20557e+57
          2087.23560	         2.57271e+57
          2088.04190	         2.92735e+57
          2088.84820	         3.29892e+57
          2089.65450	         1.98357e+57
          2090.46080	         2.94027e+57
          2091.26710	         4.36628e+57
          2092.07340	         3.24772e+57
          2092.87970	         1.73296e+57
          2093.68600	        -2.62692e+56
          2094.49230	        -7.78860e+56
          2095.29860	         2.23538e+57
          2096.10490	         8.72726e+56
          2096.91120	         9.29311e+56
          2097.71750	         1.37985e+57
          2098.52380	         1.32703e+57
          2099.33010	         6.74835e+56
          2100.13640	         1.59676e+57
          2100.94270	         1.41450e+57
          2101.74900	         3.62665e+57
          2102.55530	         4.77569e+57
          2103.36160	         2.62343e+57
          2104.16790	         1.84363e+57
          2104.97420	         3.91661e+56
          2105.78050	         1.29966e+57
          2106.58680	         4.73850e+56
          2107.39310	        -1.45639e+57
          2108.19940	        -2.97395e+56
          2109.00570	         4.89673e+56
          2109.81200	         1.02733e+57
          2110.61830	         1.70494e+57
          2111.42460	         2.22124e+57
          2112.23090	         1.71685e+57
          2113.03720	        -1.09949e+56
          2113.84350	         2.46011e+56
          2114.64980	         3.96878e+57
          2115.45610	         1.87712e+56
          2116.26240	        -1.78609e+57
          2117.06870	        -2.07793e+55
          2117.87500	        -1.48276e+57
          2118.68130	        -1.02818e+57
          2119.48760	         3.62401e+57
          2120.29390	         1.42786e+57
          2121.10020	        -1.13408e+57
          2121.90650	        -3.50315e+57
          2122.71280	        -3.81903e+57
          2123.51910	         4.87984e+56
          2124.32540	         1.80687e+57
          2125.13170	        -2.60804e+57
          2125.93800	         1.28584e+57
          2126.74430	        -2.80184e+57
          2127.55060	        -7.31522e+57
          2128.35690	        -1.63943e+57
          2129.16320	        -3.74102e+57
          2129.96950	        -5.27214e+57
          2130.77580	        -2.79182e+57
          2131.58210	         8.14215e+57
          2132.38840	         3.07713e+56
          2133.19470	        -1.52962e+57
          2134.00100	        -1.24637e+56
          2134.80730	        -4.74993e+57
          2135.61360	         4.66459e+57
          2136.41990	         1.77799e+57
          2137.22620	         1.30330e+57
          2138.03250	         8.46083e+57
          2138.83880	        -8.19282e+56
          2139.64510	        -1.82331e+57
          2140.45140	        -6.84545e+57
          2141.25770	        -1.39254e+58
          2142.06400	         1.42925e+57
          2142.87030	         3.28939e+57
          2143.67660	         9.94549e+57
          2144.48290	         1.03365e+58
          2145.28920	         1.01167e+58
          2146.09550	        -9.63237e+57
          2146.90180	        -6.48908e+57
          2147.70810	        -6.46425e+57
          2148.51440	        -1.36610e+58
          2149.32070	        -3.71003e+57
          2150.12700	        -8.29677e+57
          2150.93330	        -1.71487e+57
          2151.73960	        -1.18871e+57
          2152.54590	        -5.23525e+57
          2153.35220	         4.71225e+57
          2154.15850	        -5.52234e+57
          2154.96480	        -6.47725e+57
          2155.77110	        -2.99164e+57
          2156.57740	        -9.26654e+57
          2157.38370	        -4.50937e+57
          2158.19000	        -8.37266e+57
          2158.99630	        -3.46597e+57
          2159.80260	        -1.49029e+58
          2160.60890	        -7.70532e+57
          2161.41520	        -6.43435e+56
          2162.22150	        -1.12600e+54
          2163.02780	         3.05081e+57
          2163.83410	        -6.93931e+57
          2164.64040	        -8.82233e+57
          2165.44670	        -1.18628e+58
          2166.25300	        -8.34065e+57
          2167.05930	        -4.94725e+57
          2167.86560	        -1.22467e+58
          2168.67190	        -6.83463e+57
          2169.47820	        -8.45678e+57
          2170.28450	         5.50078e+56
          2171.09080	         1.45796e+57
          2171.89710	         4.11054e+56
          2172.70340	         6.62951e+56
          2173.50970	        -6.39910e+57
          2174.31600	        -5.03675e+57
          2175.12230	        -7.91108e+57
          2175.92860	        -4.72296e+57
          2176.73490	        -6.32023e+57
          2177.54120	        -8.88938e+57
          2178.34750	        -3.63310e+57
          2179.15380	                 nan
          2179.96010	                 nan
          2180.76640	                 nan
          2181.57270	                 nan
          2182.37900	                 nan
          2183.18530	                 nan
          2183.99160	                 nan
          2184.79790	                 nan
          2185.60420	                 nan
          2186.41050	                 nan
          2187.21680	                 nan
          2188.02310	                 nan
          2188.82940	                 nan
          2189.63570	                 nan
          2190.44200	                 nan
          2191.24830	                 nan
          2192.05460	                 nan
          2192.86090	                 nan
          2193.66720	                 nan
          2194.47350	                 nan
          2195.27980	                 nan
          2196.08610	                 nan
          2196.89240	                 nan
          2197.69870	                 nan
          2198.50500	                 nan
          2199.31130	                 nan
          2200.11760	                 nan
          2200.92390	                 nan
          2201.73020	                 nan
          2202.53650	                 nan
          2203.34280	                 nan
          2204.14910	                 nan
          2204.95540	                 nan
          2205.76170	                 nan
          2206.56800	                 nan
          2207.37430	                 nan
          2208.18060	                 nan
          2208.98690	                 nan
          2209.79320	                 nan
          2210.59950	                 nan
          2211.40580	                 nan
          2212.21210	                 nan
          2213.01840	                 nan
          2213.82470	                 nan
          2214.63100	                 nan
          2215.43730	         0.00000e+00
