#sample_201_stacked_spectrum_rest_UV-bands_median_H-alpha_noDC.txt
#median Lum: 1.71182e+42
#Rest-frame wavelength (A) | Luminosity (erg/s/A)
#
          1110.00000	         0.00000e+00
          1110.80630	         2.73355e+59
          1111.61260	         1.05540e+59
          1112.41890	         1.58676e+59
          1113.22520	         1.43454e+59
          1114.03150	        -8.71724e+58
          1114.83780	         1.51090e+59
          1115.64410	         2.06396e+59
          1116.45040	         3.14926e+59
          1117.25670	         5.56821e+58
          1118.06300	         1.87719e+59
          1118.86930	        -1.10130e+59
          1119.67560	         1.19359e+59
          1120.48190	         4.30720e+58
          1121.28820	        -6.06173e+58
          1122.09450	         2.77964e+58
          1122.90080	         2.74763e+58
          1123.70710	         7.34053e+58
          1124.51340	         1.33950e+59
          1125.31970	         3.95336e+58
          1126.12600	        -2.73162e+58
          1126.93230	        -1.59679e+58
          1127.73860	         1.82337e+58
          1128.54490	         4.96397e+58
          1129.35120	         3.17649e+58
          1130.15750	        -4.55683e+58
          1130.96380	        -5.98527e+57
          1131.77010	         7.74324e+58
          1132.57640	         5.20070e+58
          1133.38270	         3.45039e+58
          1134.18900	         3.18699e+58
          1134.99530	         7.76804e+57
          1135.80160	         8.75701e+57
          1136.60790	         2.09221e+58
          1137.41420	         3.93158e+55
          1138.22050	         3.43347e+58
          1139.02680	         4.59230e+58
          1139.83310	         3.72580e+58
          1140.63940	         9.54674e+57
          1141.44570	         5.44152e+57
          1142.25200	         8.55756e+57
          1143.05830	         2.67159e+58
          1143.86460	         3.04020e+58
          1144.67090	         2.96153e+58
          1145.47720	         1.95128e+58
          1146.28350	         1.62195e+58
          1147.08980	         2.58896e+58
          1147.89610	         2.43809e+58
          1148.70240	         2.06465e+58
          1149.50870	         3.19695e+58
          1150.31500	         1.78561e+58
          1151.12130	         3.65615e+57
          1151.92760	         1.52356e+58
          1152.73390	         7.89774e+57
          1153.54020	         8.18794e+57
          1154.34650	         2.37877e+58
          1155.15280	         2.43493e+58
          1155.95910	         1.43570e+58
          1156.76540	         1.66855e+57
          1157.57170	         3.40216e+57
          1158.37800	         5.99210e+57
          1159.18430	        -1.15047e+58
          1159.99060	        -5.17224e+57
          1160.79690	        -8.24846e+57
          1161.60320	         1.17374e+57
          1162.40950	         1.16402e+58
          1163.21580	         9.10624e+57
          1164.02210	         8.65469e+57
          1164.82840	         1.37603e+58
          1165.63470	         2.60468e+58
          1166.44100	         2.86309e+58
          1167.24730	         1.68998e+58
          1168.05360	         1.13322e+58
          1168.85990	         5.29994e+57
          1169.66620	         5.95694e+57
          1170.47250	         1.08881e+58
          1171.27880	         1.10326e+57
          1172.08510	         1.43166e+58
          1172.89140	         1.53301e+58
          1173.69770	         4.74944e+57
          1174.50400	         1.27907e+58
          1175.31030	         1.39592e+58
          1176.11660	         1.66738e+58
          1176.92290	         1.51655e+58
          1177.72920	         1.28288e+58
          1178.53550	         8.43757e+57
          1179.34180	         3.16258e+57
          1180.14810	         2.98812e+57
          1180.95440	         7.29851e+57
          1181.76070	         4.72800e+57
          1182.56700	         5.37750e+57
          1183.37330	         5.82194e+57
          1184.17960	         7.83457e+57
          1184.98590	         1.38860e+58
          1185.79220	         1.23810e+58
          1186.59850	         1.57740e+58
          1187.40480	         9.73553e+57
          1188.21110	         1.01674e+58
          1189.01740	         9.33563e+57
          1189.82370	         1.16776e+58
          1190.63000	         1.03062e+58
          1191.43630	         1.27773e+58
          1192.24260	         9.33304e+57
          1193.04890	         1.46085e+58
          1193.85520	         1.65944e+58
          1194.66150	         4.47657e+57
          1195.46780	         5.50876e+57
          1196.27410	         1.27305e+58
          1197.08040	         8.79804e+57
          1197.88670	         1.26546e+58
          1198.69300	         1.41179e+58
          1199.49930	         1.46492e+58
          1200.30560	         7.33276e+57
          1201.11190	         6.62183e+57
          1201.91820	         7.01819e+57
          1202.72450	         4.40770e+57
          1203.53080	         8.56281e+57
          1204.33710	         9.06996e+57
          1205.14340	         1.02510e+58
          1205.94970	         7.55220e+57
          1206.75600	         8.41660e+57
          1207.56230	         3.84300e+57
          1208.36860	         3.71105e+57
          1209.17490	         6.73891e+55
          1209.98120	         5.43766e+57
          1210.78750	         1.12366e+58
          1211.59380	         1.21847e+58
          1212.40010	         1.61086e+58
          1213.20640	         2.39831e+58
          1214.01270	         2.33389e+58
          1214.81900	         2.78657e+58
          1215.62530	         4.58796e+58
          1216.43160	         9.18572e+58
          1217.23790	         1.53208e+59
          1218.04420	         1.13510e+59
          1218.85050	         8.49446e+58
          1219.65680	         5.70506e+58
          1220.46310	         3.16804e+58
          1221.26940	         2.17484e+58
          1222.07570	         1.52427e+58
          1222.88200	         1.15007e+58
          1223.68830	         8.67001e+57
          1224.49460	         7.27763e+57
          1225.30090	         3.93075e+57
          1226.10720	         4.93335e+57
          1226.91350	         5.84703e+57
          1227.71980	         7.13628e+57
          1228.52610	         9.39394e+57
          1229.33240	         9.11619e+57
          1230.13870	         9.27145e+57
          1230.94500	         7.10065e+57
          1231.75130	         9.24433e+57
          1232.55760	         1.20067e+58
          1233.36390	         8.47739e+57
          1234.17020	         9.73531e+57
          1234.97650	         9.63131e+57
          1235.78280	         8.69111e+57
          1236.58910	         7.80297e+57
          1237.39540	         9.35694e+57
          1238.20170	         8.60457e+57
          1239.00800	         9.56296e+57
          1239.81430	         1.29243e+58
          1240.62060	         1.11795e+58
          1241.42690	         1.10928e+58
          1242.23320	         1.33085e+58
          1243.03950	         8.59988e+57
          1243.84580	         8.97083e+57
          1244.65210	         1.08348e+58
          1245.45840	         8.95733e+57
          1246.26470	         1.00433e+58
          1247.07100	         9.26735e+57
          1247.87730	         9.86158e+57
          1248.68360	         6.47499e+57
          1249.48990	         8.71094e+57
          1250.29620	         1.09921e+58
          1251.10250	         9.69567e+57
          1251.90880	         4.85009e+57
          1252.71510	         5.40154e+57
          1253.52140	         6.89305e+57
          1254.32770	         9.95429e+57
          1255.13400	         1.16239e+58
          1255.94030	         1.25734e+58
          1256.74660	         1.13570e+58
          1257.55290	         1.13199e+58
          1258.35920	         9.30265e+57
          1259.16550	         4.50123e+57
          1259.97180	         4.30316e+57
          1260.77810	         8.63654e+57
          1261.58440	         1.10737e+58
          1262.39070	         8.06123e+57
          1263.19700	         9.87197e+57
          1264.00330	         1.25623e+58
          1264.80960	         1.29586e+58
          1265.61590	         1.45124e+58
          1266.42220	         1.29358e+58
          1267.22850	         1.14074e+58
          1268.03480	         1.40735e+58
          1268.84110	         1.45392e+58
          1269.64740	         1.36171e+58
          1270.45370	         1.32301e+58
          1271.26000	         1.33691e+58
          1272.06630	         1.30043e+58
          1272.87260	         1.17598e+58
          1273.67890	         1.14704e+58
          1274.48520	         1.28686e+58
          1275.29150	         1.14118e+58
          1276.09780	         9.27330e+57
          1276.90410	         1.24281e+58
          1277.71040	         1.29567e+58
          1278.51670	         1.31220e+58
          1279.32300	         1.36472e+58
          1280.12930	         1.25755e+58
          1280.93560	         1.12682e+58
          1281.74190	         9.66655e+57
          1282.54820	         1.02225e+58
          1283.35450	         9.60958e+57
          1284.16080	         1.19603e+58
          1284.96710	         1.43327e+58
          1285.77340	         1.21081e+58
          1286.57970	         1.00113e+58
          1287.38600	         1.55697e+58
          1288.19230	         1.88016e+58
          1288.99860	         1.50533e+58
          1289.80490	         1.11512e+58
          1290.61120	         1.30756e+58
          1291.41750	         1.41217e+58
          1292.22380	         1.20569e+58
          1293.03010	         1.38879e+58
          1293.83640	         1.35016e+58
          1294.64270	         1.03852e+58
          1295.44900	         7.00732e+57
          1296.25530	         7.34518e+57
          1297.06160	         9.28721e+57
          1297.86790	         9.16912e+57
          1298.67420	         8.69786e+57
          1299.48050	         9.04407e+57
          1300.28680	         1.11702e+58
          1301.09310	         9.70328e+57
          1301.89940	         4.43087e+57
          1302.70570	         7.48339e+57
          1303.51200	         9.49012e+57
          1304.31830	         1.06238e+58
          1305.12460	         1.11504e+58
          1305.93090	         1.17534e+58
          1306.73720	         1.41638e+58
          1307.54350	         1.55938e+58
          1308.34980	         1.49230e+58
          1309.15610	         1.48216e+58
          1309.96240	         1.53634e+58
          1310.76870	         1.27190e+58
          1311.57500	         1.02485e+58
          1312.38130	         1.18104e+58
          1313.18760	         1.36289e+58
          1313.99390	         1.65549e+58
          1314.80020	         1.62260e+58
          1315.60650	         1.33820e+58
          1316.41280	         1.10878e+58
          1317.21910	         9.36183e+57
          1318.02540	         1.17054e+58
          1318.83170	         1.31647e+58
          1319.63800	         1.26565e+58
          1320.44430	         1.21816e+58
          1321.25060	         1.22949e+58
          1322.05690	         1.14790e+58
          1322.86320	         1.09970e+58
          1323.66950	         1.12038e+58
          1324.47580	         1.01497e+58
          1325.28210	         9.14976e+57
          1326.08840	         1.14247e+58
          1326.89470	         1.41298e+58
          1327.70100	         9.92760e+57
          1328.50730	         7.92815e+57
          1329.31360	         1.04233e+58
          1330.11990	         1.18770e+58
          1330.92620	         1.06001e+58
          1331.73250	         1.03820e+58
          1332.53880	         9.04888e+57
          1333.34510	         6.82040e+57
          1334.15140	         7.39492e+57
          1334.95770	         9.57667e+57
          1335.76400	         1.13879e+58
          1336.57030	         1.13882e+58
          1337.37660	         1.10997e+58
          1338.18290	         1.08332e+58
          1338.98920	         1.11190e+58
          1339.79550	         1.09196e+58
          1340.60180	         1.12672e+58
          1341.40810	         1.26028e+58
          1342.21440	         1.09172e+58
          1343.02070	         1.12249e+58
          1343.82700	         1.37657e+58
          1344.63330	         1.34896e+58
          1345.43960	         1.36528e+58
          1346.24590	         1.24634e+58
          1347.05220	         1.27109e+58
          1347.85850	         1.00519e+58
          1348.66480	         1.29973e+58
          1349.47110	         1.37718e+58
          1350.27740	         1.01631e+58
          1351.08370	         1.18652e+58
          1351.89000	         1.31343e+58
          1352.69630	         1.21642e+58
          1353.50260	         1.10056e+58
          1354.30890	         1.16680e+58
          1355.11520	         1.21679e+58
          1355.92150	         1.09195e+58
          1356.72780	         9.82549e+57
          1357.53410	         9.87363e+57
          1358.34040	         1.07718e+58
          1359.14670	         9.98611e+57
          1359.95300	         1.16736e+58
          1360.75930	         1.17982e+58
          1361.56560	         1.00036e+58
          1362.37190	         1.10276e+58
          1363.17820	         1.13557e+58
          1363.98450	         1.28307e+58
          1364.79080	         1.31746e+58
          1365.59710	         1.17468e+58
          1366.40340	         1.02865e+58
          1367.20970	         8.29239e+57
          1368.01600	         9.13569e+57
          1368.82230	         9.79498e+57
          1369.62860	         1.15721e+58
          1370.43490	         9.81552e+57
          1371.24120	         8.35164e+57
          1372.04750	         8.64317e+57
          1372.85380	         1.02186e+58
          1373.66010	         1.02021e+58
          1374.46640	         1.01767e+58
          1375.27270	         1.07483e+58
          1376.07900	         8.99457e+57
          1376.88530	         8.98095e+57
          1377.69160	         8.23278e+57
          1378.49790	         6.71508e+57
          1379.30420	         8.03879e+57
          1380.11050	         8.69808e+57
          1380.91680	         7.84511e+57
          1381.72310	         6.58433e+57
          1382.52940	         7.29763e+57
          1383.33570	         8.32559e+57
          1384.14200	         9.82138e+57
          1384.94830	         1.08728e+58
          1385.75460	         1.17598e+58
          1386.56090	         1.23331e+58
          1387.36720	         1.27868e+58
          1388.17350	         1.39190e+58
          1388.97980	         1.17251e+58
          1389.78610	         9.26644e+57
          1390.59240	         7.30385e+57
          1391.39870	         6.27092e+57
          1392.20500	         7.62274e+57
          1393.01130	         7.86981e+57
          1393.81760	         8.08929e+57
          1394.62390	         7.87311e+57
          1395.43020	         6.66812e+57
          1396.23650	         6.87745e+57
          1397.04280	         7.89990e+57
          1397.84910	         8.94158e+57
          1398.65540	         9.37215e+57
          1399.46170	         9.62977e+57
          1400.26800	         7.77627e+57
          1401.07430	         7.39589e+57
          1401.88060	         9.34050e+57
          1402.68690	         1.01319e+58
          1403.49320	         9.24756e+57
          1404.29950	         9.55609e+57
          1405.10580	         1.04874e+58
          1405.91210	         1.08958e+58
          1406.71840	         9.71170e+57
          1407.52470	         9.87966e+57
          1408.33100	         1.01450e+58
          1409.13730	         1.19684e+58
          1409.94360	         1.25366e+58
          1410.74990	         1.08532e+58
          1411.55620	         9.76587e+57
          1412.36250	         9.44901e+57
          1413.16880	         8.33070e+57
          1413.97510	         7.59237e+57
          1414.78140	         9.00914e+57
          1415.58770	         1.10410e+58
          1416.39400	         1.23947e+58
          1417.20030	         1.17528e+58
          1418.00660	         1.08800e+58
          1418.81290	         1.01637e+58
          1419.61920	         1.00859e+58
          1420.42550	         1.27961e+58
          1421.23180	         1.42353e+58
          1422.03810	         1.31114e+58
          1422.84440	         1.11685e+58
          1423.65070	         1.16519e+58
          1424.45700	         1.16294e+58
          1425.26330	         9.14577e+57
          1426.06960	         8.84850e+57
          1426.87590	         1.02142e+58
          1427.68220	         9.94908e+57
          1428.48850	         1.07066e+58
          1429.29480	         1.26320e+58
          1430.10110	         1.11693e+58
          1430.90740	         8.43765e+57
          1431.71370	         8.65200e+57
          1432.52000	         9.32699e+57
          1433.32630	         8.63485e+57
          1434.13260	         7.95409e+57
          1434.93890	         8.45918e+57
          1435.74520	         8.71386e+57
          1436.55150	         1.00894e+58
          1437.35780	         9.58497e+57
          1438.16410	         8.96622e+57
          1438.97040	         8.47412e+57
          1439.77670	         8.04874e+57
          1440.58300	         8.72196e+57
          1441.38930	         9.29652e+57
          1442.19560	         9.92147e+57
          1443.00190	         9.90359e+57
          1443.80820	         9.98442e+57
          1444.61450	         9.52219e+57
          1445.42080	         8.94979e+57
          1446.22710	         1.15053e+58
          1447.03340	         9.52237e+57
          1447.83970	         9.07558e+57
          1448.64600	         1.09258e+58
          1449.45230	         9.62509e+57
          1450.25860	         9.70011e+57
          1451.06490	         9.27855e+57
          1451.87120	         8.19116e+57
          1452.67750	         7.71163e+57
          1453.48380	         8.73492e+57
          1454.29010	         8.68271e+57
          1455.09640	         8.59305e+57
          1455.90270	         9.85398e+57
          1456.70900	         9.56243e+57
          1457.51530	         9.17421e+57
          1458.32160	         1.17964e+58
          1459.12790	         1.17820e+58
          1459.93420	         1.08374e+58
          1460.74050	         8.56937e+57
          1461.54680	         8.16948e+57
          1462.35310	         8.44182e+57
          1463.15940	         9.32039e+57
          1463.96570	         1.10736e+58
          1464.77200	         1.11329e+58
          1465.57830	         9.44779e+57
          1466.38460	         8.42952e+57
          1467.19090	         8.45333e+57
          1467.99720	         9.08268e+57
          1468.80350	         9.29194e+57
          1469.60980	         9.86147e+57
          1470.41610	         1.04780e+58
          1471.22240	         9.27485e+57
          1472.02870	         9.04228e+57
          1472.83500	         9.73968e+57
          1473.64130	         1.03489e+58
          1474.44760	         9.54451e+57
          1475.25390	         8.95288e+57
          1476.06020	         8.65739e+57
          1476.86650	         7.48112e+57
          1477.67280	         6.89228e+57
          1478.47910	         6.28796e+57
          1479.28540	         6.25784e+57
          1480.09170	         7.96722e+57
          1480.89800	         8.87266e+57
          1481.70430	         8.81844e+57
          1482.51060	         8.56055e+57
          1483.31690	         8.07379e+57
          1484.12320	         7.54731e+57
          1484.92950	         8.54300e+57
          1485.73580	         8.72270e+57
          1486.54210	         9.47708e+57
          1487.34840	         8.81786e+57
          1488.15470	         6.94364e+57
          1488.96100	         7.98431e+57
          1489.76730	         1.03110e+58
          1490.57360	         9.91735e+57
          1491.37990	         7.26615e+57
          1492.18620	         7.43452e+57
          1492.99250	         8.86621e+57
          1493.79880	         7.67199e+57
          1494.60510	         8.14922e+57
          1495.41140	         8.28896e+57
          1496.21770	         8.41767e+57
          1497.02400	         9.62604e+57
          1497.83030	         7.98573e+57
          1498.63660	         6.68611e+57
          1499.44290	         6.44445e+57
          1500.24920	         7.79468e+57
          1501.05550	         7.80686e+57
          1501.86180	         8.60823e+57
          1502.66810	         9.16060e+57
          1503.47440	         8.57563e+57
          1504.28070	         7.77139e+57
          1505.08700	         8.65550e+57
          1505.89330	         9.27458e+57
          1506.69960	         8.54259e+57
          1507.50590	         9.04453e+57
          1508.31220	         9.53920e+57
          1509.11850	         9.21001e+57
          1509.92480	         9.68688e+57
          1510.73110	         9.19162e+57
          1511.53740	         7.48250e+57
          1512.34370	         7.21494e+57
          1513.15000	         9.60104e+57
          1513.95630	         1.07082e+58
          1514.76260	         9.39907e+57
          1515.56890	         9.36498e+57
          1516.37520	         8.84806e+57
          1517.18150	         7.87865e+57
          1517.98780	         6.88432e+57
          1518.79410	         7.26686e+57
          1519.60040	         9.40773e+57
          1520.40670	         1.04637e+58
          1521.21300	         1.01971e+58
          1522.01930	         9.09764e+57
          1522.82560	         9.10290e+57
          1523.63190	         9.84857e+57
          1524.43820	         8.26589e+57
          1525.24450	         6.88914e+57
          1526.05080	         6.14214e+57
          1526.85710	         6.16549e+57
          1527.66340	         6.07044e+57
          1528.46970	         7.66872e+57
          1529.27600	         8.57098e+57
          1530.08230	         8.09511e+57
          1530.88860	         7.94199e+57
          1531.69490	         8.17382e+57
          1532.50120	         9.12986e+57
          1533.30750	         1.02605e+58
          1534.11380	         9.20923e+57
          1534.92010	         9.35568e+57
          1535.72640	         9.50068e+57
          1536.53270	         8.76301e+57
          1537.33900	         7.71634e+57
          1538.14530	         9.20331e+57
          1538.95160	         9.96689e+57
          1539.75790	         8.60756e+57
          1540.56420	         7.85923e+57
          1541.37050	         7.74133e+57
          1542.17680	         7.46114e+57
          1542.98310	         7.58094e+57
          1543.78940	         7.97215e+57
          1544.59570	         6.93413e+57
          1545.40200	         7.27709e+57
          1546.20830	         9.69466e+57
          1547.01460	         1.08625e+58
          1547.82090	         1.12300e+58
          1548.62720	         1.21402e+58
          1549.43350	         1.26673e+58
          1550.23980	         1.14731e+58
          1551.04610	         1.18792e+58
          1551.85240	         1.10537e+58
          1552.65870	         1.06850e+58
          1553.46500	         1.06210e+58
          1554.27130	         1.05672e+58
          1555.07760	         9.76015e+57
          1555.88390	         8.00229e+57
          1556.69020	         9.14688e+57
          1557.49650	         9.95738e+57
          1558.30280	         8.61680e+57
          1559.10910	         8.29574e+57
          1559.91540	         8.35362e+57
          1560.72170	         8.37617e+57
          1561.52800	         8.33294e+57
          1562.33430	         8.89182e+57
          1563.14060	         7.84481e+57
          1563.94690	         7.72852e+57
          1564.75320	         8.18597e+57
          1565.55950	         7.54032e+57
          1566.36580	         7.73842e+57
          1567.17210	         9.29593e+57
          1567.97840	         8.89195e+57
          1568.78470	         8.58622e+57
          1569.59100	         9.98991e+57
          1570.39730	         9.03350e+57
          1571.20360	         6.69912e+57
          1572.00990	         7.88326e+57
          1572.81620	         9.63501e+57
          1573.62250	         1.03526e+58
          1574.42880	         8.93348e+57
          1575.23510	         7.68448e+57
          1576.04140	         8.93990e+57
          1576.84770	         9.74760e+57
          1577.65400	         9.88673e+57
          1578.46030	         9.57446e+57
          1579.26660	         1.02616e+58
          1580.07290	         8.87737e+57
          1580.87920	         7.77811e+57
          1581.68550	         7.93622e+57
          1582.49180	         8.37669e+57
          1583.29810	         7.74816e+57
          1584.10440	         8.47633e+57
          1584.91070	         8.73401e+57
          1585.71700	         8.59129e+57
          1586.52330	         9.22723e+57
          1587.32960	         9.18835e+57
          1588.13590	         8.80168e+57
          1588.94220	         8.35366e+57
          1589.74850	         9.10542e+57
          1590.55480	         9.28625e+57
          1591.36110	         8.19962e+57
          1592.16740	         7.99476e+57
          1592.97370	         8.07799e+57
          1593.78000	         9.01052e+57
          1594.58630	         8.94442e+57
          1595.39260	         8.06190e+57
          1596.19890	         8.51157e+57
          1597.00520	         8.75299e+57
          1597.81150	         8.76392e+57
          1598.61780	         7.28173e+57
          1599.42410	         6.81580e+57
          1600.23040	         7.43584e+57
          1601.03670	         7.35799e+57
          1601.84300	         6.39287e+57
          1602.64930	         6.93615e+57
          1603.45560	         7.63680e+57
          1604.26190	         7.40416e+57
          1605.06820	         7.98885e+57
          1605.87450	         8.15719e+57
          1606.68080	         7.57187e+57
          1607.48710	         5.88538e+57
          1608.29340	         4.85860e+57
          1609.09970	         6.37727e+57
          1609.90600	         6.21165e+57
          1610.71230	         6.04265e+57
          1611.51860	         7.19549e+57
          1612.32490	         7.01264e+57
          1613.13120	         7.19471e+57
          1613.93750	         7.62947e+57
          1614.74380	         8.62423e+57
          1615.55010	         8.67594e+57
          1616.35640	         9.82731e+57
          1617.16270	         1.02978e+58
          1617.96900	         9.98850e+57
          1618.77530	         9.35928e+57
          1619.58160	         9.08685e+57
          1620.38790	         8.71530e+57
          1621.19420	         8.54224e+57
          1622.00050	         8.23413e+57
          1622.80680	         8.94607e+57
          1623.61310	         9.83812e+57
          1624.41940	         8.92353e+57
          1625.22570	         9.63354e+57
          1626.03200	         9.24734e+57
          1626.83830	         8.20519e+57
          1627.64460	         7.73492e+57
          1628.45090	         6.58421e+57
          1629.25720	         9.37488e+57
          1630.06350	         1.05799e+58
          1630.86980	         7.01179e+57
          1631.67610	         8.54323e+57
          1632.48240	         9.11202e+57
          1633.28870	         8.28890e+57
          1634.09500	         9.07698e+57
          1634.90130	         1.10908e+58
          1635.70760	         9.37430e+57
          1636.51390	         7.64263e+57
          1637.32020	         7.33860e+57
          1638.12650	         9.14362e+57
          1638.93280	         9.66571e+57
          1639.73910	         1.03295e+58
          1640.54540	         1.03490e+58
          1641.35170	         8.77195e+57
          1642.15800	         9.03375e+57
          1642.96430	         8.77898e+57
          1643.77060	         8.55794e+57
          1644.57690	         9.09539e+57
          1645.38320	         8.64349e+57
          1646.18950	         8.51088e+57
          1646.99580	         9.36365e+57
          1647.80210	         7.31943e+57
          1648.60840	         6.93861e+57
          1649.41470	         7.46092e+57
          1650.22100	         7.48713e+57
          1651.02730	         6.96610e+57
          1651.83360	         7.01073e+57
          1652.63990	         7.55732e+57
          1653.44620	         8.78217e+57
          1654.25250	         8.28624e+57
          1655.05880	         6.10640e+57
          1655.86510	         6.96738e+57
          1656.67140	         7.38012e+57
          1657.47770	         6.72319e+57
          1658.28400	         7.72538e+57
          1659.09030	         9.06189e+57
          1659.89660	         8.75565e+57
          1660.70290	         1.02210e+58
          1661.50920	         1.03772e+58
          1662.31550	         9.11367e+57
          1663.12180	         9.50597e+57
          1663.92810	         1.03214e+58
          1664.73440	         1.13967e+58
          1665.54070	         1.26459e+58
          1666.34700	         1.29322e+58
          1667.15330	         1.10432e+58
          1667.95960	         9.07416e+57
          1668.76590	         8.01871e+57
          1669.57220	         7.66624e+57
          1670.37850	         8.21356e+57
          1671.18480	         7.80806e+57
          1671.99110	         6.97817e+57
          1672.79740	         5.57370e+57
          1673.60370	         6.18125e+57
          1674.41000	         7.85328e+57
          1675.21630	         7.30758e+57
          1676.02260	         6.61309e+57
          1676.82890	         5.69001e+57
          1677.63520	         5.97757e+57
          1678.44150	         7.15685e+57
          1679.24780	         9.36916e+57
          1680.05410	         7.46461e+57
          1680.86040	         6.10013e+57
          1681.66670	         7.92331e+57
          1682.47300	         8.75855e+57
          1683.27930	         8.85799e+57
          1684.08560	         8.81014e+57
          1684.89190	         7.77956e+57
          1685.69820	         4.83663e+57
          1686.50450	         4.23806e+57
          1687.31080	         5.94775e+57
          1688.11710	         7.52156e+57
          1688.92340	         6.88846e+57
          1689.72970	         6.47024e+57
          1690.53600	         6.78631e+57
          1691.34230	         7.25367e+57
          1692.14860	         7.70915e+57
          1692.95490	         7.87840e+57
          1693.76120	         7.60934e+57
          1694.56750	         6.50293e+57
          1695.37380	         6.97305e+57
          1696.18010	         7.53825e+57
          1696.98640	         8.26500e+57
          1697.79270	         8.77488e+57
          1698.59900	         7.98524e+57
          1699.40530	         7.77204e+57
          1700.21160	         7.79829e+57
          1701.01790	         8.04351e+57
          1701.82420	         7.84282e+57
          1702.63050	         8.10232e+57
          1703.43680	         8.57675e+57
          1704.24310	         7.95138e+57
          1705.04940	         8.25677e+57
          1705.85570	         8.06165e+57
          1706.66200	         7.18223e+57
          1707.46830	         7.57059e+57
          1708.27460	         7.79736e+57
          1709.08090	         7.16913e+57
          1709.88720	         6.05382e+57
          1710.69350	         5.45665e+57
          1711.49980	         6.08719e+57
          1712.30610	         7.76968e+57
          1713.11240	         9.58477e+57
          1713.91870	         8.78589e+57
          1714.72500	         9.01876e+57
          1715.53130	         9.19588e+57
          1716.33760	         7.22199e+57
          1717.14390	         7.63162e+57
          1717.95020	         8.52935e+57
          1718.75650	         8.45165e+57
          1719.56280	         8.43344e+57
          1720.36910	         7.56437e+57
          1721.17540	         7.20620e+57
          1721.98170	         5.60790e+57
          1722.78800	         5.61851e+57
          1723.59430	         6.99946e+57
          1724.40060	         8.52818e+57
          1725.20690	         9.17439e+57
          1726.01320	         8.62188e+57
          1726.81950	         7.83715e+57
          1727.62580	         7.01733e+57
          1728.43210	         7.37295e+57
          1729.23840	         7.74249e+57
          1730.04470	         7.71446e+57
          1730.85100	         8.25936e+57
          1731.65730	         8.10731e+57
          1732.46360	         8.35179e+57
          1733.26990	         7.47623e+57
          1734.07620	         6.89318e+57
          1734.88250	         7.57693e+57
          1735.68880	         7.87123e+57
          1736.49510	         7.57452e+57
          1737.30140	         8.30274e+57
          1738.10770	         7.99406e+57
          1738.91400	         7.92114e+57
          1739.72030	         7.48219e+57
          1740.52660	         6.65573e+57
          1741.33290	         5.67689e+57
          1742.13920	         5.66369e+57
          1742.94550	         7.32814e+57
          1743.75180	         8.47187e+57
          1744.55810	         8.04825e+57
          1745.36440	         7.55167e+57
          1746.17070	         5.72018e+57
          1746.97700	         5.43436e+57
          1747.78330	         6.70915e+57
          1748.58960	         6.06329e+57
          1749.39590	         6.76626e+57
          1750.20220	         6.85940e+57
          1751.00850	         6.29671e+57
          1751.81480	         6.74778e+57
          1752.62110	         6.88955e+57
          1753.42740	         7.28551e+57
          1754.23370	         6.66065e+57
          1755.04000	         7.29023e+57
          1755.84630	         7.52548e+57
          1756.65260	         8.45334e+57
          1757.45890	         7.92387e+57
          1758.26520	         6.08242e+57
          1759.07150	         7.81087e+57
          1759.87780	         8.99277e+57
          1760.68410	         7.90588e+57
          1761.49040	         7.63874e+57
          1762.29670	         6.09021e+57
          1763.10300	         7.10466e+57
          1763.90930	         7.76182e+57
          1764.71560	         8.08305e+57
          1765.52190	         8.35674e+57
          1766.32820	         8.74040e+57
          1767.13450	         8.11371e+57
          1767.94080	         8.00355e+57
          1768.74710	         7.66643e+57
          1769.55340	         7.71205e+57
          1770.35970	         6.28566e+57
          1771.16600	         6.91879e+57
          1771.97230	         8.29635e+57
          1772.77860	         8.70275e+57
          1773.58490	         7.88859e+57
          1774.39120	         5.85529e+57
          1775.19750	         5.62165e+57
          1776.00380	         5.70442e+57
          1776.81010	         6.57386e+57
          1777.61640	         7.00382e+57
          1778.42270	         6.76451e+57
          1779.22900	         7.09316e+57
          1780.03530	         6.94831e+57
          1780.84160	         7.46695e+57
          1781.64790	         8.82924e+57
          1782.45420	         7.78819e+57
          1783.26050	         6.78802e+57
          1784.06680	         6.79331e+57
          1784.87310	         6.81366e+57
          1785.67940	         7.24725e+57
          1786.48570	         6.61739e+57
          1787.29200	         6.22064e+57
          1788.09830	         5.93372e+57
          1788.90460	         4.83981e+57
          1789.71090	         5.01401e+57
          1790.51720	         5.49325e+57
          1791.32350	         6.88676e+57
          1792.12980	         7.87044e+57
          1792.93610	         7.48567e+57
          1793.74240	         7.21654e+57
          1794.54870	         8.21752e+57
          1795.35500	         8.62919e+57
          1796.16130	         8.00771e+57
          1796.96760	         7.26618e+57
          1797.77390	         6.77913e+57
          1798.58020	         7.22708e+57
          1799.38650	         7.43560e+57
          1800.19280	         7.19875e+57
          1800.99910	         7.66878e+57
          1801.80540	         7.56064e+57
          1802.61170	         7.41814e+57
          1803.41800	         7.61969e+57
          1804.22430	         7.28571e+57
          1805.03060	         7.47779e+57
          1805.83690	         8.00290e+57
          1806.64320	         8.81276e+57
          1807.44950	         8.12747e+57
          1808.25580	         7.78062e+57
          1809.06210	         7.98229e+57
          1809.86840	         7.15242e+57
          1810.67470	         8.44830e+57
          1811.48100	         8.73423e+57
          1812.28730	         8.47666e+57
          1813.09360	         7.31031e+57
          1813.89990	         7.93065e+57
          1814.70620	         8.30439e+57
          1815.51250	         8.06951e+57
          1816.31880	         8.21818e+57
          1817.12510	         8.03452e+57
          1817.93140	         8.07483e+57
          1818.73770	         7.86050e+57
          1819.54400	         8.60948e+57
          1820.35030	         8.69050e+57
          1821.15660	         6.59137e+57
          1821.96290	         6.57664e+57
          1822.76920	         7.18269e+57
          1823.57550	         8.03079e+57
          1824.38180	         7.59632e+57
          1825.18810	         8.09741e+57
          1825.99440	         9.44442e+57
          1826.80070	         7.84195e+57
          1827.60700	         6.51315e+57
          1828.41330	         6.22935e+57
          1829.21960	         6.95774e+57
          1830.02590	         7.20686e+57
          1830.83220	         7.31314e+57
          1831.63850	         7.15941e+57
          1832.44480	         7.12143e+57
          1833.25110	         8.36715e+57
          1834.05740	         9.12746e+57
          1834.86370	         7.04409e+57
          1835.67000	         5.59984e+57
          1836.47630	         7.33349e+57
          1837.28260	         9.19487e+57
          1838.08890	         8.30466e+57
          1838.89520	         8.16221e+57
          1839.70150	         7.79233e+57
          1840.50780	         7.36871e+57
          1841.31410	         7.31005e+57
          1842.12040	         6.73824e+57
          1842.92670	         7.99598e+57
          1843.73300	         7.68486e+57
          1844.53930	         6.72796e+57
          1845.34560	         6.96744e+57
          1846.15190	         7.80547e+57
          1846.95820	         7.77710e+57
          1847.76450	         7.26064e+57
          1848.57080	         6.00522e+57
          1849.37710	         5.81523e+57
          1850.18340	         8.20341e+57
          1850.98970	         8.97849e+57
          1851.79600	         8.88996e+57
          1852.60230	         6.70281e+57
          1853.40860	         5.92449e+57
          1854.21490	         7.36161e+57
          1855.02120	         7.38838e+57
          1855.82750	         4.98439e+57
          1856.63380	         5.59004e+57
          1857.44010	         7.86469e+57
          1858.24640	         7.85496e+57
          1859.05270	         6.85388e+57
          1859.85900	         6.57086e+57
          1860.66530	         6.29655e+57
          1861.47160	         7.09443e+57
          1862.27790	         7.07237e+57
          1863.08420	         7.40805e+57
          1863.89050	         7.67420e+57
          1864.69680	         7.88753e+57
          1865.50310	         8.31121e+57
          1866.30940	         6.91629e+57
          1867.11570	         6.69726e+57
          1867.92200	         7.70372e+57
          1868.72830	         7.78330e+57
          1869.53460	         7.24757e+57
          1870.34090	         7.78180e+57
          1871.14720	         8.09382e+57
          1871.95350	         6.83648e+57
          1872.75980	         6.61401e+57
          1873.56610	         6.86416e+57
          1874.37240	         6.22807e+57
          1875.17870	         6.79607e+57
          1875.98500	         7.51359e+57
          1876.79130	         7.97711e+57
          1877.59760	         7.10449e+57
          1878.40390	         5.72256e+57
          1879.21020	         6.10621e+57
          1880.01650	         6.78817e+57
          1880.82280	         7.64614e+57
          1881.62910	         9.39374e+57
          1882.43540	         1.02234e+58
          1883.24170	         9.58637e+57
          1884.04800	         6.87115e+57
          1884.85430	         7.21205e+57
          1885.66060	         7.69365e+57
          1886.46690	         6.92871e+57
          1887.27320	         6.11187e+57
          1888.07950	         5.71044e+57
          1888.88580	         6.45457e+57
          1889.69210	         8.50694e+57
          1890.49840	         9.50700e+57
          1891.30470	         8.02148e+57
          1892.11100	         7.94164e+57
          1892.91730	         8.14050e+57
          1893.72360	         8.13683e+57
          1894.52990	         7.34711e+57
          1895.33620	         8.35449e+57
          1896.14250	         7.91998e+57
          1896.94880	         7.25036e+57
          1897.75510	         5.58580e+57
          1898.56140	         5.42818e+57
          1899.36770	         7.33306e+57
          1900.17400	         6.27088e+57
          1900.98030	         5.90870e+57
          1901.78660	         7.00168e+57
          1902.59290	         7.51852e+57
          1903.39920	         8.73543e+57
          1904.20550	         8.47360e+57
          1905.01180	         8.38826e+57
          1905.81810	         9.64689e+57
          1906.62440	         1.26064e+58
          1907.43070	         1.51231e+58
          1908.23700	         1.56065e+58
          1909.04330	         1.26298e+58
          1909.84960	         1.05151e+58
          1910.65590	         1.07497e+58
          1911.46220	         1.05240e+58
          1912.26850	         8.14452e+57
          1913.07480	         6.77440e+57
          1913.88110	         6.26251e+57
          1914.68740	         5.70971e+57
          1915.49370	         5.71396e+57
          1916.30000	         5.85401e+57
          1917.10630	         5.93994e+57
          1917.91260	         6.01698e+57
          1918.71890	         6.43389e+57
          1919.52520	         6.63992e+57
          1920.33150	         6.65924e+57
          1921.13780	         7.30951e+57
          1921.94410	         8.08388e+57
          1922.75040	         6.79523e+57
          1923.55670	         6.45113e+57
          1924.36300	         6.80572e+57
          1925.16930	         5.85796e+57
          1925.97560	         5.37679e+57
          1926.78190	         5.45562e+57
          1927.58820	         6.66333e+57
          1928.39450	         5.07676e+57
          1929.20080	         4.00511e+57
          1930.00710	         6.53068e+57
          1930.81340	         8.07906e+57
          1931.61970	         7.25924e+57
          1932.42600	         7.02661e+57
          1933.23230	         8.49146e+57
          1934.03860	         7.01793e+57
          1934.84490	         5.89789e+57
          1935.65120	         7.93720e+57
          1936.45750	         9.42212e+57
          1937.26380	         7.64953e+57
          1938.07010	         7.94377e+57
          1938.87640	         6.96309e+57
          1939.68270	         7.21346e+57
          1940.48900	         8.11472e+57
          1941.29530	         7.67139e+57
          1942.10160	         7.55878e+57
          1942.90790	         6.44574e+57
          1943.71420	         6.00460e+57
          1944.52050	         5.19777e+57
          1945.32680	         5.20460e+57
          1946.13310	         7.24289e+57
          1946.93940	         8.06180e+57
          1947.74570	         7.32307e+57
          1948.55200	         6.86416e+57
          1949.35830	         6.62494e+57
          1950.16460	         6.34775e+57
          1950.97090	         7.17742e+57
          1951.77720	         7.45553e+57
          1952.58350	         8.07412e+57
          1953.38980	         6.44024e+57
          1954.19610	         4.54589e+57
          1955.00240	         5.06442e+57
          1955.80870	         5.90756e+57
          1956.61500	         5.53216e+57
          1957.42130	         7.08107e+57
          1958.22760	         6.73284e+57
          1959.03390	         7.52847e+57
          1959.84020	         7.41397e+57
          1960.64650	         6.41871e+57
          1961.45280	         6.42883e+57
          1962.25910	         6.41623e+57
          1963.06540	         6.62954e+57
          1963.87170	         6.07340e+57
          1964.67800	         7.23631e+57
          1965.48430	         5.96395e+57
          1966.29060	         6.54243e+57
          1967.09690	         7.84071e+57
          1967.90320	         6.91814e+57
          1968.70950	         6.55025e+57
          1969.51580	         5.25657e+57
          1970.32210	         6.91325e+57
          1971.12840	         6.44952e+57
          1971.93470	         4.62608e+57
          1972.74100	         5.16503e+57
          1973.54730	         6.76810e+57
          1974.35360	         8.04678e+57
          1975.15990	         7.99740e+57
          1975.96620	         7.46635e+57
          1976.77250	         8.76784e+57
          1977.57880	         8.28818e+57
          1978.38510	         6.40447e+57
          1979.19140	         7.10124e+57
          1979.99770	         7.58077e+57
          1980.80400	         7.74874e+57
          1981.61030	         5.77559e+57
          1982.41660	         5.99114e+57
          1983.22290	         6.28060e+57
          1984.02920	         5.35430e+57
          1984.83550	         5.16044e+57
          1985.64180	         6.91744e+57
          1986.44810	         7.29599e+57
          1987.25440	         6.05611e+57
          1988.06070	         5.50252e+57
          1988.86700	         6.49296e+57
          1989.67330	         7.52588e+57
          1990.47960	         6.67056e+57
          1991.28590	         5.64681e+57
          1992.09220	         5.94618e+57
          1992.89850	         5.22773e+57
          1993.70480	         5.12514e+57
          1994.51110	         4.87449e+57
          1995.31740	         4.13215e+57
          1996.12370	         4.40655e+57
          1996.93000	         6.54040e+57
          1997.73630	         6.99723e+57
          1998.54260	         7.32656e+57
          1999.34890	         7.23583e+57
          2000.15520	         7.80526e+57
          2000.96150	         7.41556e+57
          2001.76780	         6.61521e+57
          2002.57410	         5.50452e+57
          2003.38040	         5.96977e+57
          2004.18670	         6.89477e+57
          2004.99300	         7.86598e+57
          2005.79930	         7.59262e+57
          2006.60560	         7.15326e+57
          2007.41190	         6.16693e+57
          2008.21820	         6.94096e+57
          2009.02450	         7.34409e+57
          2009.83080	         6.51272e+57
          2010.63710	         5.86744e+57
          2011.44340	         7.24355e+57
          2012.24970	         7.38653e+57
          2013.05600	         6.25666e+57
          2013.86230	         5.65146e+57
          2014.66860	         5.68636e+57
          2015.47490	         6.26204e+57
          2016.28120	         6.66497e+57
          2017.08750	         6.11088e+57
          2017.89380	         5.91170e+57
          2018.70010	         5.75801e+57
          2019.50640	         6.70839e+57
          2020.31270	         6.29908e+57
          2021.11900	         6.96393e+57
          2021.92530	         7.47606e+57
          2022.73160	         8.43113e+57
          2023.53790	         7.83961e+57
          2024.34420	         6.37301e+57
          2025.15050	         5.97509e+57
          2025.95680	         5.42787e+57
          2026.76310	         6.20140e+57
          2027.56940	         5.81863e+57
          2028.37570	         5.83433e+57
          2029.18200	         6.34071e+57
          2029.98830	         5.01048e+57
          2030.79460	         6.13670e+57
          2031.60090	         6.79489e+57
          2032.40720	         6.13112e+57
          2033.21350	         5.59275e+57
          2034.01980	         4.79906e+57
          2034.82610	         4.20278e+57
          2035.63240	         5.40915e+57
          2036.43870	         5.55476e+57
          2037.24500	         6.65133e+57
          2038.05130	         8.57740e+57
          2038.85760	         7.37084e+57
          2039.66390	         6.12346e+57
          2040.47020	         5.51450e+57
          2041.27650	         7.11185e+57
          2042.08280	         5.80723e+57
          2042.88910	         6.27900e+57
          2043.69540	         7.11569e+57
          2044.50170	         7.12762e+57
          2045.30800	         6.55733e+57
          2046.11430	         5.73961e+57
          2046.92060	         5.98846e+57
          2047.72690	         5.82530e+57
          2048.53320	         5.29002e+57
          2049.33950	         5.02624e+57
          2050.14580	         5.27702e+57
          2050.95210	         6.88602e+57
          2051.75840	         8.03808e+57
          2052.56470	         4.82822e+57
          2053.37100	         3.84279e+57
          2054.17730	         4.94105e+57
          2054.98360	         5.06017e+57
          2055.78990	         4.00525e+57
          2056.59620	         3.15164e+57
          2057.40250	         4.62254e+57
          2058.20880	         7.42676e+57
          2059.01510	         6.38893e+57
          2059.82140	         6.54349e+57
          2060.62770	         1.07691e+58
          2061.43400	         1.68755e+58
          2062.24030	         1.15785e+58
          2063.04660	         5.59295e+57
          2063.85290	         3.18700e+57
          2064.65920	        -2.16133e+57
          2065.46550	        -8.07101e+57
          2066.27180	        -9.89531e+57
          2067.07810	         2.10371e+57
          2067.88440	         5.62605e+57
          2068.69070	         7.15782e+57
          2069.49700	         4.87925e+57
          2070.30330	         2.74832e+57
          2071.10960	         6.51350e+57
          2071.91590	         7.91464e+57
          2072.72220	         5.30890e+57
          2073.52850	         4.18818e+57
          2074.33480	         5.17777e+57
          2075.14110	         5.05560e+57
          2075.94740	         2.86262e+57
          2076.75370	         5.15012e+57
          2077.56000	         4.22388e+57
          2078.36630	         4.80669e+57
          2079.17260	         4.75965e+57
          2079.97890	         5.35110e+57
          2080.78520	         5.02123e+57
          2081.59150	         4.57784e+57
          2082.39780	         4.00505e+57
          2083.20410	         3.13304e+57
          2084.01040	         3.17107e+57
          2084.81670	         4.25289e+57
          2085.62300	         2.77889e+57
          2086.42930	         2.76942e+57
          2087.23560	         3.67038e+57
          2088.04190	         3.53552e+57
          2088.84820	         5.07098e+57
          2089.65450	         4.25702e+57
          2090.46080	         1.50657e+57
          2091.26710	         9.16601e+56
          2092.07340	         2.27264e+57
          2092.87970	         4.00262e+57
          2093.68600	        -1.06360e+57
          2094.49230	         3.52414e+56
          2095.29860	         4.71762e+57
          2096.10490	         2.94782e+57
          2096.91120	        -1.27574e+56
          2097.71750	         2.12228e+57
          2098.52380	        -4.54412e+55
          2099.33010	         9.46385e+56
          2100.13640	         6.45969e+56
          2100.94270	         3.14982e+57
          2101.74900	         4.50831e+57
          2102.55530	         2.73705e+57
          2103.36160	         2.85965e+57
          2104.16790	         5.47817e+57
          2104.97420	         5.33554e+57
          2105.78050	         2.40161e+57
          2106.58680	         1.63612e+57
          2107.39310	        -1.89187e+57
          2108.19940	         6.78103e+56
          2109.00570	         2.75363e+57
          2109.81200	         3.08633e+57
          2110.61830	         6.69049e+56
          2111.42460	         5.45451e+56
          2112.23090	         1.08021e+57
          2113.03720	        -1.25012e+57
          2113.84350	        -1.25650e+57
          2114.64980	         4.43738e+57
          2115.45610	        -1.96701e+56
          2116.26240	        -4.36120e+57
          2117.06870	        -2.36323e+57
          2117.87500	        -2.46723e+57
          2118.68130	         8.70699e+56
          2119.48760	         2.98073e+57
          2120.29390	         1.78020e+57
          2121.10020	        -4.49758e+57
          2121.90650	        -5.08245e+57
          2122.71280	         5.32852e+57
          2123.51910	         3.23250e+57
          2124.32540	        -4.26821e+56
          2125.13170	        -8.22900e+56
          2125.93800	         1.66545e+57
          2126.74430	        -4.79112e+57
          2127.55060	        -8.09625e+57
          2128.35690	        -2.51704e+57
          2129.16320	        -1.90300e+57
          2129.96950	        -5.23427e+57
          2130.77580	        -9.92089e+56
          2131.58210	         4.90415e+57
          2132.38840	         1.79266e+56
          2133.19470	         4.61285e+57
          2134.00100	         9.29938e+56
          2134.80730	        -3.12762e+57
          2135.61360	        -3.96979e+57
          2136.41990	        -2.27500e+57
          2137.22620	         7.74291e+56
          2138.03250	         2.37257e+57
          2138.83880	        -1.44729e+57
          2139.64510	        -8.06136e+56
          2140.45140	        -4.94872e+57
          2141.25770	        -1.10297e+58
          2142.06400	        -7.08357e+57
          2142.87030	        -3.12195e+57
          2143.67660	         3.06532e+57
          2144.48290	         1.07437e+58
          2145.28920	         1.44869e+58
          2146.09550	        -9.59762e+57
          2146.90180	        -9.24492e+57
          2147.70810	        -9.23935e+57
          2148.51440	        -1.72036e+58
          2149.32070	        -1.05181e+58
          2150.12700	        -1.05124e+58
          2150.93330	        -4.38000e+57
          2151.73960	         4.19986e+57
          2152.54590	        -6.21361e+57
          2153.35220	        -8.53508e+57
          2154.15850	        -8.52219e+57
          2154.96480	        -9.89499e+56
          2155.77110	        -1.16767e+58
          2156.57740	        -1.14229e+58
          2157.38370	         1.67508e+57
          2158.19000	        -9.50896e+57
          2158.99630	        -1.49663e+58
          2159.80260	        -1.73590e+58
          2160.60890	        -7.97048e+57
          2161.41520	         6.81274e+56
          2162.22150	        -8.51815e+56
          2163.02780	        -4.45328e+57
          2163.83410	        -8.01677e+57
          2164.64040	        -7.47523e+57
          2165.44670	        -5.63163e+57
          2166.25300	        -8.09311e+57
          2167.05930	        -7.67110e+57
          2167.86560	        -1.26643e+58
          2168.67190	         3.47012e+56
          2169.47820	        -4.77377e+57
          2170.28450	        -5.14864e+57
          2171.09080	         3.92094e+56
          2171.89710	         9.96169e+56
          2172.70340	        -8.71919e+56
          2173.50970	        -6.84032e+57
          2174.31600	        -4.72545e+57
          2175.12230	        -2.98501e+57
          2175.92860	        -6.78070e+57
          2176.73490	        -1.28138e+58
          2177.54120	        -7.52434e+57
          2178.34750	        -5.55242e+56
          2179.15380	                 nan
          2179.96010	                 nan
          2180.76640	                 nan
          2181.57270	                 nan
          2182.37900	                 nan
          2183.18530	                 nan
          2183.99160	                 nan
          2184.79790	                 nan
          2185.60420	                 nan
          2186.41050	                 nan
          2187.21680	                 nan
          2188.02310	                 nan
          2188.82940	                 nan
          2189.63570	                 nan
          2190.44200	                 nan
          2191.24830	                 nan
          2192.05460	                 nan
          2192.86090	                 nan
          2193.66720	                 nan
          2194.47350	                 nan
          2195.27980	                 nan
          2196.08610	                 nan
          2196.89240	                 nan
          2197.69870	                 nan
          2198.50500	                 nan
          2199.31130	                 nan
          2200.11760	                 nan
          2200.92390	                 nan
          2201.73020	                 nan
          2202.53650	                 nan
          2203.34280	                 nan
          2204.14910	                 nan
          2204.95540	                 nan
          2205.76170	                 nan
          2206.56800	                 nan
          2207.37430	                 nan
          2208.18060	                 nan
          2208.98690	                 nan
          2209.79320	                 nan
          2210.59950	                 nan
          2211.40580	                 nan
          2212.21210	                 nan
          2213.01840	                 nan
          2213.82470	                 nan
          2214.63100	                 nan
          2215.43730	         0.00000e+00
