#sample_57_stacked_spectrum_rest_UV-bands_median_H-alpha_noDC.txt
#median Lum: 1.65332e+42
#Rest-frame wavelength (A) | Luminosity (erg/s/A)
#
          1110.00000	         0.00000e+00
          1110.80630	         4.44189e+59
          1111.61260	         3.69681e+59
          1112.41890	         1.22396e+59
          1113.22520	        -1.83103e+59
          1114.03150	        -2.80642e+59
          1114.83780	        -3.82911e+58
          1115.64410	         1.67323e+59
          1116.45040	         2.08401e+59
          1117.25670	         4.78758e+58
          1118.06300	         8.77222e+58
          1118.86930	        -1.41678e+58
          1119.67560	         1.89899e+59
          1120.48190	         8.89901e+58
          1121.28820	        -1.04573e+59
          1122.09450	         1.82579e+58
          1122.90080	         5.41034e+58
          1123.70710	         8.91263e+58
          1124.51340	         1.50074e+59
          1125.31970	        -1.90643e+58
          1126.12600	         4.71776e+58
          1126.93230	        -1.47785e+58
          1127.73860	        -6.54052e+58
          1128.54490	        -2.62622e+58
          1129.35120	        -3.42662e+58
          1130.15750	        -5.18971e+56
          1130.96380	        -2.77168e+58
          1131.77010	         6.14321e+58
          1132.57640	         1.49958e+58
          1133.38270	         3.17539e+58
          1134.18900	         2.67087e+57
          1134.99530	         1.02185e+57
          1135.80160	         2.54042e+58
          1136.60790	         3.14536e+58
          1137.41420	         1.92650e+58
          1138.22050	         4.20841e+58
          1139.02680	         1.05658e+58
          1139.83310	         1.96011e+58
          1140.63940	         1.16931e+58
          1141.44570	        -9.04984e+57
          1142.25200	         1.17514e+58
          1143.05830	         3.42765e+58
          1143.86460	         3.24329e+58
          1144.67090	         1.65283e+58
          1145.47720	         1.53440e+58
          1146.28350	         1.84577e+58
          1147.08980	         9.85265e+57
          1147.89610	         7.63701e+57
          1148.70240	         1.41329e+58
          1149.50870	         1.34048e+58
          1150.31500	         1.12935e+58
          1151.12130	         4.01361e+57
          1151.92760	        -1.14963e+57
          1152.73390	         1.01962e+58
          1153.54020	         8.20442e+57
          1154.34650	         2.97693e+58
          1155.15280	         1.50297e+58
          1155.95910	         9.71410e+57
          1156.76540	         1.93891e+58
          1157.57170	         2.70056e+56
          1158.37800	        -5.57698e+57
          1159.18430	        -4.70985e+57
          1159.99060	         5.29485e+57
          1160.79690	         3.86118e+57
          1161.60320	         1.03330e+58
          1162.40950	         1.57968e+58
          1163.21580	         1.85071e+58
          1164.02210	         1.32969e+58
          1164.82840	         6.15250e+57
          1165.63470	         2.48753e+58
          1166.44100	         3.77123e+58
          1167.24730	         2.11675e+58
          1168.05360	         1.46318e+58
          1168.85990	         8.14403e+57
          1169.66620	         9.60991e+57
          1170.47250	         1.22507e+58
          1171.27880	         6.92412e+57
          1172.08510	         1.73874e+58
          1172.89140	         2.16774e+58
          1173.69770	         9.69559e+57
          1174.50400	         9.85587e+57
          1175.31030	         1.43539e+58
          1176.11660	         1.90660e+58
          1176.92290	         1.78151e+58
          1177.72920	         1.44912e+58
          1178.53550	         1.33226e+58
          1179.34180	         5.93735e+57
          1180.14810	         9.22977e+57
          1180.95440	         9.43210e+57
          1181.76070	         4.53269e+57
          1182.56700	         9.13853e+57
          1183.37330	         7.07244e+57
          1184.17960	         1.19080e+58
          1184.98590	         1.56419e+58
          1185.79220	         9.59130e+57
          1186.59850	         1.24348e+58
          1187.40480	         1.19323e+58
          1188.21110	         1.11804e+58
          1189.01740	         1.15840e+58
          1189.82370	         8.26165e+57
          1190.63000	         1.05414e+58
          1191.43630	         1.62713e+58
          1192.24260	         7.14259e+57
          1193.04890	         1.20084e+58
          1193.85520	         1.28380e+58
          1194.66150	         4.29462e+57
          1195.46780	         6.68617e+57
          1196.27410	         1.38123e+58
          1197.08040	         1.18157e+58
          1197.88670	         1.17780e+58
          1198.69300	         1.26614e+58
          1199.49930	         1.32044e+58
          1200.30560	         1.37699e+58
          1201.11190	         1.56946e+58
          1201.91820	         1.12192e+58
          1202.72450	         6.10153e+57
          1203.53080	         1.32820e+58
          1204.33710	         9.89201e+57
          1205.14340	         6.83248e+57
          1205.94970	         4.29244e+57
          1206.75600	         7.67399e+57
          1207.56230	         6.35824e+57
          1208.36860	         1.10224e+58
          1209.17490	         6.30506e+57
          1209.98120	         7.51181e+57
          1210.78750	         1.09844e+58
          1211.59380	         1.24300e+58
          1212.40010	         1.77818e+58
          1213.20640	         1.76643e+58
          1214.01270	         2.03101e+58
          1214.81900	         2.37984e+58
          1215.62530	         3.89810e+58
          1216.43160	         8.56671e+58
          1217.23790	         1.50192e+59
          1218.04420	         1.10954e+59
          1218.85050	         8.24183e+58
          1219.65680	         5.46654e+58
          1220.46310	         3.13675e+58
          1221.26940	         2.25663e+58
          1222.07570	         1.46523e+58
          1222.88200	         8.89815e+57
          1223.68830	         1.05159e+58
          1224.49460	         9.03812e+57
          1225.30090	         6.05535e+57
          1226.10720	         7.76854e+57
          1226.91350	         1.03005e+58
          1227.71980	         1.11445e+58
          1228.52610	         1.09909e+58
          1229.33240	         4.84381e+57
          1230.13870	         6.86163e+57
          1230.94500	         9.35480e+57
          1231.75130	         5.58322e+57
          1232.55760	         8.31885e+57
          1233.36390	         8.07570e+57
          1234.17020	         6.85105e+57
          1234.97650	         9.55412e+57
          1235.78280	         9.92959e+57
          1236.58910	         1.03995e+58
          1237.39540	         1.06207e+58
          1238.20170	         8.91400e+57
          1239.00800	         1.17496e+58
          1239.81430	         1.53273e+58
          1240.62060	         1.21651e+58
          1241.42690	         9.71222e+57
          1242.23320	         1.15036e+58
          1243.03950	         7.30097e+57
          1243.84580	         9.57479e+57
          1244.65210	         1.07221e+58
          1245.45840	         8.99118e+57
          1246.26470	         1.04119e+58
          1247.07100	         9.01835e+57
          1247.87730	         6.72655e+57
          1248.68360	         5.51999e+57
          1249.48990	         3.58326e+57
          1250.29620	         6.68267e+57
          1251.10250	         7.91501e+57
          1251.90880	         8.24784e+57
          1252.71510	         5.01059e+57
          1253.52140	         3.15519e+57
          1254.32770	         9.06239e+57
          1255.13400	         1.36189e+58
          1255.94030	         1.11794e+58
          1256.74660	         9.41667e+57
          1257.55290	         1.18096e+58
          1258.35920	         1.07422e+58
          1259.16550	         7.95019e+57
          1259.97180	         5.28794e+57
          1260.77810	         7.70675e+57
          1261.58440	         9.40000e+57
          1262.39070	         7.40351e+57
          1263.19700	         7.72811e+57
          1264.00330	         8.05924e+57
          1264.80960	         9.69784e+57
          1265.61590	         1.16323e+58
          1266.42220	         1.14514e+58
          1267.22850	         9.58965e+57
          1268.03480	         1.11698e+58
          1268.84110	         1.29240e+58
          1269.64740	         1.20740e+58
          1270.45370	         1.34330e+58
          1271.26000	         1.27321e+58
          1272.06630	         1.34644e+58
          1272.87260	         1.08440e+58
          1273.67890	         1.09365e+58
          1274.48520	         1.14774e+58
          1275.29150	         1.20926e+58
          1276.09780	         1.24420e+58
          1276.90410	         1.22616e+58
          1277.71040	         1.22935e+58
          1278.51670	         1.11826e+58
          1279.32300	         1.14406e+58
          1280.12930	         1.14001e+58
          1280.93560	         1.14489e+58
          1281.74190	         1.22943e+58
          1282.54820	         1.18374e+58
          1283.35450	         1.19428e+58
          1284.16080	         9.91852e+57
          1284.96710	         1.23321e+58
          1285.77340	         1.02712e+58
          1286.57970	         6.99429e+57
          1287.38600	         1.22091e+58
          1288.19230	         1.65789e+58
          1288.99860	         1.55427e+58
          1289.80490	         1.17855e+58
          1290.61120	         1.27532e+58
          1291.41750	         1.17507e+58
          1292.22380	         1.08314e+58
          1293.03010	         1.11271e+58
          1293.83640	         1.14142e+58
          1294.64270	         7.64112e+57
          1295.44900	         5.14666e+57
          1296.25530	         7.66934e+57
          1297.06160	         9.17338e+57
          1297.86790	         9.96329e+57
          1298.67420	         8.92663e+57
          1299.48050	         7.59265e+57
          1300.28680	         8.48241e+57
          1301.09310	         7.47861e+57
          1301.89940	         4.30808e+57
          1302.70570	         5.84532e+57
          1303.51200	         8.04542e+57
          1304.31830	         1.06194e+58
          1305.12460	         1.13022e+58
          1305.93090	         1.16435e+58
          1306.73720	         1.28372e+58
          1307.54350	         1.47028e+58
          1308.34980	         1.39781e+58
          1309.15610	         1.43548e+58
          1309.96240	         1.47308e+58
          1310.76870	         1.19010e+58
          1311.57500	         1.18154e+58
          1312.38130	         1.17699e+58
          1313.18760	         1.19899e+58
          1313.99390	         1.40022e+58
          1314.80020	         1.53305e+58
          1315.60650	         1.54681e+58
          1316.41280	         1.17944e+58
          1317.21910	         1.06966e+58
          1318.02540	         1.23525e+58
          1318.83170	         1.48230e+58
          1319.63800	         1.24975e+58
          1320.44430	         1.01306e+58
          1321.25060	         1.15802e+58
          1322.05690	         1.24481e+58
          1322.86320	         1.28835e+58
          1323.66950	         1.16758e+58
          1324.47580	         9.32688e+57
          1325.28210	         1.06928e+58
          1326.08840	         1.13578e+58
          1326.89470	         9.38106e+57
          1327.70100	         7.42835e+57
          1328.50730	         7.83766e+57
          1329.31360	         1.06703e+58
          1330.11990	         1.01461e+58
          1330.92620	         7.38614e+57
          1331.73250	         9.76238e+57
          1332.53880	         1.00981e+58
          1333.34510	         8.34116e+57
          1334.15140	         7.58995e+57
          1334.95770	         7.51782e+57
          1335.76400	         9.66193e+57
          1336.57030	         9.93975e+57
          1337.37660	         9.94415e+57
          1338.18290	         1.06218e+58
          1338.98920	         1.09219e+58
          1339.79550	         1.03699e+58
          1340.60180	         1.11636e+58
          1341.40810	         1.48372e+58
          1342.21440	         1.24109e+58
          1343.02070	         1.26801e+58
          1343.82700	         1.44083e+58
          1344.63330	         1.32145e+58
          1345.43960	         1.43923e+58
          1346.24590	         1.17752e+58
          1347.05220	         1.13781e+58
          1347.85850	         1.14044e+58
          1348.66480	         1.08425e+58
          1349.47110	         1.28826e+58
          1350.27740	         1.21605e+58
          1351.08370	         1.05102e+58
          1351.89000	         1.01993e+58
          1352.69630	         1.16533e+58
          1353.50260	         1.28126e+58
          1354.30890	         1.21159e+58
          1355.11520	         1.19084e+58
          1355.92150	         1.07159e+58
          1356.72780	         9.27765e+57
          1357.53410	         1.07559e+58
          1358.34040	         1.19352e+58
          1359.14670	         1.06871e+58
          1359.95300	         1.00444e+58
          1360.75930	         1.04060e+58
          1361.56560	         1.03105e+58
          1362.37190	         1.03551e+58
          1363.17820	         1.18487e+58
          1363.98450	         1.31890e+58
          1364.79080	         1.31876e+58
          1365.59710	         1.31278e+58
          1366.40340	         1.22349e+58
          1367.20970	         1.09399e+58
          1368.01600	         9.58511e+57
          1368.82230	         9.10250e+57
          1369.62860	         1.09719e+58
          1370.43490	         9.94907e+57
          1371.24120	         7.91734e+57
          1372.04750	         7.10037e+57
          1372.85380	         8.76589e+57
          1373.66010	         1.01459e+58
          1374.46640	         1.06832e+58
          1375.27270	         1.12856e+58
          1376.07900	         9.19319e+57
          1376.88530	         9.31278e+57
          1377.69160	         8.78377e+57
          1378.49790	         8.05101e+57
          1379.30420	         8.81323e+57
          1380.11050	         9.65798e+57
          1380.91680	         8.41435e+57
          1381.72310	         7.80641e+57
          1382.52940	         7.06459e+57
          1383.33570	         6.59781e+57
          1384.14200	         8.25795e+57
          1384.94830	         9.88427e+57
          1385.75460	         1.05027e+58
          1386.56090	         1.19589e+58
          1387.36720	         1.19073e+58
          1388.17350	         1.26210e+58
          1388.97980	         9.91965e+57
          1389.78610	         9.44487e+57
          1390.59240	         9.08741e+57
          1391.39870	         8.27242e+57
          1392.20500	         7.58693e+57
          1393.01130	         7.43765e+57
          1393.81760	         7.89080e+57
          1394.62390	         6.77292e+57
          1395.43020	         5.99654e+57
          1396.23650	         6.10987e+57
          1397.04280	         7.24174e+57
          1397.84910	         8.50204e+57
          1398.65540	         8.51742e+57
          1399.46170	         9.69150e+57
          1400.26800	         8.75085e+57
          1401.07430	         7.80897e+57
          1401.88060	         8.58041e+57
          1402.68690	         9.17357e+57
          1403.49320	         9.04140e+57
          1404.29950	         9.24587e+57
          1405.10580	         9.44459e+57
          1405.91210	         9.96469e+57
          1406.71840	         1.03328e+58
          1407.52470	         1.00981e+58
          1408.33100	         9.12579e+57
          1409.13730	         1.00081e+58
          1409.94360	         1.09654e+58
          1410.74990	         1.10474e+58
          1411.55620	         1.02687e+58
          1412.36250	         7.82329e+57
          1413.16880	         7.33187e+57
          1413.97510	         7.49517e+57
          1414.78140	         7.26366e+57
          1415.58770	         1.03277e+58
          1416.39400	         1.27140e+58
          1417.20030	         1.10405e+58
          1418.00660	         9.59854e+57
          1418.81290	         1.09084e+58
          1419.61920	         1.16449e+58
          1420.42550	         1.30883e+58
          1421.23180	         1.35080e+58
          1422.03810	         1.31762e+58
          1422.84440	         1.22207e+58
          1423.65070	         1.23857e+58
          1424.45700	         1.04712e+58
          1425.26330	         8.02608e+57
          1426.06960	         8.36254e+57
          1426.87590	         9.89543e+57
          1427.68220	         9.84095e+57
          1428.48850	         1.12879e+58
          1429.29480	         1.16923e+58
          1430.10110	         1.16257e+58
          1430.90740	         8.67166e+57
          1431.71370	         7.44017e+57
          1432.52000	         8.18319e+57
          1433.32630	         7.66859e+57
          1434.13260	         7.52029e+57
          1434.93890	         8.40492e+57
          1435.74520	         8.63360e+57
          1436.55150	         8.61996e+57
          1437.35780	         8.57745e+57
          1438.16410	         9.34415e+57
          1438.97040	         9.48483e+57
          1439.77670	         8.65005e+57
          1440.58300	         9.34566e+57
          1441.38930	         9.93633e+57
          1442.19560	         1.01875e+58
          1443.00190	         9.97101e+57
          1443.80820	         1.13376e+58
          1444.61450	         9.91181e+57
          1445.42080	         7.81078e+57
          1446.22710	         9.89987e+57
          1447.03340	         1.03783e+58
          1447.83970	         1.05648e+58
          1448.64600	         1.15587e+58
          1449.45230	         1.02651e+58
          1450.25860	         9.58907e+57
          1451.06490	         9.50367e+57
          1451.87120	         8.23075e+57
          1452.67750	         6.85419e+57
          1453.48380	         7.77164e+57
          1454.29010	         7.80250e+57
          1455.09640	         8.03391e+57
          1455.90270	         9.31656e+57
          1456.70900	         9.07861e+57
          1457.51530	         9.19061e+57
          1458.32160	         1.09053e+58
          1459.12790	         1.10595e+58
          1459.93420	         9.66338e+57
          1460.74050	         7.93923e+57
          1461.54680	         8.69701e+57
          1462.35310	         8.22446e+57
          1463.15940	         9.03632e+57
          1463.96570	         9.71051e+57
          1464.77200	         1.03736e+58
          1465.57830	         1.03147e+58
          1466.38460	         9.83229e+57
          1467.19090	         8.53860e+57
          1467.99720	         8.76013e+57
          1468.80350	         8.85001e+57
          1469.60980	         9.72269e+57
          1470.41610	         1.13386e+58
          1471.22240	         9.81131e+57
          1472.02870	         1.00600e+58
          1472.83500	         9.49350e+57
          1473.64130	         9.50216e+57
          1474.44760	         9.40130e+57
          1475.25390	         8.46780e+57
          1476.06020	         8.00617e+57
          1476.86650	         8.71265e+57
          1477.67280	         8.44729e+57
          1478.47910	         7.01599e+57
          1479.28540	         6.80996e+57
          1480.09170	         8.16591e+57
          1480.89800	         8.97208e+57
          1481.70430	         1.02295e+58
          1482.51060	         8.80250e+57
          1483.31690	         6.91324e+57
          1484.12320	         6.79696e+57
          1484.92950	         6.96963e+57
          1485.73580	         8.16713e+57
          1486.54210	         8.72854e+57
          1487.34840	         8.96972e+57
          1488.15470	         8.21399e+57
          1488.96100	         8.19401e+57
          1489.76730	         8.44779e+57
          1490.57360	         7.85637e+57
          1491.37990	         8.02251e+57
          1492.18620	         9.52310e+57
          1492.99250	         9.56714e+57
          1493.79880	         8.72028e+57
          1494.60510	         8.30583e+57
          1495.41140	         7.02948e+57
          1496.21770	         7.86947e+57
          1497.02400	         9.31332e+57
          1497.83030	         8.95970e+57
          1498.63660	         7.95209e+57
          1499.44290	         7.64355e+57
          1500.24920	         7.02451e+57
          1501.05550	         7.54487e+57
          1501.86180	         8.33056e+57
          1502.66810	         1.00570e+58
          1503.47440	         9.69880e+57
          1504.28070	         8.28434e+57
          1505.08700	         9.21935e+57
          1505.89330	         9.25476e+57
          1506.69960	         9.04929e+57
          1507.50590	         8.84101e+57
          1508.31220	         8.35804e+57
          1509.11850	         7.65234e+57
          1509.92480	         8.67579e+57
          1510.73110	         8.41153e+57
          1511.53740	         6.60751e+57
          1512.34370	         6.80462e+57
          1513.15000	         9.17378e+57
          1513.95630	         1.08071e+58
          1514.76260	         9.29511e+57
          1515.56890	         7.27939e+57
          1516.37520	         7.68920e+57
          1517.18150	         7.53501e+57
          1517.98780	         7.27338e+57
          1518.79410	         7.29656e+57
          1519.60040	         8.17570e+57
          1520.40670	         9.36243e+57
          1521.21300	         8.70759e+57
          1522.01930	         7.43357e+57
          1522.82560	         8.29502e+57
          1523.63190	         9.56777e+57
          1524.43820	         8.44029e+57
          1525.24450	         6.34105e+57
          1526.05080	         6.09275e+57
          1526.85710	         6.04954e+57
          1527.66340	         6.22907e+57
          1528.46970	         8.28331e+57
          1529.27600	         8.06325e+57
          1530.08230	         7.64511e+57
          1530.88860	         6.94830e+57
          1531.69490	         7.34246e+57
          1532.50120	         7.88110e+57
          1533.30750	         8.62023e+57
          1534.11380	         8.97852e+57
          1534.92010	         8.60276e+57
          1535.72640	         8.55908e+57
          1536.53270	         8.88934e+57
          1537.33900	         8.60985e+57
          1538.14530	         8.68975e+57
          1538.95160	         9.42690e+57
          1539.75790	         9.53842e+57
          1540.56420	         8.24554e+57
          1541.37050	         7.86355e+57
          1542.17680	         6.94641e+57
          1542.98310	         6.80918e+57
          1543.78940	         6.84940e+57
          1544.59570	         4.97973e+57
          1545.40200	         7.35790e+57
          1546.20830	         9.45032e+57
          1547.01460	         1.02676e+58
          1547.82090	         1.03226e+58
          1548.62720	         1.18607e+58
          1549.43350	         1.21369e+58
          1550.23980	         1.07170e+58
          1551.04610	         1.14583e+58
          1551.85240	         1.18945e+58
          1552.65870	         1.09798e+58
          1553.46500	         1.00773e+58
          1554.27130	         9.36996e+57
          1555.07760	         8.79947e+57
          1555.88390	         8.30583e+57
          1556.69020	         8.84185e+57
          1557.49650	         8.64702e+57
          1558.30280	         8.26869e+57
          1559.10910	         8.52155e+57
          1559.91540	         8.35900e+57
          1560.72170	         7.78844e+57
          1561.52800	         7.59894e+57
          1562.33430	         7.63111e+57
          1563.14060	         7.40687e+57
          1563.94690	         7.46252e+57
          1564.75320	         6.83223e+57
          1565.55950	         6.71048e+57
          1566.36580	         7.56255e+57
          1567.17210	         8.74868e+57
          1567.97840	         9.81018e+57
          1568.78470	         9.29385e+57
          1569.59100	         8.87134e+57
          1570.39730	         7.53757e+57
          1571.20360	         6.54344e+57
          1572.00990	         7.94087e+57
          1572.81620	         8.64332e+57
          1573.62250	         8.78365e+57
          1574.42880	         8.32014e+57
          1575.23510	         8.16325e+57
          1576.04140	         9.18775e+57
          1576.84770	         9.01206e+57
          1577.65400	         8.89400e+57
          1578.46030	         1.03061e+58
          1579.26660	         1.10448e+58
          1580.07290	         9.98863e+57
          1580.87920	         8.39361e+57
          1581.68550	         7.29981e+57
          1582.49180	         7.56503e+57
          1583.29810	         7.31742e+57
          1584.10440	         7.83973e+57
          1584.91070	         8.43533e+57
          1585.71700	         8.96482e+57
          1586.52330	         9.42330e+57
          1587.32960	         8.99272e+57
          1588.13590	         9.34859e+57
          1588.94220	         8.61125e+57
          1589.74850	         7.13280e+57
          1590.55480	         7.95887e+57
          1591.36110	         7.72149e+57
          1592.16740	         7.79847e+57
          1592.97370	         7.95215e+57
          1593.78000	         8.91837e+57
          1594.58630	         9.34126e+57
          1595.39260	         8.48628e+57
          1596.19890	         8.44426e+57
          1597.00520	         9.14888e+57
          1597.81150	         8.98888e+57
          1598.61780	         7.28800e+57
          1599.42410	         7.13722e+57
          1600.23040	         7.35366e+57
          1601.03670	         8.18757e+57
          1601.84300	         7.50942e+57
          1602.64930	         8.08294e+57
          1603.45560	         9.36290e+57
          1604.26190	         8.22184e+57
          1605.06820	         7.03302e+57
          1605.87450	         6.92010e+57
          1606.68080	         7.37688e+57
          1607.48710	         6.29750e+57
          1608.29340	         5.68199e+57
          1609.09970	         6.83012e+57
          1609.90600	         6.97650e+57
          1610.71230	         6.49691e+57
          1611.51860	         7.58624e+57
          1612.32490	         7.40791e+57
          1613.13120	         7.37583e+57
          1613.93750	         7.47600e+57
          1614.74380	         7.86545e+57
          1615.55010	         8.25991e+57
          1616.35640	         9.36401e+57
          1617.16270	         1.00033e+58
          1617.96900	         1.00391e+58
          1618.77530	         8.43999e+57
          1619.58160	         8.16532e+57
          1620.38790	         8.10976e+57
          1621.19420	         8.90888e+57
          1622.00050	         7.76505e+57
          1622.80680	         8.18132e+57
          1623.61310	         8.24254e+57
          1624.41940	         7.96549e+57
          1625.22570	         9.21056e+57
          1626.03200	         9.80434e+57
          1626.83830	         8.64269e+57
          1627.64460	         7.99593e+57
          1628.45090	         7.48523e+57
          1629.25720	         8.57734e+57
          1630.06350	         9.05517e+57
          1630.86980	         6.53339e+57
          1631.67610	         6.43507e+57
          1632.48240	         7.89777e+57
          1633.28870	         8.29975e+57
          1634.09500	         8.92258e+57
          1634.90130	         1.04612e+58
          1635.70760	         9.66804e+57
          1636.51390	         8.38124e+57
          1637.32020	         8.14358e+57
          1638.12650	         8.91688e+57
          1638.93280	         9.19887e+57
          1639.73910	         9.82748e+57
          1640.54540	         9.94547e+57
          1641.35170	         9.10674e+57
          1642.15800	         9.49510e+57
          1642.96430	         9.97624e+57
          1643.77060	         8.63613e+57
          1644.57690	         6.91060e+57
          1645.38320	         6.61366e+57
          1646.18950	         6.68623e+57
          1646.99580	         8.61128e+57
          1647.80210	         7.80273e+57
          1648.60840	         6.97448e+57
          1649.41470	         7.42952e+57
          1650.22100	         7.43445e+57
          1651.02730	         7.49928e+57
          1651.83360	         7.35518e+57
          1652.63990	         7.92582e+57
          1653.44620	         8.64974e+57
          1654.25250	         7.98707e+57
          1655.05880	         7.95003e+57
          1655.86510	         8.40362e+57
          1656.67140	         8.77574e+57
          1657.47770	         8.72064e+57
          1658.28400	         8.72835e+57
          1659.09030	         9.26991e+57
          1659.89660	         9.28374e+57
          1660.70290	         9.63732e+57
          1661.50920	         9.46769e+57
          1662.31550	         8.75214e+57
          1663.12180	         8.99416e+57
          1663.92810	         9.80955e+57
          1664.73440	         1.06518e+58
          1665.54070	         1.12767e+58
          1666.34700	         1.20143e+58
          1667.15330	         1.16653e+58
          1667.95960	         9.20338e+57
          1668.76590	         7.91333e+57
          1669.57220	         7.48033e+57
          1670.37850	         7.19656e+57
          1671.18480	         7.40046e+57
          1671.99110	         7.08876e+57
          1672.79740	         6.74199e+57
          1673.60370	         5.98939e+57
          1674.41000	         7.42625e+57
          1675.21630	         8.53797e+57
          1676.02260	         6.62333e+57
          1676.82890	         6.78110e+57
          1677.63520	         6.69116e+57
          1678.44150	         6.91509e+57
          1679.24780	         8.66147e+57
          1680.05410	         7.27879e+57
          1680.86040	         5.41087e+57
          1681.66670	         7.19799e+57
          1682.47300	         8.20050e+57
          1683.27930	         8.15586e+57
          1684.08560	         9.19666e+57
          1684.89190	         8.41184e+57
          1685.69820	         4.94653e+57
          1686.50450	         5.34939e+57
          1687.31080	         5.47555e+57
          1688.11710	         6.23807e+57
          1688.92340	         5.73099e+57
          1689.72970	         5.66006e+57
          1690.53600	         5.90504e+57
          1691.34230	         7.01857e+57
          1692.14860	         7.69584e+57
          1692.95490	         7.09053e+57
          1693.76120	         6.53608e+57
          1694.56750	         6.34576e+57
          1695.37380	         7.99192e+57
          1696.18010	         8.30473e+57
          1696.98640	         7.74534e+57
          1697.79270	         7.82882e+57
          1698.59900	         7.71952e+57
          1699.40530	         6.99411e+57
          1700.21160	         7.50984e+57
          1701.01790	         8.78095e+57
          1701.82420	         7.80709e+57
          1702.63050	         7.68797e+57
          1703.43680	         8.82490e+57
          1704.24310	         8.90013e+57
          1705.04940	         8.23399e+57
          1705.85570	         7.70682e+57
          1706.66200	         8.54165e+57
          1707.46830	         8.83086e+57
          1708.27460	         7.71681e+57
          1709.08090	         6.05457e+57
          1709.88720	         5.06221e+57
          1710.69350	         5.44608e+57
          1711.49980	         6.81836e+57
          1712.30610	         7.74003e+57
          1713.11240	         8.69310e+57
          1713.91870	         8.07920e+57
          1714.72500	         8.74163e+57
          1715.53130	         9.09908e+57
          1716.33760	         7.48425e+57
          1717.14390	         7.00244e+57
          1717.95020	         8.48212e+57
          1718.75650	         9.36134e+57
          1719.56280	         8.52494e+57
          1720.36910	         6.57231e+57
          1721.17540	         6.28032e+57
          1721.98170	         6.39874e+57
          1722.78800	         7.04247e+57
          1723.59430	         6.96779e+57
          1724.40060	         7.69538e+57
          1725.20690	         8.13971e+57
          1726.01320	         8.42528e+57
          1726.81950	         8.68940e+57
          1727.62580	         7.55786e+57
          1728.43210	         6.86117e+57
          1729.23840	         7.86347e+57
          1730.04470	         8.64408e+57
          1730.85100	         7.92020e+57
          1731.65730	         7.23587e+57
          1732.46360	         7.28913e+57
          1733.26990	         6.96289e+57
          1734.07620	         6.35864e+57
          1734.88250	         6.46628e+57
          1735.68880	         7.02767e+57
          1736.49510	         8.02794e+57
          1737.30140	         7.03991e+57
          1738.10770	         5.50463e+57
          1738.91400	         6.68926e+57
          1739.72030	         6.94969e+57
          1740.52660	         4.89715e+57
          1741.33290	         5.01975e+57
          1742.13920	         6.11787e+57
          1742.94550	         6.64642e+57
          1743.75180	         7.47564e+57
          1744.55810	         7.94160e+57
          1745.36440	         7.35648e+57
          1746.17070	         5.59004e+57
          1746.97700	         4.58693e+57
          1747.78330	         6.30689e+57
          1748.58960	         5.96669e+57
          1749.39590	         5.89994e+57
          1750.20220	         6.00935e+57
          1751.00850	         5.07107e+57
          1751.81480	         5.29006e+57
          1752.62110	         7.02611e+57
          1753.42740	         8.59277e+57
          1754.23370	         6.98599e+57
          1755.04000	         6.90571e+57
          1755.84630	         7.76597e+57
          1756.65260	         7.67033e+57
          1757.45890	         8.41851e+57
          1758.26520	         8.27749e+57
          1759.07150	         8.41359e+57
          1759.87780	         6.53918e+57
          1760.68410	         6.64502e+57
          1761.49040	         8.45968e+57
          1762.29670	         6.49239e+57
          1763.10300	         6.92240e+57
          1763.90930	         7.68895e+57
          1764.71560	         7.65298e+57
          1765.52190	         7.48799e+57
          1766.32820	         8.79407e+57
          1767.13450	         8.49002e+57
          1767.94080	         6.61533e+57
          1768.74710	         7.23909e+57
          1769.55340	         6.67851e+57
          1770.35970	         5.91642e+57
          1771.16600	         7.15861e+57
          1771.97230	         7.42801e+57
          1772.77860	         7.05788e+57
          1773.58490	         6.10793e+57
          1774.39120	         5.65719e+57
          1775.19750	         5.78248e+57
          1776.00380	         5.99391e+57
          1776.81010	         7.17917e+57
          1777.61640	         6.93801e+57
          1778.42270	         6.58320e+57
          1779.22900	         6.94474e+57
          1780.03530	         7.08186e+57
          1780.84160	         7.58448e+57
          1781.64790	         8.58001e+57
          1782.45420	         8.43335e+57
          1783.26050	         6.98096e+57
          1784.06680	         6.22235e+57
          1784.87310	         6.50426e+57
          1785.67940	         6.36858e+57
          1786.48570	         6.02310e+57
          1787.29200	         5.75367e+57
          1788.09830	         5.95401e+57
          1788.90460	         5.57384e+57
          1789.71090	         4.73892e+57
          1790.51720	         4.73660e+57
          1791.32350	         6.69927e+57
          1792.12980	         8.75344e+57
          1792.93610	         7.89474e+57
          1793.74240	         7.46010e+57
          1794.54870	         7.80194e+57
          1795.35500	         7.07214e+57
          1796.16130	         6.81313e+57
          1796.96760	         6.10443e+57
          1797.77390	         6.79191e+57
          1798.58020	         6.79825e+57
          1799.38650	         6.17607e+57
          1800.19280	         6.84437e+57
          1800.99910	         7.26954e+57
          1801.80540	         6.40072e+57
          1802.61170	         6.88262e+57
          1803.41800	         7.95074e+57
          1804.22430	         7.18161e+57
          1805.03060	         6.73402e+57
          1805.83690	         6.92153e+57
          1806.64320	         7.74370e+57
          1807.44950	         7.80516e+57
          1808.25580	         7.31561e+57
          1809.06210	         7.91380e+57
          1809.86840	         6.81418e+57
          1810.67470	         6.19044e+57
          1811.48100	         8.44116e+57
          1812.28730	         8.84538e+57
          1813.09360	         6.96939e+57
          1813.89990	         7.27009e+57
          1814.70620	         6.64341e+57
          1815.51250	         6.83642e+57
          1816.31880	         7.17008e+57
          1817.12510	         6.54645e+57
          1817.93140	         6.40890e+57
          1818.73770	         6.74509e+57
          1819.54400	         8.96747e+57
          1820.35030	         8.65125e+57
          1821.15660	         6.86008e+57
          1821.96290	         6.43569e+57
          1822.76920	         7.46745e+57
          1823.57550	         7.16563e+57
          1824.38180	         6.87184e+57
          1825.18810	         6.64889e+57
          1825.99440	         7.86672e+57
          1826.80070	         7.28993e+57
          1827.60700	         6.14709e+57
          1828.41330	         5.51559e+57
          1829.21960	         6.05012e+57
          1830.02590	         7.52052e+57
          1830.83220	         7.85743e+57
          1831.63850	         7.48125e+57
          1832.44480	         7.23929e+57
          1833.25110	         7.54618e+57
          1834.05740	         8.07346e+57
          1834.86370	         6.96067e+57
          1835.67000	         6.13010e+57
          1836.47630	         6.76067e+57
          1837.28260	         8.10515e+57
          1838.08890	         7.94216e+57
          1838.89520	         7.38137e+57
          1839.70150	         7.27573e+57
          1840.50780	         7.24853e+57
          1841.31410	         7.28321e+57
          1842.12040	         7.08580e+57
          1842.92670	         7.06703e+57
          1843.73300	         6.99977e+57
          1844.53930	         7.53075e+57
          1845.34560	         7.46709e+57
          1846.15190	         6.76434e+57
          1846.95820	         7.50648e+57
          1847.76450	         7.23241e+57
          1848.57080	         5.17868e+57
          1849.37710	         5.22864e+57
          1850.18340	         6.68381e+57
          1850.98970	         7.54981e+57
          1851.79600	         7.97434e+57
          1852.60230	         7.12473e+57
          1853.40860	         6.25262e+57
          1854.21490	         5.77506e+57
          1855.02120	         4.97913e+57
          1855.82750	         4.64821e+57
          1856.63380	         6.33191e+57
          1857.44010	         6.76006e+57
          1858.24640	         7.27912e+57
          1859.05270	         7.08423e+57
          1859.85900	         5.03495e+57
          1860.66530	         4.82423e+57
          1861.47160	         6.40689e+57
          1862.27790	         7.73924e+57
          1863.08420	         6.13560e+57
          1863.89050	         7.22767e+57
          1864.69680	         7.44203e+57
          1865.50310	         7.26347e+57
          1866.30940	         6.14844e+57
          1867.11570	         6.22513e+57
          1867.92200	         7.08460e+57
          1868.72830	         6.91232e+57
          1869.53460	         7.20224e+57
          1870.34090	         7.36986e+57
          1871.14720	         7.96168e+57
          1871.95350	         7.35452e+57
          1872.75980	         6.76923e+57
          1873.56610	         6.32056e+57
          1874.37240	         5.78505e+57
          1875.17870	         5.97674e+57
          1875.98500	         7.13253e+57
          1876.79130	         7.87263e+57
          1877.59760	         6.97571e+57
          1878.40390	         5.82784e+57
          1879.21020	         6.08221e+57
          1880.01650	         6.19210e+57
          1880.82280	         7.44626e+57
          1881.62910	         9.55410e+57
          1882.43540	         9.87236e+57
          1883.24170	         7.38019e+57
          1884.04800	         6.22066e+57
          1884.85430	         6.53300e+57
          1885.66060	         8.68487e+57
          1886.46690	         9.05431e+57
          1887.27320	         7.52073e+57
          1888.07950	         5.96837e+57
          1888.88580	         6.70018e+57
          1889.69210	         8.36832e+57
          1890.49840	         8.43687e+57
          1891.30470	         8.51502e+57
          1892.11100	         7.76628e+57
          1892.91730	         7.76164e+57
          1893.72360	         7.74004e+57
          1894.52990	         7.87388e+57
          1895.33620	         7.67803e+57
          1896.14250	         6.10069e+57
          1896.94880	         5.91667e+57
          1897.75510	         5.50657e+57
          1898.56140	         6.24496e+57
          1899.36770	         7.58093e+57
          1900.17400	         6.36106e+57
          1900.98030	         5.85684e+57
          1901.78660	         6.74977e+57
          1902.59290	         7.07141e+57
          1903.39920	         7.81136e+57
          1904.20550	         8.67815e+57
          1905.01180	         9.49289e+57
          1905.81810	         1.07888e+58
          1906.62440	         1.19823e+58
          1907.43070	         1.37173e+58
          1908.23700	         1.54375e+58
          1909.04330	         1.29251e+58
          1909.84960	         1.07717e+58
          1910.65590	         1.00546e+58
          1911.46220	         9.03778e+57
          1912.26850	         6.80045e+57
          1913.07480	         5.73271e+57
          1913.88110	         5.94785e+57
          1914.68740	         5.81119e+57
          1915.49370	         5.55367e+57
          1916.30000	         5.63832e+57
          1917.10630	         6.88781e+57
          1917.91260	         6.89053e+57
          1918.71890	         5.74496e+57
          1919.52520	         5.51780e+57
          1920.33150	         5.08661e+57
          1921.13780	         6.09617e+57
          1921.94410	         8.44940e+57
          1922.75040	         7.74186e+57
          1923.55670	         6.63120e+57
          1924.36300	         6.80971e+57
          1925.16930	         5.76934e+57
          1925.97560	         5.70968e+57
          1926.78190	         5.50211e+57
          1927.58820	         4.87099e+57
          1928.39450	         5.69336e+57
          1929.20080	         5.90034e+57
          1930.00710	         7.02168e+57
          1930.81340	         8.14755e+57
          1931.61970	         6.92410e+57
          1932.42600	         6.42456e+57
          1933.23230	         8.04705e+57
          1934.03860	         7.09352e+57
          1934.84490	         5.84215e+57
          1935.65120	         8.20774e+57
          1936.45750	         9.00491e+57
          1937.26380	         6.94370e+57
          1938.07010	         7.21340e+57
          1938.87640	         8.54669e+57
          1939.68270	         8.16517e+57
          1940.48900	         8.61432e+57
          1941.29530	         8.70624e+57
          1942.10160	         8.01337e+57
          1942.90790	         6.61943e+57
          1943.71420	         6.53675e+57
          1944.52050	         6.11724e+57
          1945.32680	         4.33628e+57
          1946.13310	         6.19995e+57
          1946.93940	         8.46381e+57
          1947.74570	         7.17601e+57
          1948.55200	         5.84300e+57
          1949.35830	         6.66005e+57
          1950.16460	         6.07289e+57
          1950.97090	         6.59723e+57
          1951.77720	         7.52721e+57
          1952.58350	         7.49166e+57
          1953.38980	         6.11341e+57
          1954.19610	         4.35290e+57
          1955.00240	         5.33208e+57
          1955.80870	         6.27954e+57
          1956.61500	         6.31682e+57
          1957.42130	         5.62095e+57
          1958.22760	         5.75524e+57
          1959.03390	         6.54625e+57
          1959.84020	         5.92714e+57
          1960.64650	         5.99457e+57
          1961.45280	         5.54680e+57
          1962.25910	         5.45701e+57
          1963.06540	         5.98905e+57
          1963.87170	         5.98500e+57
          1964.67800	         7.12428e+57
          1965.48430	         6.83898e+57
          1966.29060	         5.21352e+57
          1967.09690	         6.97308e+57
          1967.90320	         7.01488e+57
          1968.70950	         7.22833e+57
          1969.51580	         6.34922e+57
          1970.32210	         6.41852e+57
          1971.12840	         6.70636e+57
          1971.93470	         5.28203e+57
          1972.74100	         4.72554e+57
          1973.54730	         7.04778e+57
          1974.35360	         7.47465e+57
          1975.15990	         7.05197e+57
          1975.96620	         6.74887e+57
          1976.77250	         8.00064e+57
          1977.57880	         7.04717e+57
          1978.38510	         5.80509e+57
          1979.19140	         7.07979e+57
          1979.99770	         8.00648e+57
          1980.80400	         8.44793e+57
          1981.61030	         7.12936e+57
          1982.41660	         6.06875e+57
          1983.22290	         5.49038e+57
          1984.02920	         6.06429e+57
          1984.83550	         5.82517e+57
          1985.64180	         6.38882e+57
          1986.44810	         6.65820e+57
          1987.25440	         6.19872e+57
          1988.06070	         5.60916e+57
          1988.86700	         5.74889e+57
          1989.67330	         6.04004e+57
          1990.47960	         5.98287e+57
          1991.28590	         5.83502e+57
          1992.09220	         5.73920e+57
          1992.89850	         5.90793e+57
          1993.70480	         5.07444e+57
          1994.51110	         5.06450e+57
          1995.31740	         6.08263e+57
          1996.12370	         5.35893e+57
          1996.93000	         5.83242e+57
          1997.73630	         7.54531e+57
          1998.54260	         7.13878e+57
          1999.34890	         6.09996e+57
          2000.15520	         5.56651e+57
          2000.96150	         6.85496e+57
          2001.76780	         5.51556e+57
          2002.57410	         4.57717e+57
          2003.38040	         5.98532e+57
          2004.18670	         6.23523e+57
          2004.99300	         5.75605e+57
          2005.79930	         6.64140e+57
          2006.60560	         6.78346e+57
          2007.41190	         5.80094e+57
          2008.21820	         5.80221e+57
          2009.02450	         7.21510e+57
          2009.83080	         6.14777e+57
          2010.63710	         6.33466e+57
          2011.44340	         6.83051e+57
          2012.24970	         6.86927e+57
          2013.05600	         6.76435e+57
          2013.86230	         5.69622e+57
          2014.66860	         5.40040e+57
          2015.47490	         6.35542e+57
          2016.28120	         5.93698e+57
          2017.08750	         6.50278e+57
          2017.89380	         7.34780e+57
          2018.70010	         6.75129e+57
          2019.50640	         6.41511e+57
          2020.31270	         7.01340e+57
          2021.11900	         6.88362e+57
          2021.92530	         7.41889e+57
          2022.73160	         6.65692e+57
          2023.53790	         7.16171e+57
          2024.34420	         5.84313e+57
          2025.15050	         3.65594e+57
          2025.95680	         5.07739e+57
          2026.76310	         4.94669e+57
          2027.56940	         4.83924e+57
          2028.37570	         6.60472e+57
          2029.18200	         6.40551e+57
          2029.98830	         5.88093e+57
          2030.79460	         5.21760e+57
          2031.60090	         5.71717e+57
          2032.40720	         6.07089e+57
          2033.21350	         5.88698e+57
          2034.01980	         5.07448e+57
          2034.82610	         4.71224e+57
          2035.63240	         4.46116e+57
          2036.43870	         5.14252e+57
          2037.24500	         6.68454e+57
          2038.05130	         5.54574e+57
          2038.85760	         6.18154e+57
          2039.66390	         6.56659e+57
          2040.47020	         5.25844e+57
          2041.27650	         5.07414e+57
          2042.08280	         4.29721e+57
          2042.88910	         5.06422e+57
          2043.69540	         5.55811e+57
          2044.50170	         5.25641e+57
          2045.30800	         4.13609e+57
          2046.11430	         4.11366e+57
          2046.92060	         5.60511e+57
          2047.72690	         6.47155e+57
          2048.53320	         5.45278e+57
          2049.33950	         5.07293e+57
          2050.14580	         7.06304e+57
          2050.95210	         6.65225e+57
          2051.75840	         7.51744e+57
          2052.56470	         5.83792e+57
          2053.37100	         5.06266e+57
          2054.17730	         6.10345e+57
          2054.98360	         5.76692e+57
          2055.78990	         4.08682e+57
          2056.59620	         3.11554e+57
          2057.40250	         4.92818e+57
          2058.20880	         7.40331e+57
          2059.01510	         5.69559e+57
          2059.82140	         4.62152e+57
          2060.62770	         1.01173e+58
          2061.43400	         1.66950e+58
          2062.24030	         1.60193e+58
          2063.04660	         3.55863e+57
          2063.85290	        -3.30858e+55
          2064.65920	        -2.85192e+57
          2065.46550	        -8.90796e+57
          2066.27180	        -9.88770e+57
          2067.07810	         1.86152e+57
          2067.88440	         6.10772e+57
          2068.69070	         5.88559e+57
          2069.49700	         5.84006e+57
          2070.30330	         3.99193e+57
          2071.10960	         4.50918e+57
          2071.91590	         7.46155e+57
          2072.72220	         4.05506e+57
          2073.52850	         5.26246e+57
          2074.33480	         4.64675e+57
          2075.14110	         4.57162e+57
          2075.94740	         4.99760e+57
          2076.75370	         4.70292e+57
          2077.56000	         4.89107e+57
          2078.36630	         4.86246e+57
          2079.17260	         5.69605e+57
          2079.97890	         6.03963e+57
          2080.78520	         4.35678e+57
          2081.59150	         3.66594e+57
          2082.39780	         5.46501e+57
          2083.20410	         3.78862e+57
          2084.01040	         2.80040e+57
          2084.81670	         3.87263e+57
          2085.62300	         2.83385e+57
          2086.42930	         1.34066e+57
          2087.23560	         3.37520e+57
          2088.04190	         3.89548e+57
          2088.84820	         4.22323e+57
          2089.65450	         2.22296e+57
          2090.46080	         1.74108e+57
          2091.26710	         3.23776e+57
          2092.07340	         3.34664e+57
          2092.87970	         3.51020e+57
          2093.68600	        -1.11040e+57
          2094.49230	         4.68192e+56
          2095.29860	         3.59490e+57
          2096.10490	         3.41015e+57
          2096.91120	         2.66657e+57
          2097.71750	         1.01702e+57
          2098.52380	         3.69592e+56
          2099.33010	        -2.79311e+56
          2100.13640	        -6.88150e+55
          2100.94270	         1.68207e+57
          2101.74900	         3.02600e+57
          2102.55530	         2.54089e+57
          2103.36160	         2.00155e+57
          2104.16790	         4.51706e+57
          2104.97420	         3.23960e+57
          2105.78050	         2.81710e+57
          2106.58680	         1.37911e+57
          2107.39310	        -1.90394e+57
          2108.19940	         4.76403e+55
          2109.00570	        -1.15296e+57
          2109.81200	        -4.87348e+56
          2110.61830	         3.26477e+57
          2111.42460	         2.54113e+57
          2112.23090	         1.28492e+57
          2113.03720	         2.13802e+56
          2113.84350	         6.61897e+57
          2114.64980	         1.01686e+58
          2115.45610	         5.54272e+56
          2116.26240	        -1.72765e+57
          2117.06870	        -2.65606e+57
          2117.87500	        -5.70454e+57
          2118.68130	        -6.97962e+56
          2119.48760	         1.26126e+57
          2120.29390	        -1.26902e+56
          2121.10020	        -4.32236e+57
          2121.90650	         1.62961e+57
          2122.71280	         4.44987e+57
          2123.51910	         2.11154e+57
          2124.32540	         1.61862e+57
          2125.13170	         6.29157e+56
          2125.93800	         2.85484e+57
          2126.74430	         2.69066e+57
          2127.55060	        -3.47091e+57
          2128.35690	        -2.69375e+57
          2129.16320	        -1.23472e+56
          2129.96950	        -5.62318e+57
          2130.77580	        -6.70109e+57
          2131.58210	         2.76920e+57
          2132.38840	         1.92747e+57
          2133.19470	        -6.04368e+56
          2134.00100	        -1.51975e+57
          2134.80730	        -8.51997e+57
          2135.61360	         4.26263e+57
          2136.41990	        -5.35923e+57
          2137.22620	         9.11011e+57
          2138.03250	         6.58053e+57
          2138.83880	        -4.77850e+57
          2139.64510	        -4.34192e+57
          2140.45140	         4.55322e+55
          2141.25770	        -6.93724e+57
          2142.06400	         1.88235e+57
          2142.87030	         2.86043e+57
          2143.67660	         6.44486e+57
          2144.48290	         5.58542e+57
          2145.28920	         8.51202e+57
          2146.09550	         1.41537e+56
          2146.90180	        -6.27357e+57
          2147.70810	        -6.14119e+57
          2148.51440	        -6.58948e+57
          2149.32070	        -4.96510e+57
          2150.12700	        -6.87763e+57
          2150.93330	        -1.76244e+57
          2151.73960	         4.47485e+57
          2152.54590	        -4.53977e+57
          2153.35220	        -8.25280e+57
          2154.15850	        -2.13073e+56
          2154.96480	         9.84485e+57
          2155.77110	        -1.73573e+58
          2156.57740	        -7.89978e+57
          2157.38370	        -2.97492e+57
          2158.19000	        -2.26430e+57
          2158.99630	        -6.57433e+57
          2159.80260	        -4.77301e+57
          2160.60890	        -1.41566e+58
          2161.41520	        -2.34757e+57
          2162.22150	        -5.55652e+57
          2163.02780	        -4.56929e+56
          2163.83410	        -2.21066e+57
          2164.64040	        -6.48482e+57
          2165.44670	        -1.09975e+58
          2166.25300	        -4.73755e+57
          2167.05930	        -3.68412e+57
          2167.86560	        -1.21141e+58
          2168.67190	        -4.85266e+57
          2169.47820	        -8.19101e+57
          2170.28450	        -3.15773e+57
          2171.09080	        -7.44968e+57
          2171.89710	        -3.64410e+57
          2172.70340	         2.28646e+57
          2173.50970	        -6.47761e+57
          2174.31600	        -2.52416e+57
          2175.12230	        -9.67322e+57
          2175.92860	        -1.23661e+58
          2176.73490	        -1.02166e+58
          2177.54120	        -6.61848e+57
          2178.34750	        -5.33616e+57
          2179.15380	                 nan
          2179.96010	                 nan
          2180.76640	                 nan
          2181.57270	                 nan
          2182.37900	                 nan
          2183.18530	                 nan
          2183.99160	                 nan
          2184.79790	                 nan
          2185.60420	                 nan
          2186.41050	                 nan
          2187.21680	                 nan
          2188.02310	                 nan
          2188.82940	                 nan
          2189.63570	                 nan
          2190.44200	                 nan
          2191.24830	                 nan
          2192.05460	                 nan
          2192.86090	                 nan
          2193.66720	                 nan
          2194.47350	                 nan
          2195.27980	                 nan
          2196.08610	                 nan
          2196.89240	                 nan
          2197.69870	                 nan
          2198.50500	                 nan
          2199.31130	                 nan
          2200.11760	                 nan
          2200.92390	                 nan
          2201.73020	                 nan
          2202.53650	                 nan
          2203.34280	                 nan
          2204.14910	                 nan
          2204.95540	                 nan
          2205.76170	                 nan
          2206.56800	                 nan
          2207.37430	                 nan
          2208.18060	                 nan
          2208.98690	                 nan
          2209.79320	                 nan
          2210.59950	                 nan
          2211.40580	                 nan
          2212.21210	                 nan
          2213.01840	                 nan
          2213.82470	                 nan
          2214.63100	                 nan
          2215.43730	         0.00000e+00
