#sample_290_stacked_spectrum_rest_UV-bands_median_H-alpha_noDC.txt
#median Lum: 1.68914e+42
#Rest-frame wavelength (A) | Luminosity (erg/s/A)
#
          1110.00000	         0.00000e+00
          1110.80630	        -1.20415e+59
          1111.61260	         6.64035e+58
          1112.41890	         1.37557e+59
          1113.22520	         2.38827e+59
          1114.03150	        -2.78241e+59
          1114.83780	         3.31550e+58
          1115.64410	        -2.09714e+58
          1116.45040	         2.01867e+59
          1117.25670	         1.03463e+59
          1118.06300	         9.15844e+58
          1118.86930	        -8.73685e+58
          1119.67560	        -1.26548e+58
          1120.48190	         2.62255e+58
          1121.28820	        -1.09990e+59
          1122.09450	        -3.57504e+58
          1122.90080	         2.19981e+58
          1123.70710	        -3.07358e+58
          1124.51340	         9.02563e+58
          1125.31970	         2.18554e+58
          1126.12600	         3.91470e+58
          1126.93230	        -2.23144e+58
          1127.73860	         4.08566e+57
          1128.54490	        -3.17137e+58
          1129.35120	        -2.60553e+58
          1130.15750	         1.38667e+57
          1130.96380	         6.29017e+57
          1131.77010	         5.65025e+58
          1132.57640	         3.16697e+58
          1133.38270	         3.78263e+58
          1134.18900	         6.38804e+58
          1134.99530	         5.10427e+58
          1135.80160	         2.77042e+58
          1136.60790	         1.67495e+58
          1137.41420	        -1.95078e+58
          1138.22050	         1.38064e+58
          1139.02680	         3.69717e+58
          1139.83310	         2.09690e+58
          1140.63940	         1.30255e+58
          1141.44570	        -2.47282e+58
          1142.25200	        -3.19208e+58
          1143.05830	         2.47320e+58
          1143.86460	         3.36275e+58
          1144.67090	         2.35681e+58
          1145.47720	         1.89353e+58
          1146.28350	         1.10883e+58
          1147.08980	         8.45899e+57
          1147.89610	         1.56980e+58
          1148.70240	         3.63434e+58
          1149.50870	         3.00883e+58
          1150.31500	         9.46818e+57
          1151.12130	         1.02433e+58
          1151.92760	         1.66511e+57
          1152.73390	         6.67155e+56
          1153.54020	        -3.43328e+56
          1154.34650	         2.52940e+58
          1155.15280	         1.33704e+58
          1155.95910	         1.48564e+58
          1156.76540	         1.84707e+58
          1157.57170	         1.21234e+57
          1158.37800	         2.29294e+57
          1159.18430	         2.12133e+57
          1159.99060	         1.23063e+58
          1160.79690	         8.98880e+56
          1161.60320	         9.70035e+57
          1162.40950	         1.54705e+58
          1163.21580	         1.58568e+58
          1164.02210	         8.76362e+57
          1164.82840	         1.10439e+58
          1165.63470	         1.94938e+58
          1166.44100	         3.12486e+58
          1167.24730	         1.86142e+58
          1168.05360	         7.08158e+57
          1168.85990	         1.13581e+58
          1169.66620	         1.37325e+58
          1170.47250	         1.11072e+58
          1171.27880	         8.10955e+57
          1172.08510	         1.38769e+58
          1172.89140	         1.46322e+57
          1173.69770	         1.23159e+58
          1174.50400	         1.47736e+58
          1175.31030	         1.50856e+58
          1176.11660	         1.77226e+58
          1176.92290	         1.60275e+58
          1177.72920	         1.20155e+58
          1178.53550	         6.45858e+57
          1179.34180	         6.06567e+57
          1180.14810	         8.99107e+57
          1180.95440	         7.72414e+57
          1181.76070	         3.41557e+57
          1182.56700	         9.60736e+57
          1183.37330	         1.10128e+58
          1184.17960	         1.48818e+58
          1184.98590	         1.30898e+58
          1185.79220	         7.37308e+57
          1186.59850	         8.14624e+57
          1187.40480	         7.21781e+57
          1188.21110	         1.47245e+58
          1189.01740	         1.25727e+58
          1189.82370	         9.93320e+57
          1190.63000	         1.09413e+58
          1191.43630	         1.59517e+58
          1192.24260	         1.29746e+58
          1193.04890	         1.29071e+58
          1193.85520	         1.05511e+58
          1194.66150	         2.75730e+57
          1195.46780	         7.07691e+57
          1196.27410	         1.59504e+58
          1197.08040	         1.06610e+58
          1197.88670	         1.19399e+58
          1198.69300	         1.62312e+58
          1199.49930	         1.75136e+58
          1200.30560	         1.10539e+58
          1201.11190	         8.39696e+57
          1201.91820	         6.93179e+57
          1202.72450	         9.19041e+57
          1203.53080	         1.58463e+58
          1204.33710	         1.07097e+58
          1205.14340	         6.43477e+57
          1205.94970	         7.35047e+57
          1206.75600	         6.70826e+57
          1207.56230	         2.90891e+57
          1208.36860	         8.02690e+57
          1209.17490	         9.14875e+57
          1209.98120	         6.28334e+57
          1210.78750	         6.85925e+57
          1211.59380	         1.25671e+58
          1212.40010	         1.70664e+58
          1213.20640	         1.74503e+58
          1214.01270	         1.97046e+58
          1214.81900	         2.49863e+58
          1215.62530	         4.33673e+58
          1216.43160	         8.73421e+58
          1217.23790	         1.47917e+59
          1218.04420	         1.21765e+59
          1218.85050	         8.66850e+58
          1219.65680	         5.47244e+58
          1220.46310	         3.11061e+58
          1221.26940	         2.11594e+58
          1222.07570	         1.52256e+58
          1222.88200	         1.48755e+58
          1223.68830	         1.27238e+58
          1224.49460	         4.78014e+57
          1225.30090	         5.99531e+57
          1226.10720	         2.93059e+57
          1226.91350	         3.25003e+57
          1227.71980	         6.48446e+57
          1228.52610	         1.04379e+58
          1229.33240	         7.82204e+57
          1230.13870	         6.96281e+57
          1230.94500	         5.05224e+57
          1231.75130	         2.96065e+57
          1232.55760	         6.67322e+57
          1233.36390	         8.80158e+57
          1234.17020	         6.26146e+57
          1234.97650	         6.87460e+57
          1235.78280	         8.16830e+57
          1236.58910	         9.19864e+57
          1237.39540	         1.05526e+58
          1238.20170	         8.87902e+57
          1239.00800	         1.02814e+58
          1239.81430	         1.32388e+58
          1240.62060	         1.23319e+58
          1241.42690	         1.07566e+58
          1242.23320	         1.14332e+58
          1243.03950	         9.48405e+57
          1243.84580	         9.99187e+57
          1244.65210	         1.01219e+58
          1245.45840	         8.13952e+57
          1246.26470	         7.76466e+57
          1247.07100	         7.62391e+57
          1247.87730	         6.90492e+57
          1248.68360	         5.25813e+57
          1249.48990	         8.85568e+57
          1250.29620	         1.24590e+58
          1251.10250	         9.59467e+57
          1251.90880	         4.91787e+57
          1252.71510	         6.37554e+57
          1253.52140	         8.46960e+57
          1254.32770	         1.03988e+58
          1255.13400	         1.17738e+58
          1255.94030	         1.22539e+58
          1256.74660	         1.10572e+58
          1257.55290	         1.12863e+58
          1258.35920	         9.81127e+57
          1259.16550	         5.51684e+57
          1259.97180	         6.18478e+57
          1260.77810	         1.09520e+58
          1261.58440	         1.19193e+58
          1262.39070	         8.77969e+57
          1263.19700	         9.30548e+57
          1264.00330	         9.58268e+57
          1264.80960	         9.80131e+57
          1265.61590	         1.29939e+58
          1266.42220	         1.10982e+58
          1267.22850	         8.87915e+57
          1268.03480	         1.18069e+58
          1268.84110	         1.35601e+58
          1269.64740	         1.36622e+58
          1270.45370	         1.34320e+58
          1271.26000	         1.20644e+58
          1272.06630	         1.12417e+58
          1272.87260	         1.27361e+58
          1273.67890	         1.24483e+58
          1274.48520	         1.19598e+58
          1275.29150	         1.28302e+58
          1276.09780	         1.21804e+58
          1276.90410	         1.44944e+58
          1277.71040	         1.27134e+58
          1278.51670	         1.33562e+58
          1279.32300	         1.27490e+58
          1280.12930	         1.12377e+58
          1280.93560	         1.19187e+58
          1281.74190	         1.22140e+58
          1282.54820	         1.29380e+58
          1283.35450	         1.19809e+58
          1284.16080	         1.00551e+58
          1284.96710	         1.35739e+58
          1285.77340	         1.32879e+58
          1286.57970	         1.19174e+58
          1287.38600	         1.46458e+58
          1288.19230	         1.66859e+58
          1288.99860	         1.55142e+58
          1289.80490	         1.14755e+58
          1290.61120	         1.40380e+58
          1291.41750	         1.43556e+58
          1292.22380	         1.12524e+58
          1293.03010	         9.84004e+57
          1293.83640	         1.18988e+58
          1294.64270	         9.78437e+57
          1295.44900	         4.71295e+57
          1296.25530	         3.57835e+57
          1297.06160	         7.95248e+57
          1297.86790	         1.06191e+58
          1298.67420	         9.19698e+57
          1299.48050	         8.49075e+57
          1300.28680	         1.06167e+58
          1301.09310	         9.95293e+57
          1301.89940	         5.11073e+57
          1302.70570	         6.85720e+57
          1303.51200	         9.10880e+57
          1304.31830	         1.02558e+58
          1305.12460	         1.07665e+58
          1305.93090	         1.16237e+58
          1306.73720	         1.22374e+58
          1307.54350	         1.24683e+58
          1308.34980	         1.39994e+58
          1309.15610	         1.67067e+58
          1309.96240	         1.59060e+58
          1310.76870	         1.29440e+58
          1311.57500	         1.19998e+58
          1312.38130	         1.14931e+58
          1313.18760	         1.33182e+58
          1313.99390	         1.47319e+58
          1314.80020	         1.49628e+58
          1315.60650	         1.69779e+58
          1316.41280	         1.47980e+58
          1317.21910	         1.28993e+58
          1318.02540	         1.21157e+58
          1318.83170	         1.33017e+58
          1319.63800	         1.20749e+58
          1320.44430	         1.13543e+58
          1321.25060	         1.24629e+58
          1322.05690	         1.32591e+58
          1322.86320	         1.18449e+58
          1323.66950	         1.12862e+58
          1324.47580	         1.01926e+58
          1325.28210	         9.74802e+57
          1326.08840	         1.11240e+58
          1326.89470	         1.38024e+58
          1327.70100	         1.23160e+58
          1328.50730	         9.38564e+57
          1329.31360	         1.02941e+58
          1330.11990	         1.14241e+58
          1330.92620	         1.00221e+58
          1331.73250	         1.13160e+58
          1332.53880	         1.05028e+58
          1333.34510	         9.38012e+57
          1334.15140	         9.21170e+57
          1334.95770	         8.98459e+57
          1335.76400	         1.08100e+58
          1336.57030	         1.10066e+58
          1337.37660	         9.98462e+57
          1338.18290	         1.03484e+58
          1338.98920	         1.17685e+58
          1339.79550	         1.13968e+58
          1340.60180	         1.16192e+58
          1341.40810	         1.31045e+58
          1342.21440	         1.32962e+58
          1343.02070	         1.25175e+58
          1343.82700	         1.37717e+58
          1344.63330	         1.46362e+58
          1345.43960	         1.41441e+58
          1346.24590	         1.22302e+58
          1347.05220	         1.23989e+58
          1347.85850	         1.11994e+58
          1348.66480	         1.16503e+58
          1349.47110	         1.21637e+58
          1350.27740	         1.19757e+58
          1351.08370	         1.09044e+58
          1351.89000	         1.20449e+58
          1352.69630	         1.21757e+58
          1353.50260	         1.29787e+58
          1354.30890	         1.32951e+58
          1355.11520	         1.17904e+58
          1355.92150	         1.13916e+58
          1356.72780	         1.03028e+58
          1357.53410	         9.65006e+57
          1358.34040	         1.11720e+58
          1359.14670	         1.05524e+58
          1359.95300	         1.07267e+58
          1360.75930	         1.07587e+58
          1361.56560	         1.10874e+58
          1362.37190	         1.19601e+58
          1363.17820	         1.18653e+58
          1363.98450	         1.18750e+58
          1364.79080	         1.14346e+58
          1365.59710	         1.34747e+58
          1366.40340	         1.34153e+58
          1367.20970	         1.09995e+58
          1368.01600	         1.04232e+58
          1368.82230	         1.06903e+58
          1369.62860	         1.20506e+58
          1370.43490	         9.47712e+57
          1371.24120	         9.46947e+57
          1372.04750	         9.57969e+57
          1372.85380	         9.78008e+57
          1373.66010	         9.63011e+57
          1374.46640	         1.01460e+58
          1375.27270	         1.12055e+58
          1376.07900	         1.03898e+58
          1376.88530	         1.03906e+58
          1377.69160	         9.61107e+57
          1378.49790	         7.57706e+57
          1379.30420	         7.58833e+57
          1380.11050	         9.76418e+57
          1380.91680	         8.61517e+57
          1381.72310	         6.61581e+57
          1382.52940	         7.93171e+57
          1383.33570	         9.10359e+57
          1384.14200	         1.02088e+58
          1384.94830	         1.10456e+58
          1385.75460	         1.19464e+58
          1386.56090	         1.19738e+58
          1387.36720	         1.16181e+58
          1388.17350	         1.45945e+58
          1388.97980	         1.19268e+58
          1389.78610	         9.48397e+57
          1390.59240	         8.55783e+57
          1391.39870	         6.90950e+57
          1392.20500	         8.58795e+57
          1393.01130	         8.00250e+57
          1393.81760	         6.65138e+57
          1394.62390	         7.58862e+57
          1395.43020	         7.36689e+57
          1396.23650	         6.39360e+57
          1397.04280	         6.44447e+57
          1397.84910	         8.03505e+57
          1398.65540	         8.14445e+57
          1399.46170	         9.33660e+57
          1400.26800	         9.67797e+57
          1401.07430	         7.96615e+57
          1401.88060	         7.63231e+57
          1402.68690	         9.55068e+57
          1403.49320	         1.02731e+58
          1404.29950	         1.09263e+58
          1405.10580	         1.11106e+58
          1405.91210	         1.13744e+58
          1406.71840	         1.12218e+58
          1407.52470	         1.20000e+58
          1408.33100	         1.26909e+58
          1409.13730	         1.23605e+58
          1409.94360	         1.28999e+58
          1410.74990	         1.29399e+58
          1411.55620	         1.01639e+58
          1412.36250	         9.23881e+57
          1413.16880	         9.63471e+57
          1413.97510	         8.69350e+57
          1414.78140	         8.40866e+57
          1415.58770	         1.04699e+58
          1416.39400	         1.04941e+58
          1417.20030	         1.04355e+58
          1418.00660	         1.00895e+58
          1418.81290	         1.04588e+58
          1419.61920	         9.89450e+57
          1420.42550	         1.16261e+58
          1421.23180	         1.38164e+58
          1422.03810	         1.31842e+58
          1422.84440	         1.05155e+58
          1423.65070	         1.19931e+58
          1424.45700	         1.14103e+58
          1425.26330	         8.52625e+57
          1426.06960	         8.65070e+57
          1426.87590	         1.04651e+58
          1427.68220	         9.51840e+57
          1428.48850	         9.59351e+57
          1429.29480	         1.16084e+58
          1430.10110	         1.15135e+58
          1430.90740	         9.85393e+57
          1431.71370	         9.20301e+57
          1432.52000	         9.72332e+57
          1433.32630	         9.40506e+57
          1434.13260	         8.19383e+57
          1434.93890	         8.45180e+57
          1435.74520	         1.04690e+58
          1436.55150	         9.65986e+57
          1437.35780	         8.95643e+57
          1438.16410	         9.47910e+57
          1438.97040	         9.30579e+57
          1439.77670	         8.89023e+57
          1440.58300	         9.81362e+57
          1441.38930	         1.04249e+58
          1442.19560	         1.03864e+58
          1443.00190	         1.03717e+58
          1443.80820	         1.08286e+58
          1444.61450	         9.81565e+57
          1445.42080	         8.28231e+57
          1446.22710	         9.02335e+57
          1447.03340	         8.63399e+57
          1447.83970	         9.78441e+57
          1448.64600	         9.80137e+57
          1449.45230	         9.81872e+57
          1450.25860	         1.03292e+58
          1451.06490	         9.01899e+57
          1451.87120	         7.29522e+57
          1452.67750	         8.08328e+57
          1453.48380	         9.61094e+57
          1454.29010	         8.71775e+57
          1455.09640	         8.06622e+57
          1455.90270	         9.10880e+57
          1456.70900	         9.09816e+57
          1457.51530	         1.00604e+58
          1458.32160	         1.28147e+58
          1459.12790	         1.18869e+58
          1459.93420	         9.20280e+57
          1460.74050	         8.80230e+57
          1461.54680	         8.61685e+57
          1462.35310	         7.37452e+57
          1463.15940	         9.58298e+57
          1463.96570	         1.15735e+58
          1464.77200	         1.12194e+58
          1465.57830	         8.74969e+57
          1466.38460	         7.80821e+57
          1467.19090	         8.65105e+57
          1467.99720	         8.70992e+57
          1468.80350	         8.81275e+57
          1469.60980	         9.89555e+57
          1470.41610	         9.97057e+57
          1471.22240	         8.29124e+57
          1472.02870	         9.73844e+57
          1472.83500	         1.07743e+58
          1473.64130	         1.02999e+58
          1474.44760	         9.60597e+57
          1475.25390	         1.02058e+58
          1476.06020	         9.59230e+57
          1476.86650	         8.13742e+57
          1477.67280	         7.66959e+57
          1478.47910	         6.91218e+57
          1479.28540	         7.83495e+57
          1480.09170	         8.67972e+57
          1480.89800	         8.02380e+57
          1481.70430	         8.11096e+57
          1482.51060	         7.72679e+57
          1483.31690	         7.10932e+57
          1484.12320	         8.59869e+57
          1484.92950	         8.67017e+57
          1485.73580	         8.07608e+57
          1486.54210	         8.66293e+57
          1487.34840	         9.04279e+57
          1488.15470	         9.11988e+57
          1488.96100	         9.13558e+57
          1489.76730	         9.72779e+57
          1490.57360	         9.38568e+57
          1491.37990	         7.89072e+57
          1492.18620	         8.25555e+57
          1492.99250	         7.82048e+57
          1493.79880	         8.34549e+57
          1494.60510	         8.65843e+57
          1495.41140	         6.31122e+57
          1496.21770	         7.20589e+57
          1497.02400	         1.03381e+58
          1497.83030	         9.69130e+57
          1498.63660	         8.11140e+57
          1499.44290	         7.57730e+57
          1500.24920	         7.38643e+57
          1501.05550	         7.54532e+57
          1501.86180	         8.17731e+57
          1502.66810	         8.75903e+57
          1503.47440	         9.10675e+57
          1504.28070	         8.14521e+57
          1505.08700	         1.03304e+58
          1505.89330	         1.04541e+58
          1506.69960	         8.58630e+57
          1507.50590	         8.77438e+57
          1508.31220	         8.65635e+57
          1509.11850	         8.73957e+57
          1509.92480	         1.05568e+58
          1510.73110	         1.01949e+58
          1511.53740	         8.10779e+57
          1512.34370	         6.73671e+57
          1513.15000	         8.42602e+57
          1513.95630	         9.63732e+57
          1514.76260	         9.24701e+57
          1515.56890	         8.14770e+57
          1516.37520	         8.35941e+57
          1517.18150	         8.14361e+57
          1517.98780	         7.05108e+57
          1518.79410	         6.76895e+57
          1519.60040	         8.28810e+57
          1520.40670	         9.92594e+57
          1521.21300	         8.87048e+57
          1522.01930	         7.03792e+57
          1522.82560	         7.94504e+57
          1523.63190	         9.69404e+57
          1524.43820	         8.10029e+57
          1525.24450	         6.74136e+57
          1526.05080	         6.24715e+57
          1526.85710	         6.44286e+57
          1527.66340	         6.60092e+57
          1528.46970	         7.49713e+57
          1529.27600	         7.88772e+57
          1530.08230	         8.35396e+57
          1530.88860	         8.11017e+57
          1531.69490	         7.98099e+57
          1532.50120	         1.00313e+58
          1533.30750	         9.74400e+57
          1534.11380	         9.32657e+57
          1534.92010	         9.04302e+57
          1535.72640	         8.80636e+57
          1536.53270	         8.73084e+57
          1537.33900	         8.38613e+57
          1538.14530	         8.64498e+57
          1538.95160	         9.60732e+57
          1539.75790	         9.44978e+57
          1540.56420	         9.12246e+57
          1541.37050	         9.14507e+57
          1542.17680	         8.02290e+57
          1542.98310	         8.32845e+57
          1543.78940	         8.57991e+57
          1544.59570	         7.93045e+57
          1545.40200	         8.75467e+57
          1546.20830	         9.83323e+57
          1547.01460	         1.06623e+58
          1547.82090	         1.08746e+58
          1548.62720	         1.14923e+58
          1549.43350	         1.13632e+58
          1550.23980	         1.02162e+58
          1551.04610	         1.25145e+58
          1551.85240	         1.17366e+58
          1552.65870	         1.08604e+58
          1553.46500	         1.09164e+58
          1554.27130	         1.06954e+58
          1555.07760	         1.06620e+58
          1555.88390	         1.03249e+58
          1556.69020	         9.89474e+57
          1557.49650	         8.97628e+57
          1558.30280	         8.93738e+57
          1559.10910	         9.27913e+57
          1559.91540	         9.17978e+57
          1560.72170	         9.02722e+57
          1561.52800	         9.10264e+57
          1562.33430	         8.34396e+57
          1563.14060	         7.97559e+57
          1563.94690	         8.67298e+57
          1564.75320	         8.66868e+57
          1565.55950	         7.63420e+57
          1566.36580	         7.61595e+57
          1567.17210	         9.40200e+57
          1567.97840	         9.69455e+57
          1568.78470	         9.19926e+57
          1569.59100	         1.00056e+58
          1570.39730	         8.87265e+57
          1571.20360	         6.46960e+57
          1572.00990	         7.04436e+57
          1572.81620	         9.09793e+57
          1573.62250	         1.02080e+58
          1574.42880	         9.12835e+57
          1575.23510	         7.60988e+57
          1576.04140	         8.64018e+57
          1576.84770	         9.95627e+57
          1577.65400	         8.94286e+57
          1578.46030	         9.32565e+57
          1579.26660	         1.00348e+58
          1580.07290	         9.54697e+57
          1580.87920	         7.64979e+57
          1581.68550	         7.76242e+57
          1582.49180	         8.16359e+57
          1583.29810	         7.64675e+57
          1584.10440	         8.22779e+57
          1584.91070	         8.27444e+57
          1585.71700	         9.03514e+57
          1586.52330	         9.92500e+57
          1587.32960	         9.32120e+57
          1588.13590	         8.24078e+57
          1588.94220	         8.31767e+57
          1589.74850	         9.52612e+57
          1590.55480	         9.15860e+57
          1591.36110	         8.28175e+57
          1592.16740	         8.69214e+57
          1592.97370	         7.83349e+57
          1593.78000	         8.37537e+57
          1594.58630	         9.97277e+57
          1595.39260	         9.48069e+57
          1596.19890	         8.93348e+57
          1597.00520	         8.97931e+57
          1597.81150	         8.39426e+57
          1598.61780	         7.21515e+57
          1599.42410	         7.33408e+57
          1600.23040	         6.99389e+57
          1601.03670	         7.83124e+57
          1601.84300	         8.04150e+57
          1602.64930	         9.13879e+57
          1603.45560	         8.95510e+57
          1604.26190	         8.20101e+57
          1605.06820	         7.76700e+57
          1605.87450	         7.74038e+57
          1606.68080	         7.28417e+57
          1607.48710	         6.40529e+57
          1608.29340	         6.15974e+57
          1609.09970	         7.33631e+57
          1609.90600	         7.73246e+57
          1610.71230	         7.43890e+57
          1611.51860	         7.94514e+57
          1612.32490	         7.48152e+57
          1613.13120	         7.17825e+57
          1613.93750	         8.24754e+57
          1614.74380	         8.11925e+57
          1615.55010	         8.10915e+57
          1616.35640	         8.83460e+57
          1617.16270	         1.05099e+58
          1617.96900	         1.03586e+58
          1618.77530	         9.02819e+57
          1619.58160	         9.04620e+57
          1620.38790	         8.50099e+57
          1621.19420	         9.35599e+57
          1622.00050	         8.18300e+57
          1622.80680	         8.61366e+57
          1623.61310	         9.51612e+57
          1624.41940	         9.32404e+57
          1625.22570	         9.27738e+57
          1626.03200	         9.29718e+57
          1626.83830	         8.20543e+57
          1627.64460	         7.28521e+57
          1628.45090	         7.48048e+57
          1629.25720	         9.10404e+57
          1630.06350	         9.90292e+57
          1630.86980	         6.60109e+57
          1631.67610	         7.45952e+57
          1632.48240	         8.82429e+57
          1633.28870	         8.73516e+57
          1634.09500	         1.03165e+58
          1634.90130	         1.25189e+58
          1635.70760	         1.00040e+58
          1636.51390	         7.76454e+57
          1637.32020	         8.30486e+57
          1638.12650	         9.73549e+57
          1638.93280	         1.02528e+58
          1639.73910	         1.03211e+58
          1640.54540	         9.90899e+57
          1641.35170	         9.27596e+57
          1642.15800	         9.03390e+57
          1642.96430	         8.53120e+57
          1643.77060	         9.18391e+57
          1644.57690	         8.96976e+57
          1645.38320	         8.50067e+57
          1646.18950	         6.27524e+57
          1646.99580	         7.52514e+57
          1647.80210	         7.78850e+57
          1648.60840	         7.43155e+57
          1649.41470	         8.35289e+57
          1650.22100	         8.05734e+57
          1651.02730	         7.64804e+57
          1651.83360	         7.42405e+57
          1652.63990	         8.51589e+57
          1653.44620	         9.55204e+57
          1654.25250	         8.35296e+57
          1655.05880	         7.64659e+57
          1655.86510	         8.76563e+57
          1656.67140	         8.77364e+57
          1657.47770	         7.69483e+57
          1658.28400	         8.06044e+57
          1659.09030	         8.98213e+57
          1659.89660	         9.62221e+57
          1660.70290	         1.02265e+58
          1661.50920	         1.01305e+58
          1662.31550	         8.83596e+57
          1663.12180	         8.79307e+57
          1663.92810	         9.48816e+57
          1664.73440	         1.09526e+58
          1665.54070	         1.28804e+58
          1666.34700	         1.32154e+58
          1667.15330	         1.08758e+58
          1667.95960	         8.19410e+57
          1668.76590	         7.16963e+57
          1669.57220	         7.23296e+57
          1670.37850	         7.88925e+57
          1671.18480	         8.19742e+57
          1671.99110	         7.80991e+57
          1672.79740	         7.54382e+57
          1673.60370	         6.79298e+57
          1674.41000	         6.63250e+57
          1675.21630	         6.86782e+57
          1676.02260	         6.41363e+57
          1676.82890	         6.40996e+57
          1677.63520	         6.73840e+57
          1678.44150	         6.63088e+57
          1679.24780	         7.97676e+57
          1680.05410	         7.52134e+57
          1680.86040	         5.72703e+57
          1681.66670	         6.59962e+57
          1682.47300	         8.26312e+57
          1683.27930	         8.27616e+57
          1684.08560	         8.46399e+57
          1684.89190	         8.47818e+57
          1685.69820	         6.76873e+57
          1686.50450	         6.03028e+57
          1687.31080	         7.11187e+57
          1688.11710	         7.74980e+57
          1688.92340	         6.89313e+57
          1689.72970	         6.99004e+57
          1690.53600	         6.95859e+57
          1691.34230	         7.12721e+57
          1692.14860	         8.27105e+57
          1692.95490	         7.79312e+57
          1693.76120	         6.88100e+57
          1694.56750	         5.97786e+57
          1695.37380	         8.76032e+57
          1696.18010	         9.98862e+57
          1696.98640	         7.97866e+57
          1697.79270	         8.19176e+57
          1698.59900	         8.77644e+57
          1699.40530	         7.65082e+57
          1700.21160	         7.70715e+57
          1701.01790	         9.00466e+57
          1701.82420	         7.33892e+57
          1702.63050	         7.75125e+57
          1703.43680	         9.01196e+57
          1704.24310	         8.76182e+57
          1705.04940	         8.16423e+57
          1705.85570	         7.62321e+57
          1706.66200	         8.15382e+57
          1707.46830	         8.44559e+57
          1708.27460	         7.91644e+57
          1709.08090	         6.50835e+57
          1709.88720	         6.44548e+57
          1710.69350	         6.71869e+57
          1711.49980	         7.02843e+57
          1712.30610	         7.16759e+57
          1713.11240	         8.36767e+57
          1713.91870	         8.07251e+57
          1714.72500	         9.04218e+57
          1715.53130	         1.00709e+58
          1716.33760	         9.04934e+57
          1717.14390	         8.16163e+57
          1717.95020	         9.54001e+57
          1718.75650	         9.34097e+57
          1719.56280	         9.03048e+57
          1720.36910	         7.55263e+57
          1721.17540	         6.92650e+57
          1721.98170	         6.21804e+57
          1722.78800	         5.79363e+57
          1723.59430	         6.78126e+57
          1724.40060	         8.24165e+57
          1725.20690	         8.83704e+57
          1726.01320	         8.26641e+57
          1726.81950	         7.91618e+57
          1727.62580	         8.08491e+57
          1728.43210	         7.28142e+57
          1729.23840	         7.96400e+57
          1730.04470	         8.14072e+57
          1730.85100	         8.22882e+57
          1731.65730	         8.41842e+57
          1732.46360	         7.88172e+57
          1733.26990	         7.30316e+57
          1734.07620	         6.25923e+57
          1734.88250	         6.58981e+57
          1735.68880	         7.86310e+57
          1736.49510	         8.51066e+57
          1737.30140	         8.17025e+57
          1738.10770	         7.78356e+57
          1738.91400	         8.10520e+57
          1739.72030	         7.62372e+57
          1740.52660	         6.03450e+57
          1741.33290	         6.31143e+57
          1742.13920	         6.91281e+57
          1742.94550	         7.88978e+57
          1743.75180	         8.23146e+57
          1744.55810	         8.54604e+57
          1745.36440	         7.78902e+57
          1746.17070	         6.26180e+57
          1746.97700	         6.12060e+57
          1747.78330	         6.96059e+57
          1748.58960	         7.43193e+57
          1749.39590	         6.71799e+57
          1750.20220	         6.17930e+57
          1751.00850	         5.88779e+57
          1751.81480	         6.55976e+57
          1752.62110	         6.87354e+57
          1753.42740	         6.85215e+57
          1754.23370	         6.60148e+57
          1755.04000	         7.03511e+57
          1755.84630	         8.18257e+57
          1756.65260	         9.13324e+57
          1757.45890	         8.71530e+57
          1758.26520	         6.67970e+57
          1759.07150	         7.32041e+57
          1759.87780	         8.68565e+57
          1760.68410	         8.75839e+57
          1761.49040	         8.98801e+57
          1762.29670	         7.42936e+57
          1763.10300	         7.44665e+57
          1763.90930	         8.61212e+57
          1764.71560	         8.78762e+57
          1765.52190	         8.66951e+57
          1766.32820	         8.84350e+57
          1767.13450	         8.79734e+57
          1767.94080	         7.13122e+57
          1768.74710	         6.89711e+57
          1769.55340	         6.49240e+57
          1770.35970	         5.91364e+57
          1771.16600	         6.93024e+57
          1771.97230	         7.68981e+57
          1772.77860	         8.44185e+57
          1773.58490	         7.70554e+57
          1774.39120	         6.30451e+57
          1775.19750	         6.03087e+57
          1776.00380	         7.13796e+57
          1776.81010	         6.52578e+57
          1777.61640	         5.93802e+57
          1778.42270	         6.82734e+57
          1779.22900	         6.43866e+57
          1780.03530	         5.95674e+57
          1780.84160	         7.81953e+57
          1781.64790	         8.21639e+57
          1782.45420	         7.36822e+57
          1783.26050	         7.44736e+57
          1784.06680	         7.42334e+57
          1784.87310	         7.66826e+57
          1785.67940	         7.47045e+57
          1786.48570	         6.95890e+57
          1787.29200	         6.14186e+57
          1788.09830	         5.72872e+57
          1788.90460	         5.50054e+57
          1789.71090	         5.21040e+57
          1790.51720	         4.82845e+57
          1791.32350	         6.20812e+57
          1792.12980	         8.51130e+57
          1792.93610	         7.83913e+57
          1793.74240	         7.82256e+57
          1794.54870	         8.30571e+57
          1795.35500	         8.71601e+57
          1796.16130	         7.26465e+57
          1796.96760	         6.53032e+57
          1797.77390	         6.62118e+57
          1798.58020	         7.25454e+57
          1799.38650	         6.97316e+57
          1800.19280	         6.30237e+57
          1800.99910	         7.60738e+57
          1801.80540	         8.13970e+57
          1802.61170	         7.91465e+57
          1803.41800	         8.62011e+57
          1804.22430	         8.80058e+57
          1805.03060	         6.55902e+57
          1805.83690	         6.59788e+57
          1806.64320	         7.27733e+57
          1807.44950	         7.52241e+57
          1808.25580	         7.53609e+57
          1809.06210	         7.79778e+57
          1809.86840	         5.89343e+57
          1810.67470	         6.08660e+57
          1811.48100	         8.75566e+57
          1812.28730	         8.92362e+57
          1813.09360	         7.12682e+57
          1813.89990	         6.99127e+57
          1814.70620	         7.23350e+57
          1815.51250	         8.79712e+57
          1816.31880	         8.53397e+57
          1817.12510	         7.59878e+57
          1817.93140	         6.97913e+57
          1818.73770	         7.00392e+57
          1819.54400	         7.95781e+57
          1820.35030	         8.59538e+57
          1821.15660	         6.67148e+57
          1821.96290	         6.94504e+57
          1822.76920	         6.74136e+57
          1823.57550	         6.66824e+57
          1824.38180	         7.26517e+57
          1825.18810	         7.64822e+57
          1825.99440	         8.53902e+57
          1826.80070	         7.93236e+57
          1827.60700	         7.08469e+57
          1828.41330	         5.62453e+57
          1829.21960	         6.20701e+57
          1830.02590	         7.19877e+57
          1830.83220	         7.48050e+57
          1831.63850	         7.94690e+57
          1832.44480	         8.01815e+57
          1833.25110	         8.38787e+57
          1834.05740	         7.93024e+57
          1834.86370	         8.01545e+57
          1835.67000	         6.50921e+57
          1836.47630	         7.79390e+57
          1837.28260	         9.47958e+57
          1838.08890	         8.90542e+57
          1838.89520	         7.29811e+57
          1839.70150	         8.37304e+57
          1840.50780	         8.76086e+57
          1841.31410	         7.42603e+57
          1842.12040	         7.20924e+57
          1842.92670	         7.18545e+57
          1843.73300	         6.84740e+57
          1844.53930	         7.57114e+57
          1845.34560	         8.18470e+57
          1846.15190	         7.90606e+57
          1846.95820	         8.55876e+57
          1847.76450	         7.54026e+57
          1848.57080	         5.94242e+57
          1849.37710	         6.15013e+57
          1850.18340	         6.77228e+57
          1850.98970	         7.62270e+57
          1851.79600	         8.88517e+57
          1852.60230	         7.76038e+57
          1853.40860	         7.86808e+57
          1854.21490	         7.10923e+57
          1855.02120	         5.38044e+57
          1855.82750	         4.66867e+57
          1856.63380	         6.45373e+57
          1857.44010	         7.31966e+57
          1858.24640	         7.17761e+57
          1859.05270	         7.06857e+57
          1859.85900	         5.94111e+57
          1860.66530	         7.25856e+57
          1861.47160	         8.12431e+57
          1862.27790	         8.16574e+57
          1863.08420	         7.93164e+57
          1863.89050	         7.70916e+57
          1864.69680	         7.08669e+57
          1865.50310	         6.58983e+57
          1866.30940	         6.15759e+57
          1867.11570	         6.45568e+57
          1867.92200	         7.71983e+57
          1868.72830	         7.62144e+57
          1869.53460	         6.70288e+57
          1870.34090	         7.37094e+57
          1871.14720	         8.05186e+57
          1871.95350	         6.43058e+57
          1872.75980	         6.92319e+57
          1873.56610	         6.67204e+57
          1874.37240	         5.57757e+57
          1875.17870	         6.32133e+57
          1875.98500	         8.11445e+57
          1876.79130	         8.33541e+57
          1877.59760	         6.59084e+57
          1878.40390	         6.26306e+57
          1879.21020	         6.41330e+57
          1880.01650	         6.74643e+57
          1880.82280	         8.66583e+57
          1881.62910	         8.47378e+57
          1882.43540	         1.04163e+58
          1883.24170	         8.50930e+57
          1884.04800	         6.79745e+57
          1884.85430	         6.65576e+57
          1885.66060	         7.74790e+57
          1886.46690	         8.40362e+57
          1887.27320	         7.67853e+57
          1888.07950	         6.89495e+57
          1888.88580	         7.04992e+57
          1889.69210	         8.21001e+57
          1890.49840	         8.53395e+57
          1891.30470	         8.58903e+57
          1892.11100	         9.17115e+57
          1892.91730	         7.34087e+57
          1893.72360	         7.19975e+57
          1894.52990	         7.92954e+57
          1895.33620	         7.26268e+57
          1896.14250	         6.42783e+57
          1896.94880	         5.94103e+57
          1897.75510	         4.81897e+57
          1898.56140	         6.27423e+57
          1899.36770	         8.39776e+57
          1900.17400	         7.72091e+57
          1900.98030	         8.49554e+57
          1901.78660	         7.03978e+57
          1902.59290	         6.24159e+57
          1903.39920	         7.42939e+57
          1904.20550	         8.89104e+57
          1905.01180	         9.71884e+57
          1905.81810	         9.42747e+57
          1906.62440	         1.13257e+58
          1907.43070	         1.32314e+58
          1908.23700	         1.58499e+58
          1909.04330	         1.31241e+58
          1909.84960	         1.07360e+58
          1910.65590	         1.02220e+58
          1911.46220	         1.00744e+58
          1912.26850	         8.16888e+57
          1913.07480	         6.70303e+57
          1913.88110	         6.08391e+57
          1914.68740	         5.99954e+57
          1915.49370	         5.92633e+57
          1916.30000	         6.84647e+57
          1917.10630	         7.68767e+57
          1917.91260	         6.72098e+57
          1918.71890	         6.06975e+57
          1919.52520	         6.05335e+57
          1920.33150	         5.57165e+57
          1921.13780	         6.00458e+57
          1921.94410	         7.36692e+57
          1922.75040	         7.14298e+57
          1923.55670	         7.34235e+57
          1924.36300	         7.40499e+57
          1925.16930	         6.45219e+57
          1925.97560	         5.94861e+57
          1926.78190	         5.83925e+57
          1927.58820	         6.41095e+57
          1928.39450	         6.57554e+57
          1929.20080	         5.25289e+57
          1930.00710	         6.46175e+57
          1930.81340	         8.00099e+57
          1931.61970	         7.43134e+57
          1932.42600	         7.73112e+57
          1933.23230	         7.31972e+57
          1934.03860	         5.83821e+57
          1934.84490	         5.64447e+57
          1935.65120	         7.65041e+57
          1936.45750	         9.13924e+57
          1937.26380	         7.16532e+57
          1938.07010	         7.30574e+57
          1938.87640	         8.04233e+57
          1939.68270	         8.00873e+57
          1940.48900	         8.04579e+57
          1941.29530	         8.55155e+57
          1942.10160	         8.22516e+57
          1942.90790	         6.42834e+57
          1943.71420	         5.10920e+57
          1944.52050	         6.65448e+57
          1945.32680	         6.14115e+57
          1946.13310	         6.84443e+57
          1946.93940	         8.24301e+57
          1947.74570	         7.73586e+57
          1948.55200	         6.12289e+57
          1949.35830	         6.35638e+57
          1950.16460	         7.29562e+57
          1950.97090	         7.44201e+57
          1951.77720	         7.67330e+57
          1952.58350	         8.60504e+57
          1953.38980	         7.49437e+57
          1954.19610	         6.34022e+57
          1955.00240	         5.23463e+57
          1955.80870	         6.74553e+57
          1956.61500	         6.12702e+57
          1957.42130	         5.69979e+57
          1958.22760	         6.51846e+57
          1959.03390	         7.05436e+57
          1959.84020	         7.61182e+57
          1960.64650	         6.81888e+57
          1961.45280	         6.24245e+57
          1962.25910	         5.96159e+57
          1963.06540	         7.00895e+57
          1963.87170	         7.93953e+57
          1964.67800	         7.35290e+57
          1965.48430	         5.86757e+57
          1966.29060	         6.40930e+57
          1967.09690	         7.74226e+57
          1967.90320	         6.31542e+57
          1968.70950	         6.17563e+57
          1969.51580	         6.40260e+57
          1970.32210	         6.87524e+57
          1971.12840	         6.93705e+57
          1971.93470	         5.22337e+57
          1972.74100	         4.79385e+57
          1973.54730	         6.63577e+57
          1974.35360	         7.48576e+57
          1975.15990	         6.87458e+57
          1975.96620	         6.67896e+57
          1976.77250	         6.71390e+57
          1977.57880	         7.67932e+57
          1978.38510	         5.94747e+57
          1979.19140	         6.56665e+57
          1979.99770	         7.85163e+57
          1980.80400	         6.73217e+57
          1981.61030	         7.00003e+57
          1982.41660	         5.29342e+57
          1983.22290	         5.81063e+57
          1984.02920	         6.05619e+57
          1984.83550	         6.56709e+57
          1985.64180	         7.35729e+57
          1986.44810	         6.59728e+57
          1987.25440	         6.10009e+57
          1988.06070	         5.27942e+57
          1988.86700	         5.92989e+57
          1989.67330	         6.91377e+57
          1990.47960	         6.48650e+57
          1991.28590	         6.43148e+57
          1992.09220	         6.75300e+57
          1992.89850	         5.66535e+57
          1993.70480	         4.96915e+57
          1994.51110	         5.43371e+57
          1995.31740	         4.92061e+57
          1996.12370	         4.42464e+57
          1996.93000	         5.81950e+57
          1997.73630	         7.90292e+57
          1998.54260	         8.51066e+57
          1999.34890	         7.04517e+57
          2000.15520	         6.08848e+57
          2000.96150	         6.56306e+57
          2001.76780	         5.18901e+57
          2002.57410	         4.65385e+57
          2003.38040	         6.93273e+57
          2004.18670	         5.87691e+57
          2004.99300	         5.86642e+57
          2005.79930	         7.08436e+57
          2006.60560	         6.62686e+57
          2007.41190	         5.77485e+57
          2008.21820	         6.07590e+57
          2009.02450	         7.16292e+57
          2009.83080	         6.11233e+57
          2010.63710	         6.44626e+57
          2011.44340	         6.61724e+57
          2012.24970	         7.91455e+57
          2013.05600	         7.45575e+57
          2013.86230	         5.69111e+57
          2014.66860	         5.78442e+57
          2015.47490	         6.74872e+57
          2016.28120	         6.15762e+57
          2017.08750	         5.91612e+57
          2017.89380	         6.38683e+57
          2018.70010	         6.32344e+57
          2019.50640	         6.50840e+57
          2020.31270	         6.48997e+57
          2021.11900	         7.63334e+57
          2021.92530	         6.97583e+57
          2022.73160	         7.33089e+57
          2023.53790	         7.65705e+57
          2024.34420	         7.21219e+57
          2025.15050	         6.85414e+57
          2025.95680	         5.31351e+57
          2026.76310	         6.22126e+57
          2027.56940	         5.49936e+57
          2028.37570	         5.70394e+57
          2029.18200	         5.97085e+57
          2029.98830	         6.96598e+57
          2030.79460	         6.11682e+57
          2031.60090	         6.11519e+57
          2032.40720	         6.15781e+57
          2033.21350	         6.02669e+57
          2034.01980	         5.42452e+57
          2034.82610	         3.23682e+57
          2035.63240	         4.66197e+57
          2036.43870	         5.72005e+57
          2037.24500	         6.39197e+57
          2038.05130	         6.22282e+57
          2038.85760	         5.83635e+57
          2039.66390	         6.16753e+57
          2040.47020	         6.03150e+57
          2041.27650	         6.87937e+57
          2042.08280	         5.72849e+57
          2042.88910	         5.87638e+57
          2043.69540	         6.19157e+57
          2044.50170	         5.74399e+57
          2045.30800	         4.85801e+57
          2046.11430	         4.48534e+57
          2046.92060	         5.98452e+57
          2047.72690	         7.39656e+57
          2048.53320	         5.18733e+57
          2049.33950	         3.81602e+57
          2050.14580	         5.07391e+57
          2050.95210	         5.77042e+57
          2051.75840	         7.15192e+57
          2052.56470	         5.62461e+57
          2053.37100	         5.99801e+57
          2054.17730	         4.29712e+57
          2054.98360	         4.08114e+57
          2055.78990	         3.89059e+57
          2056.59620	         3.28154e+57
          2057.40250	         4.53327e+57
          2058.20880	         7.19191e+57
          2059.01510	         7.01324e+57
          2059.82140	         7.38880e+57
          2060.62770	         1.08143e+58
          2061.43400	         1.70643e+58
          2062.24030	         1.30323e+58
          2063.04660	         7.44611e+57
          2063.85290	         8.81506e+56
          2064.65920	        -1.85687e+57
          2065.46550	        -9.23253e+57
          2066.27180	        -8.60202e+57
          2067.07810	         1.84452e+57
          2067.88440	         5.00042e+57
          2068.69070	         5.40222e+57
          2069.49700	         4.94074e+57
          2070.30330	         4.56209e+57
          2071.10960	         5.60503e+57
          2071.91590	         6.49950e+57
          2072.72220	         2.78072e+57
          2073.52850	         4.06652e+57
          2074.33480	         4.07393e+57
          2075.14110	         4.09881e+57
          2075.94740	         4.11149e+57
          2076.75370	         4.54665e+57
          2077.56000	         4.94069e+57
          2078.36630	         5.42240e+57
          2079.17260	         4.20003e+57
          2079.97890	         5.19467e+57
          2080.78520	         4.66560e+57
          2081.59150	         5.33950e+57
          2082.39780	         4.78761e+57
          2083.20410	         3.66387e+57
          2084.01040	         3.39145e+57
          2084.81670	         3.18035e+57
          2085.62300	         1.50381e+57
          2086.42930	         2.80399e+57
          2087.23560	         5.24160e+57
          2088.04190	         5.15044e+57
          2088.84820	         3.96317e+57
          2089.65450	         2.92331e+57
          2090.46080	         4.99433e+56
          2091.26710	         1.24735e+57
          2092.07340	         2.38651e+57
          2092.87970	         3.51136e+57
          2093.68600	        -5.18497e+56
          2094.49230	        -1.05935e+57
          2095.29860	         5.43255e+57
          2096.10490	         4.57701e+57
          2096.91120	         7.27716e+56
          2097.71750	         3.97597e+56
          2098.52380	        -3.43557e+56
          2099.33010	         1.14560e+57
          2100.13640	         2.71261e+57
          2100.94270	         1.97621e+57
          2101.74900	         4.89510e+57
          2102.55530	         4.34117e+57
          2103.36160	         3.36287e+57
          2104.16790	         3.35552e+57
          2104.97420	         1.09867e+57
          2105.78050	         2.33575e+57
          2106.58680	         2.92126e+57
          2107.39310	         2.45576e+57
          2108.19940	        -4.78356e+55
          2109.00570	        -8.33375e+56
          2109.81200	         2.01721e+57
          2110.61830	         3.03939e+57
          2111.42460	         2.61590e+57
          2112.23090	         1.96036e+57
          2113.03720	         5.52784e+56
          2113.84350	         5.80378e+56
          2114.64980	         2.90893e+57
          2115.45610	         7.09485e+56
          2116.26240	        -1.91523e+57
          2117.06870	        -8.85974e+56
          2117.87500	        -5.39112e+57
          2118.68130	        -3.64216e+57
          2119.48760	        -7.08574e+55
          2120.29390	        -3.52843e+57
          2121.10020	        -6.04971e+57
          2121.90650	        -3.23971e+57
          2122.71280	         4.61436e+57
          2123.51910	        -5.61181e+56
          2124.32540	         1.09919e+57
          2125.13170	        -1.22393e+57
          2125.93800	         1.51249e+57
          2126.74430	        -1.10354e+57
          2127.55060	        -6.96353e+56
          2128.35690	         2.58841e+57
          2129.16320	        -2.59314e+56
          2129.96950	        -2.85023e+55
          2130.77580	        -3.02852e+57
          2131.58210	        -1.93263e+57
          2132.38840	         4.88334e+55
          2133.19470	         2.65535e+57
          2134.00100	         6.71787e+57
          2134.80730	        -6.51928e+57
          2135.61360	         5.91291e+57
          2136.41990	         1.83698e+57
          2137.22620	         5.41449e+56
          2138.03250	         5.89358e+57
          2138.83880	         3.54850e+57
          2139.64510	         2.66886e+57
          2140.45140	        -5.00624e+57
          2141.25770	        -9.66713e+57
          2142.06400	        -3.94896e+57
          2142.87030	         3.60467e+57
          2143.67660	         2.30348e+57
          2144.48290	        -3.05133e+57
          2145.28920	         1.73277e+56
          2146.09550	        -5.20726e+57
          2146.90180	        -7.49831e+57
          2147.70810	        -3.18261e+56
          2148.51440	        -6.31037e+57
          2149.32070	        -1.39879e+58
          2150.12700	        -4.64986e+57
          2150.93330	        -2.61764e+57
          2151.73960	         2.50647e+57
          2152.54590	         3.93327e+57
          2153.35220	         1.98865e+57
          2154.15850	        -8.50150e+56
          2154.96480	         5.72094e+57
          2155.77110	        -6.29631e+57
          2156.57740	        -9.72964e+57
          2157.38370	        -2.81556e+56
          2158.19000	        -1.74833e+57
          2158.99630	        -6.52331e+57
          2159.80260	        -2.23199e+58
          2160.60890	        -3.43762e+57
          2161.41520	         4.42619e+57
          2162.22150	        -5.51222e+57
          2163.02780	        -4.78906e+57
          2163.83410	        -1.26765e+58
          2164.64040	        -9.59960e+57
          2165.44670	        -1.21975e+58
          2166.25300	        -6.24878e+57
          2167.05930	        -8.18749e+57
          2167.86560	         1.88006e+56
          2168.67190	         7.07580e+57
          2169.47820	        -6.13505e+57
          2170.28450	        -5.97978e+57
          2171.09080	        -1.63014e+57
          2171.89710	        -2.75517e+57
          2172.70340	        -5.94149e+56
          2173.50970	        -8.93216e+57
          2174.31600	        -7.99458e+57
          2175.12230	         2.52756e+57
          2175.92860	        -3.70427e+57
          2176.73490	        -5.17395e+57
          2177.54120	        -5.72875e+57
          2178.34750	         4.46127e+55
          2179.15380	                 nan
          2179.96010	                 nan
          2180.76640	                 nan
          2181.57270	                 nan
          2182.37900	                 nan
          2183.18530	                 nan
          2183.99160	                 nan
          2184.79790	                 nan
          2185.60420	                 nan
          2186.41050	                 nan
          2187.21680	                 nan
          2188.02310	                 nan
          2188.82940	                 nan
          2189.63570	                 nan
          2190.44200	                 nan
          2191.24830	                 nan
          2192.05460	                 nan
          2192.86090	                 nan
          2193.66720	                 nan
          2194.47350	                 nan
          2195.27980	                 nan
          2196.08610	                 nan
          2196.89240	                 nan
          2197.69870	                 nan
          2198.50500	                 nan
          2199.31130	                 nan
          2200.11760	                 nan
          2200.92390	                 nan
          2201.73020	                 nan
          2202.53650	                 nan
          2203.34280	                 nan
          2204.14910	                 nan
          2204.95540	                 nan
          2205.76170	                 nan
          2206.56800	                 nan
          2207.37430	                 nan
          2208.18060	                 nan
          2208.98690	                 nan
          2209.79320	                 nan
          2210.59950	                 nan
          2211.40580	                 nan
          2212.21210	                 nan
          2213.01840	                 nan
          2213.82470	                 nan
          2214.63100	                 nan
          2215.43730	         0.00000e+00
