#sample_106_stacked_spectrum_rest_UV-bands_median_H-alpha_noDC.txt
#median Lum: 1.71602e+42
#Rest-frame wavelength (A) | Luminosity (erg/s/A)
#
          1110.00000	         0.00000e+00
          1110.80630	        -4.65103e+59
          1111.61260	         1.86791e+59
          1112.41890	         8.68829e+58
          1113.22520	         5.80486e+58
          1114.03150	        -3.83653e+58
          1114.83780	        -8.82309e+58
          1115.64410	         2.26777e+59
          1116.45040	         2.65627e+59
          1117.25670	         1.42116e+59
          1118.06300	        -3.79487e+57
          1118.86930	        -2.34491e+58
          1119.67560	         8.47441e+58
          1120.48190	        -5.19826e+57
          1121.28820	        -5.08893e+58
          1122.09450	         5.58097e+58
          1122.90080	         2.34384e+58
          1123.70710	         7.38881e+58
          1124.51340	         1.10506e+59
          1125.31970	        -9.06492e+57
          1126.12600	        -4.19195e+57
          1126.93230	        -1.29359e+58
          1127.73860	        -8.06508e+58
          1128.54490	        -7.38314e+57
          1129.35120	         1.68191e+58
          1130.15750	        -9.59061e+56
          1130.96380	        -2.75933e+58
          1131.77010	         7.34212e+57
          1132.57640	         5.06228e+58
          1133.38270	         2.89166e+58
          1134.18900	         1.57440e+58
          1134.99530	         7.82510e+57
          1135.80160	         8.00409e+57
          1136.60790	         2.33350e+57
          1137.41420	        -5.28350e+57
          1138.22050	         3.35744e+58
          1139.02680	         2.80483e+58
          1139.83310	         2.75799e+58
          1140.63940	         2.28428e+58
          1141.44570	         5.46813e+57
          1142.25200	         1.22255e+57
          1143.05830	         2.06759e+58
          1143.86460	         3.59110e+58
          1144.67090	         1.92750e+58
          1145.47720	         1.29025e+58
          1146.28350	         1.24745e+58
          1147.08980	         1.25189e+58
          1147.89610	         1.71275e+58
          1148.70240	         1.97102e+58
          1149.50870	         2.40626e+58
          1150.31500	         3.16953e+56
          1151.12130	        -6.81766e+57
          1151.92760	        -7.97890e+57
          1152.73390	         4.91377e+57
          1153.54020	         1.68748e+58
          1154.34650	         2.50736e+58
          1155.15280	         1.95945e+58
          1155.95910	         1.01502e+58
          1156.76540	         1.60090e+57
          1157.57170	        -3.09210e+57
          1158.37800	        -5.43857e+57
          1159.18430	        -8.88804e+56
          1159.99060	         1.13676e+58
          1160.79690	         1.71740e+57
          1161.60320	         1.08104e+58
          1162.40950	         1.59119e+58
          1163.21580	         1.43590e+58
          1164.02210	         6.01567e+57
          1164.82840	         1.93458e+57
          1165.63470	         2.28039e+58
          1166.44100	         3.27669e+58
          1167.24730	         2.60792e+58
          1168.05360	         1.09212e+58
          1168.85990	         5.08005e+57
          1169.66620	         5.43960e+57
          1170.47250	         6.67399e+57
          1171.27880	         1.26797e+58
          1172.08510	         2.21218e+58
          1172.89140	         1.61713e+58
          1173.69770	        -1.23367e+56
          1174.50400	         7.28718e+57
          1175.31030	         2.21533e+58
          1176.11660	         1.86789e+58
          1176.92290	         1.46019e+58
          1177.72920	         1.23223e+58
          1178.53550	         1.52635e+57
          1179.34180	        -2.24518e+57
          1180.14810	         9.61699e+57
          1180.95440	         1.07026e+58
          1181.76070	         3.06335e+57
          1182.56700	         2.93310e+57
          1183.37330	         4.42884e+57
          1184.17960	         1.11558e+58
          1184.98590	         1.39917e+58
          1185.79220	         9.28319e+57
          1186.59850	         6.38258e+57
          1187.40480	         1.28322e+58
          1188.21110	         2.03442e+58
          1189.01740	         8.97593e+57
          1189.82370	         8.84869e+57
          1190.63000	         1.07122e+58
          1191.43630	         1.73576e+58
          1192.24260	         1.39606e+58
          1193.04890	         1.47191e+58
          1193.85520	         1.44743e+58
          1194.66150	         8.83532e+57
          1195.46780	         1.40277e+58
          1196.27410	         2.06203e+58
          1197.08040	         1.30825e+58
          1197.88670	         1.13242e+58
          1198.69300	         1.43676e+58
          1199.49930	         1.80897e+58
          1200.30560	         1.09484e+58
          1201.11190	         1.00957e+58
          1201.91820	         1.03375e+58
          1202.72450	         1.05432e+58
          1203.53080	         1.23729e+58
          1204.33710	         9.68980e+57
          1205.14340	         7.90757e+57
          1205.94970	         4.94981e+57
          1206.75600	         3.20032e+57
          1207.56230	         7.62414e+57
          1208.36860	         6.67999e+57
          1209.17490	         3.19508e+57
          1209.98120	         3.75088e+57
          1210.78750	         8.54743e+57
          1211.59380	         1.27249e+58
          1212.40010	         1.89201e+58
          1213.20640	         2.19154e+58
          1214.01270	         2.04555e+58
          1214.81900	         2.76859e+58
          1215.62530	         5.04800e+58
          1216.43160	         8.93485e+58
          1217.23790	         1.50387e+59
          1218.04420	         1.19339e+59
          1218.85050	         8.97311e+58
          1219.65680	         6.08812e+58
          1220.46310	         3.52400e+58
          1221.26940	         2.14724e+58
          1222.07570	         1.17323e+58
          1222.88200	         1.10281e+58
          1223.68830	         7.97489e+57
          1224.49460	         8.40167e+57
          1225.30090	         8.92270e+57
          1226.10720	         6.77618e+57
          1226.91350	         7.09225e+57
          1227.71980	         9.17060e+57
          1228.52610	         1.33543e+58
          1229.33240	         7.14854e+57
          1230.13870	         8.24500e+57
          1230.94500	         1.03317e+58
          1231.75130	         5.35747e+57
          1232.55760	         8.12228e+57
          1233.36390	         8.20029e+57
          1234.17020	         6.30749e+57
          1234.97650	         8.57619e+57
          1235.78280	         8.62046e+57
          1236.58910	         8.32789e+57
          1237.39540	         1.06515e+58
          1238.20170	         1.09400e+58
          1239.00800	         1.27785e+58
          1239.81430	         1.45137e+58
          1240.62060	         9.49742e+57
          1241.42690	         1.05099e+58
          1242.23320	         1.18742e+58
          1243.03950	         1.01375e+58
          1243.84580	         9.34465e+57
          1244.65210	         9.22559e+57
          1245.45840	         6.17059e+57
          1246.26470	         7.63205e+57
          1247.07100	         7.73624e+57
          1247.87730	         5.30240e+57
          1248.68360	         4.59586e+57
          1249.48990	         8.48614e+57
          1250.29620	         1.13321e+58
          1251.10250	         6.56318e+57
          1251.90880	         2.85676e+57
          1252.71510	         3.90962e+57
          1253.52140	         7.09227e+57
          1254.32770	         1.07232e+58
          1255.13400	         1.38026e+58
          1255.94030	         1.40172e+58
          1256.74660	         1.14570e+58
          1257.55290	         9.18930e+57
          1258.35920	         5.88592e+57
          1259.16550	         3.92347e+57
          1259.97180	         5.84401e+57
          1260.77810	         1.00948e+58
          1261.58440	         1.12264e+58
          1262.39070	         7.66007e+57
          1263.19700	         1.05273e+58
          1264.00330	         1.10537e+58
          1264.80960	         1.16281e+58
          1265.61590	         1.51957e+58
          1266.42220	         1.42391e+58
          1267.22850	         8.96448e+57
          1268.03480	         1.23648e+58
          1268.84110	         1.51830e+58
          1269.64740	         1.19406e+58
          1270.45370	         1.26740e+58
          1271.26000	         1.11214e+58
          1272.06630	         1.26792e+58
          1272.87260	         1.50215e+58
          1273.67890	         1.30032e+58
          1274.48520	         1.39606e+58
          1275.29150	         1.42372e+58
          1276.09780	         1.16636e+58
          1276.90410	         1.46986e+58
          1277.71040	         1.31392e+58
          1278.51670	         1.19934e+58
          1279.32300	         1.47948e+58
          1280.12930	         1.31090e+58
          1280.93560	         1.28568e+58
          1281.74190	         1.25062e+58
          1282.54820	         1.29032e+58
          1283.35450	         1.31718e+58
          1284.16080	         1.40191e+58
          1284.96710	         1.39470e+58
          1285.77340	         1.03446e+58
          1286.57970	         9.77835e+57
          1287.38600	         1.55853e+58
          1288.19230	         1.90313e+58
          1288.99860	         1.54112e+58
          1289.80490	         1.44889e+58
          1290.61120	         1.39624e+58
          1291.41750	         1.14812e+58
          1292.22380	         1.20699e+58
          1293.03010	         1.15467e+58
          1293.83640	         1.13051e+58
          1294.64270	         1.08323e+58
          1295.44900	         8.19766e+57
          1296.25530	         9.04570e+57
          1297.06160	         1.12030e+58
          1297.86790	         1.25469e+58
          1298.67420	         1.01245e+58
          1299.48050	         9.92640e+57
          1300.28680	         1.19078e+58
          1301.09310	         1.09977e+58
          1301.89940	         5.53504e+57
          1302.70570	         5.73178e+57
          1303.51200	         8.16569e+57
          1304.31830	         9.99407e+57
          1305.12460	         1.14289e+58
          1305.93090	         1.11489e+58
          1306.73720	         1.26440e+58
          1307.54350	         1.39740e+58
          1308.34980	         1.44283e+58
          1309.15610	         1.47648e+58
          1309.96240	         1.30924e+58
          1310.76870	         1.17570e+58
          1311.57500	         1.09937e+58
          1312.38130	         1.16038e+58
          1313.18760	         1.31177e+58
          1313.99390	         1.42270e+58
          1314.80020	         1.61387e+58
          1315.60650	         1.70267e+58
          1316.41280	         1.13638e+58
          1317.21910	         1.05285e+58
          1318.02540	         1.31673e+58
          1318.83170	         1.35905e+58
          1319.63800	         1.09887e+58
          1320.44430	         1.06716e+58
          1321.25060	         1.32380e+58
          1322.05690	         1.26789e+58
          1322.86320	         1.26621e+58
          1323.66950	         1.16746e+58
          1324.47580	         8.50977e+57
          1325.28210	         9.65976e+57
          1326.08840	         1.05275e+58
          1326.89470	         1.15332e+58
          1327.70100	         1.00478e+58
          1328.50730	         8.81593e+57
          1329.31360	         9.36400e+57
          1330.11990	         1.01556e+58
          1330.92620	         9.84392e+57
          1331.73250	         1.15476e+58
          1332.53880	         1.01701e+58
          1333.34510	         8.16369e+57
          1334.15140	         7.59886e+57
          1334.95770	         7.70059e+57
          1335.76400	         9.58583e+57
          1336.57030	         1.16827e+58
          1337.37660	         1.08732e+58
          1338.18290	         1.05696e+58
          1338.98920	         1.18562e+58
          1339.79550	         1.12652e+58
          1340.60180	         1.10994e+58
          1341.40810	         1.26205e+58
          1342.21440	         1.25147e+58
          1343.02070	         1.33929e+58
          1343.82700	         1.28550e+58
          1344.63330	         1.11632e+58
          1345.43960	         1.12564e+58
          1346.24590	         1.13949e+58
          1347.05220	         1.10311e+58
          1347.85850	         1.20504e+58
          1348.66480	         1.42070e+58
          1349.47110	         1.40450e+58
          1350.27740	         1.20785e+58
          1351.08370	         1.20698e+58
          1351.89000	         1.25305e+58
          1352.69630	         1.27170e+58
          1353.50260	         1.25137e+58
          1354.30890	         1.27776e+58
          1355.11520	         1.24494e+58
          1355.92150	         1.13338e+58
          1356.72780	         1.02058e+58
          1357.53410	         1.14310e+58
          1358.34040	         1.24943e+58
          1359.14670	         1.06103e+58
          1359.95300	         1.05334e+58
          1360.75930	         1.22330e+58
          1361.56560	         1.25745e+58
          1362.37190	         1.16961e+58
          1363.17820	         1.04762e+58
          1363.98450	         1.18067e+58
          1364.79080	         1.43757e+58
          1365.59710	         1.47133e+58
          1366.40340	         1.31578e+58
          1367.20970	         1.08772e+58
          1368.01600	         1.01435e+58
          1368.82230	         1.08887e+58
          1369.62860	         1.21930e+58
          1370.43490	         9.42529e+57
          1371.24120	         8.98846e+57
          1372.04750	         9.72976e+57
          1372.85380	         1.14547e+58
          1373.66010	         1.23412e+58
          1374.46640	         1.06299e+58
          1375.27270	         1.05374e+58
          1376.07900	         9.08094e+57
          1376.88530	         8.32648e+57
          1377.69160	         8.34184e+57
          1378.49790	         7.43653e+57
          1379.30420	         6.66446e+57
          1380.11050	         8.31950e+57
          1380.91680	         8.79584e+57
          1381.72310	         8.68682e+57
          1382.52940	         8.96276e+57
          1383.33570	         7.29677e+57
          1384.14200	         8.17237e+57
          1384.94830	         9.78524e+57
          1385.75460	         9.18317e+57
          1386.56090	         1.11604e+58
          1387.36720	         1.10439e+58
          1388.17350	         1.16662e+58
          1388.97980	         1.14056e+58
          1389.78610	         8.53756e+57
          1390.59240	         7.05427e+57
          1391.39870	         6.35237e+57
          1392.20500	         8.69800e+57
          1393.01130	         6.94033e+57
          1393.81760	         7.77477e+57
          1394.62390	         8.36854e+57
          1395.43020	         6.21721e+57
          1396.23650	         6.85523e+57
          1397.04280	         8.69359e+57
          1397.84910	         8.20637e+57
          1398.65540	         8.78616e+57
          1399.46170	         9.30217e+57
          1400.26800	         7.88861e+57
          1401.07430	         8.48555e+57
          1401.88060	         8.91198e+57
          1402.68690	         9.59680e+57
          1403.49320	         9.65955e+57
          1404.29950	         9.43694e+57
          1405.10580	         1.11774e+58
          1405.91210	         1.13336e+58
          1406.71840	         1.15786e+58
          1407.52470	         1.07125e+58
          1408.33100	         9.72098e+57
          1409.13730	         1.16954e+58
          1409.94360	         1.21791e+58
          1410.74990	         1.18619e+58
          1411.55620	         1.13148e+58
          1412.36250	         1.03186e+58
          1413.16880	         9.73462e+57
          1413.97510	         6.92459e+57
          1414.78140	         7.30669e+57
          1415.58770	         9.44104e+57
          1416.39400	         1.12581e+58
          1417.20030	         9.90633e+57
          1418.00660	         8.62659e+57
          1418.81290	         1.05682e+58
          1419.61920	         1.09896e+58
          1420.42550	         1.29316e+58
          1421.23180	         1.52296e+58
          1422.03810	         1.42688e+58
          1422.84440	         1.32694e+58
          1423.65070	         1.28642e+58
          1424.45700	         1.20411e+58
          1425.26330	         8.70054e+57
          1426.06960	         8.28156e+57
          1426.87590	         1.13176e+58
          1427.68220	         1.08096e+58
          1428.48850	         1.02706e+58
          1429.29480	         1.10562e+58
          1430.10110	         1.02684e+58
          1430.90740	         8.03863e+57
          1431.71370	         8.18938e+57
          1432.52000	         8.68579e+57
          1433.32630	         7.84104e+57
          1434.13260	         8.38777e+57
          1434.93890	         8.51456e+57
          1435.74520	         8.38894e+57
          1436.55150	         8.83871e+57
          1437.35780	         8.03717e+57
          1438.16410	         8.92373e+57
          1438.97040	         9.53249e+57
          1439.77670	         9.18271e+57
          1440.58300	         9.81038e+57
          1441.38930	         9.39016e+57
          1442.19560	         9.39933e+57
          1443.00190	         1.00457e+58
          1443.80820	         1.00367e+58
          1444.61450	         9.21709e+57
          1445.42080	         9.29062e+57
          1446.22710	         1.05998e+58
          1447.03340	         1.00123e+58
          1447.83970	         1.08221e+58
          1448.64600	         1.11910e+58
          1449.45230	         1.12826e+58
          1450.25860	         1.01159e+58
          1451.06490	         8.66413e+57
          1451.87120	         8.55602e+57
          1452.67750	         8.30093e+57
          1453.48380	         8.67914e+57
          1454.29010	         7.92643e+57
          1455.09640	         8.14707e+57
          1455.90270	         9.76749e+57
          1456.70900	         9.23863e+57
          1457.51530	         1.01466e+58
          1458.32160	         1.30787e+58
          1459.12790	         1.34067e+58
          1459.93420	         1.05479e+58
          1460.74050	         8.82589e+57
          1461.54680	         8.17448e+57
          1462.35310	         7.69867e+57
          1463.15940	         8.20517e+57
          1463.96570	         1.06692e+58
          1464.77200	         1.18963e+58
          1465.57830	         9.59432e+57
          1466.38460	         7.83022e+57
          1467.19090	         8.49703e+57
          1467.99720	         9.48217e+57
          1468.80350	         1.08678e+58
          1469.60980	         1.10249e+58
          1470.41610	         1.08696e+58
          1471.22240	         8.22458e+57
          1472.02870	         7.80147e+57
          1472.83500	         8.40813e+57
          1473.64130	         9.60289e+57
          1474.44760	         9.66569e+57
          1475.25390	         8.75883e+57
          1476.06020	         9.58886e+57
          1476.86650	         9.08055e+57
          1477.67280	         7.23848e+57
          1478.47910	         6.34565e+57
          1479.28540	         7.12577e+57
          1480.09170	         7.45777e+57
          1480.89800	         7.39787e+57
          1481.70430	         8.02019e+57
          1482.51060	         8.01415e+57
          1483.31690	         7.71165e+57
          1484.12320	         9.01976e+57
          1484.92950	         9.42072e+57
          1485.73580	         9.09234e+57
          1486.54210	         9.71952e+57
          1487.34840	         8.71183e+57
          1488.15470	         7.80072e+57
          1488.96100	         8.37414e+57
          1489.76730	         8.85942e+57
          1490.57360	         9.60568e+57
          1491.37990	         9.51635e+57
          1492.18620	         8.58695e+57
          1492.99250	         7.62972e+57
          1493.79880	         8.46624e+57
          1494.60510	         8.16627e+57
          1495.41140	         6.85246e+57
          1496.21770	         8.20771e+57
          1497.02400	         1.00520e+58
          1497.83030	         8.31250e+57
          1498.63660	         6.69484e+57
          1499.44290	         6.10484e+57
          1500.24920	         7.52435e+57
          1501.05550	         8.41621e+57
          1501.86180	         9.07918e+57
          1502.66810	         8.76242e+57
          1503.47440	         8.50407e+57
          1504.28070	         1.01458e+58
          1505.08700	         1.07367e+58
          1505.89330	         9.96058e+57
          1506.69960	         8.84142e+57
          1507.50590	         8.91352e+57
          1508.31220	         9.95295e+57
          1509.11850	         9.47189e+57
          1509.92480	         9.73585e+57
          1510.73110	         9.84745e+57
          1511.53740	         7.58555e+57
          1512.34370	         6.80711e+57
          1513.15000	         9.07564e+57
          1513.95630	         1.00738e+58
          1514.76260	         9.29283e+57
          1515.56890	         8.84051e+57
          1516.37520	         9.02017e+57
          1517.18150	         8.24622e+57
          1517.98780	         7.01896e+57
          1518.79410	         6.78417e+57
          1519.60040	         9.03961e+57
          1520.40670	         9.92890e+57
          1521.21300	         9.81747e+57
          1522.01930	         9.29980e+57
          1522.82560	         9.66171e+57
          1523.63190	         1.08531e+58
          1524.43820	         8.84041e+57
          1525.24450	         6.59668e+57
          1526.05080	         6.52091e+57
          1526.85710	         5.25190e+57
          1527.66340	         6.14507e+57
          1528.46970	         7.64186e+57
          1529.27600	         8.26483e+57
          1530.08230	         8.78371e+57
          1530.88860	         8.30354e+57
          1531.69490	         8.16491e+57
          1532.50120	         8.79805e+57
          1533.30750	         9.84186e+57
          1534.11380	         9.78475e+57
          1534.92010	         9.10758e+57
          1535.72640	         9.75728e+57
          1536.53270	         1.00564e+58
          1537.33900	         8.43464e+57
          1538.14530	         9.22877e+57
          1538.95160	         9.59694e+57
          1539.75790	         8.45889e+57
          1540.56420	         9.37189e+57
          1541.37050	         9.25574e+57
          1542.17680	         7.99554e+57
          1542.98310	         7.87018e+57
          1543.78940	         8.59998e+57
          1544.59570	         7.46393e+57
          1545.40200	         7.76433e+57
          1546.20830	         9.44764e+57
          1547.01460	         1.01603e+58
          1547.82090	         1.11583e+58
          1548.62720	         1.28446e+58
          1549.43350	         1.18520e+58
          1550.23980	         1.01503e+58
          1551.04610	         1.12469e+58
          1551.85240	         1.25683e+58
          1552.65870	         1.10836e+58
          1553.46500	         1.03809e+58
          1554.27130	         1.03899e+58
          1555.07760	         1.05801e+58
          1555.88390	         9.27740e+57
          1556.69020	         9.52135e+57
          1557.49650	         1.00585e+58
          1558.30280	         9.07022e+57
          1559.10910	         8.46905e+57
          1559.91540	         8.92140e+57
          1560.72170	         9.50892e+57
          1561.52800	         8.87645e+57
          1562.33430	         8.79225e+57
          1563.14060	         8.78578e+57
          1563.94690	         8.60802e+57
          1564.75320	         7.39342e+57
          1565.55950	         6.14901e+57
          1566.36580	         6.43858e+57
          1567.17210	         9.21597e+57
          1567.97840	         9.85936e+57
          1568.78470	         9.10427e+57
          1569.59100	         9.24290e+57
          1570.39730	         8.27245e+57
          1571.20360	         7.41356e+57
          1572.00990	         7.95841e+57
          1572.81620	         9.20279e+57
          1573.62250	         1.03209e+58
          1574.42880	         9.05299e+57
          1575.23510	         7.27888e+57
          1576.04140	         8.28622e+57
          1576.84770	         1.01319e+58
          1577.65400	         9.57098e+57
          1578.46030	         1.02014e+58
          1579.26660	         1.09087e+58
          1580.07290	         9.51952e+57
          1580.87920	         7.84449e+57
          1581.68550	         8.00536e+57
          1582.49180	         8.23743e+57
          1583.29810	         7.95958e+57
          1584.10440	         8.49881e+57
          1584.91070	         8.37781e+57
          1585.71700	         8.68721e+57
          1586.52330	         9.22071e+57
          1587.32960	         9.38968e+57
          1588.13590	         8.88938e+57
          1588.94220	         8.64996e+57
          1589.74850	         9.29960e+57
          1590.55480	         9.40826e+57
          1591.36110	         7.77559e+57
          1592.16740	         8.00096e+57
          1592.97370	         8.48723e+57
          1593.78000	         9.26064e+57
          1594.58630	         9.29398e+57
          1595.39260	         8.65479e+57
          1596.19890	         8.83205e+57
          1597.00520	         9.03722e+57
          1597.81150	         8.80357e+57
          1598.61780	         8.26126e+57
          1599.42410	         7.39196e+57
          1600.23040	         6.26403e+57
          1601.03670	         7.78937e+57
          1601.84300	         7.79726e+57
          1602.64930	         8.50953e+57
          1603.45560	         8.54161e+57
          1604.26190	         8.08819e+57
          1605.06820	         8.84479e+57
          1605.87450	         8.15668e+57
          1606.68080	         7.29761e+57
          1607.48710	         6.43653e+57
          1608.29340	         5.99674e+57
          1609.09970	         7.41711e+57
          1609.90600	         7.94810e+57
          1610.71230	         6.93235e+57
          1611.51860	         6.86759e+57
          1612.32490	         6.85913e+57
          1613.13120	         8.39222e+57
          1613.93750	         9.16867e+57
          1614.74380	         8.88847e+57
          1615.55010	         9.33671e+57
          1616.35640	         1.05155e+58
          1617.16270	         1.12162e+58
          1617.96900	         1.10823e+58
          1618.77530	         9.47918e+57
          1619.58160	         9.09284e+57
          1620.38790	         9.27881e+57
          1621.19420	         9.61982e+57
          1622.00050	         8.47762e+57
          1622.80680	         8.68178e+57
          1623.61310	         8.38115e+57
          1624.41940	         7.17606e+57
          1625.22570	         8.90513e+57
          1626.03200	         8.73862e+57
          1626.83830	         8.04863e+57
          1627.64460	         6.99588e+57
          1628.45090	         6.96121e+57
          1629.25720	         9.49453e+57
          1630.06350	         1.07127e+58
          1630.86980	         7.42089e+57
          1631.67610	         7.66777e+57
          1632.48240	         8.47736e+57
          1633.28870	         8.29742e+57
          1634.09500	         8.51008e+57
          1634.90130	         1.10742e+58
          1635.70760	         9.72375e+57
          1636.51390	         6.90538e+57
          1637.32020	         7.81577e+57
          1638.12650	         8.11400e+57
          1638.93280	         9.49043e+57
          1639.73910	         1.11376e+58
          1640.54540	         1.07888e+58
          1641.35170	         9.23855e+57
          1642.15800	         9.31837e+57
          1642.96430	         8.89806e+57
          1643.77060	         8.52041e+57
          1644.57690	         8.41891e+57
          1645.38320	         8.23953e+57
          1646.18950	         7.33881e+57
          1646.99580	         8.40445e+57
          1647.80210	         8.84125e+57
          1648.60840	         8.23268e+57
          1649.41470	         8.79009e+57
          1650.22100	         7.73412e+57
          1651.02730	         6.98597e+57
          1651.83360	         7.84927e+57
          1652.63990	         9.59151e+57
          1653.44620	         9.23566e+57
          1654.25250	         7.91633e+57
          1655.05880	         8.06812e+57
          1655.86510	         8.20328e+57
          1656.67140	         7.70612e+57
          1657.47770	         8.16174e+57
          1658.28400	         8.71402e+57
          1659.09030	         9.43443e+57
          1659.89660	         8.92899e+57
          1660.70290	         9.99484e+57
          1661.50920	         1.05560e+58
          1662.31550	         9.24667e+57
          1663.12180	         8.90107e+57
          1663.92810	         9.01404e+57
          1664.73440	         1.03574e+58
          1665.54070	         1.26607e+58
          1666.34700	         1.32574e+58
          1667.15330	         1.14754e+58
          1667.95960	         9.63675e+57
          1668.76590	         8.01113e+57
          1669.57220	         7.16097e+57
          1670.37850	         7.54386e+57
          1671.18480	         8.25543e+57
          1671.99110	         8.56044e+57
          1672.79740	         9.09130e+57
          1673.60370	         7.43292e+57
          1674.41000	         6.67430e+57
          1675.21630	         6.78842e+57
          1676.02260	         6.74228e+57
          1676.82890	         7.37801e+57
          1677.63520	         7.90849e+57
          1678.44150	         7.92767e+57
          1679.24780	         8.78937e+57
          1680.05410	         6.76599e+57
          1680.86040	         5.19991e+57
          1681.66670	         7.44425e+57
          1682.47300	         8.06573e+57
          1683.27930	         7.85665e+57
          1684.08560	         8.21879e+57
          1684.89190	         8.16238e+57
          1685.69820	         6.44028e+57
          1686.50450	         5.27600e+57
          1687.31080	         6.87740e+57
          1688.11710	         6.80876e+57
          1688.92340	         6.79595e+57
          1689.72970	         7.42539e+57
          1690.53600	         7.55727e+57
          1691.34230	         7.36388e+57
          1692.14860	         7.63831e+57
          1692.95490	         7.12872e+57
          1693.76120	         6.53615e+57
          1694.56750	         7.02516e+57
          1695.37380	         9.04318e+57
          1696.18010	         8.77540e+57
          1696.98640	         8.12847e+57
          1697.79270	         7.58825e+57
          1698.59900	         7.58451e+57
          1699.40530	         7.35406e+57
          1700.21160	         6.52726e+57
          1701.01790	         6.89255e+57
          1701.82420	         7.64628e+57
          1702.63050	         8.83400e+57
          1703.43680	         8.47173e+57
          1704.24310	         9.05593e+57
          1705.04940	         8.38524e+57
          1705.85570	         8.43343e+57
          1706.66200	         9.82728e+57
          1707.46830	         8.65916e+57
          1708.27460	         7.38834e+57
          1709.08090	         6.62249e+57
          1709.88720	         5.65791e+57
          1710.69350	         5.29496e+57
          1711.49980	         6.52461e+57
          1712.30610	         7.93057e+57
          1713.11240	         9.13401e+57
          1713.91870	         8.80579e+57
          1714.72500	         9.25263e+57
          1715.53130	         8.31109e+57
          1716.33760	         7.13784e+57
          1717.14390	         7.87001e+57
          1717.95020	         9.07981e+57
          1718.75650	         9.51480e+57
          1719.56280	         9.26564e+57
          1720.36910	         8.17256e+57
          1721.17540	         7.72365e+57
          1721.98170	         6.85883e+57
          1722.78800	         6.98407e+57
          1723.59430	         7.33764e+57
          1724.40060	         8.79406e+57
          1725.20690	         9.24836e+57
          1726.01320	         8.77481e+57
          1726.81950	         8.33464e+57
          1727.62580	         7.09934e+57
          1728.43210	         7.40499e+57
          1729.23840	         7.41887e+57
          1730.04470	         7.46481e+57
          1730.85100	         8.19535e+57
          1731.65730	         7.78122e+57
          1732.46360	         7.01960e+57
          1733.26990	         7.04737e+57
          1734.07620	         7.51595e+57
          1734.88250	         7.56259e+57
          1735.68880	         8.24389e+57
          1736.49510	         9.22422e+57
          1737.30140	         8.41261e+57
          1738.10770	         7.53079e+57
          1738.91400	         8.33535e+57
          1739.72030	         7.17163e+57
          1740.52660	         5.70229e+57
          1741.33290	         6.68753e+57
          1742.13920	         6.49216e+57
          1742.94550	         6.06521e+57
          1743.75180	         7.44559e+57
          1744.55810	         7.62994e+57
          1745.36440	         7.12641e+57
          1746.17070	         6.35990e+57
          1746.97700	         5.67150e+57
          1747.78330	         6.88643e+57
          1748.58960	         7.40212e+57
          1749.39590	         6.95541e+57
          1750.20220	         5.72562e+57
          1751.00850	         6.00578e+57
          1751.81480	         6.61109e+57
          1752.62110	         7.62569e+57
          1753.42740	         8.62967e+57
          1754.23370	         7.80041e+57
          1755.04000	         7.44574e+57
          1755.84630	         7.76626e+57
          1756.65260	         7.80870e+57
          1757.45890	         8.43574e+57
          1758.26520	         8.26032e+57
          1759.07150	         9.45534e+57
          1759.87780	         8.41285e+57
          1760.68410	         7.20113e+57
          1761.49040	         8.17913e+57
          1762.29670	         6.72492e+57
          1763.10300	         7.05141e+57
          1763.90930	         7.28124e+57
          1764.71560	         8.05422e+57
          1765.52190	         8.69453e+57
          1766.32820	         8.67566e+57
          1767.13450	         7.93830e+57
          1767.94080	         7.45245e+57
          1768.74710	         7.34176e+57
          1769.55340	         7.06705e+57
          1770.35970	         6.58891e+57
          1771.16600	         8.04168e+57
          1771.97230	         8.68444e+57
          1772.77860	         8.19502e+57
          1773.58490	         7.61775e+57
          1774.39120	         6.51651e+57
          1775.19750	         7.16341e+57
          1776.00380	         7.58664e+57
          1776.81010	         6.57495e+57
          1777.61640	         6.58711e+57
          1778.42270	         6.91163e+57
          1779.22900	         6.33081e+57
          1780.03530	         6.55351e+57
          1780.84160	         7.54590e+57
          1781.64790	         8.89109e+57
          1782.45420	         6.99756e+57
          1783.26050	         6.41754e+57
          1784.06680	         7.08559e+57
          1784.87310	         7.26193e+57
          1785.67940	         7.55440e+57
          1786.48570	         6.98783e+57
          1787.29200	         6.68602e+57
          1788.09830	         6.12323e+57
          1788.90460	         5.67268e+57
          1789.71090	         5.52238e+57
          1790.51720	         4.93149e+57
          1791.32350	         6.54124e+57
          1792.12980	         7.98630e+57
          1792.93610	         7.70348e+57
          1793.74240	         6.96902e+57
          1794.54870	         7.88923e+57
          1795.35500	         8.62030e+57
          1796.16130	         8.70551e+57
          1796.96760	         7.02096e+57
          1797.77390	         7.87653e+57
          1798.58020	         8.26077e+57
          1799.38650	         6.67213e+57
          1800.19280	         6.92901e+57
          1800.99910	         7.78297e+57
          1801.80540	         7.34761e+57
          1802.61170	         8.68058e+57
          1803.41800	         8.07211e+57
          1804.22430	         7.43609e+57
          1805.03060	         7.23605e+57
          1805.83690	         6.48928e+57
          1806.64320	         7.53771e+57
          1807.44950	         8.18802e+57
          1808.25580	         7.20935e+57
          1809.06210	         7.52396e+57
          1809.86840	         6.23920e+57
          1810.67470	         7.30332e+57
          1811.48100	         9.15893e+57
          1812.28730	         9.21277e+57
          1813.09360	         8.20704e+57
          1813.89990	         8.42138e+57
          1814.70620	         8.18964e+57
          1815.51250	         8.98239e+57
          1816.31880	         8.66764e+57
          1817.12510	         7.70908e+57
          1817.93140	         6.51863e+57
          1818.73770	         8.08421e+57
          1819.54400	         8.79137e+57
          1820.35030	         9.05264e+57
          1821.15660	         6.58320e+57
          1821.96290	         5.86134e+57
          1822.76920	         8.65759e+57
          1823.57550	         8.46983e+57
          1824.38180	         7.49775e+57
          1825.18810	         8.24256e+57
          1825.99440	         8.95654e+57
          1826.80070	         8.15499e+57
          1827.60700	         6.84320e+57
          1828.41330	         6.19512e+57
          1829.21960	         6.82539e+57
          1830.02590	         7.20794e+57
          1830.83220	         8.12997e+57
          1831.63850	         8.34059e+57
          1832.44480	         8.06075e+57
          1833.25110	         8.62128e+57
          1834.05740	         8.99358e+57
          1834.86370	         7.22535e+57
          1835.67000	         5.67237e+57
          1836.47630	         6.67027e+57
          1837.28260	         8.72513e+57
          1838.08890	         8.93193e+57
          1838.89520	         8.49518e+57
          1839.70150	         8.32440e+57
          1840.50780	         7.84704e+57
          1841.31410	         6.88986e+57
          1842.12040	         7.38817e+57
          1842.92670	         7.22807e+57
          1843.73300	         7.41618e+57
          1844.53930	         7.80947e+57
          1845.34560	         7.39516e+57
          1846.15190	         7.39286e+57
          1846.95820	         7.70052e+57
          1847.76450	         7.29074e+57
          1848.57080	         6.16164e+57
          1849.37710	         7.20016e+57
          1850.18340	         7.50926e+57
          1850.98970	         7.63449e+57
          1851.79600	         8.56451e+57
          1852.60230	         8.10031e+57
          1853.40860	         7.54497e+57
          1854.21490	         7.02503e+57
          1855.02120	         5.36637e+57
          1855.82750	         4.89810e+57
          1856.63380	         6.08662e+57
          1857.44010	         7.37153e+57
          1858.24640	         7.36086e+57
          1859.05270	         7.07694e+57
          1859.85900	         6.07514e+57
          1860.66530	         6.08354e+57
          1861.47160	         7.08065e+57
          1862.27790	         7.40960e+57
          1863.08420	         7.94175e+57
          1863.89050	         7.84956e+57
          1864.69680	         7.87813e+57
          1865.50310	         8.06902e+57
          1866.30940	         6.09816e+57
          1867.11570	         5.34523e+57
          1867.92200	         6.75241e+57
          1868.72830	         8.17399e+57
          1869.53460	         6.62237e+57
          1870.34090	         7.80267e+57
          1871.14720	         8.75027e+57
          1871.95350	         7.32557e+57
          1872.75980	         7.16260e+57
          1873.56610	         7.57504e+57
          1874.37240	         5.75379e+57
          1875.17870	         5.31074e+57
          1875.98500	         7.83889e+57
          1876.79130	         8.23959e+57
          1877.59760	         7.13633e+57
          1878.40390	         6.75088e+57
          1879.21020	         6.80098e+57
          1880.01650	         7.10014e+57
          1880.82280	         7.59937e+57
          1881.62910	         9.52858e+57
          1882.43540	         1.00442e+58
          1883.24170	         8.42470e+57
          1884.04800	         6.43446e+57
          1884.85430	         7.03690e+57
          1885.66060	         8.34004e+57
          1886.46690	         8.03881e+57
          1887.27320	         6.84352e+57
          1888.07950	         6.10394e+57
          1888.88580	         6.79897e+57
          1889.69210	         8.98742e+57
          1890.49840	         8.10934e+57
          1891.30470	         6.93055e+57
          1892.11100	         8.51238e+57
          1892.91730	         7.66441e+57
          1893.72360	         7.66889e+57
          1894.52990	         7.28099e+57
          1895.33620	         7.38556e+57
          1896.14250	         6.84525e+57
          1896.94880	         6.00780e+57
          1897.75510	         4.82128e+57
          1898.56140	         6.15546e+57
          1899.36770	         8.11534e+57
          1900.17400	         6.16266e+57
          1900.98030	         6.49826e+57
          1901.78660	         7.76102e+57
          1902.59290	         8.32901e+57
          1903.39920	         8.64951e+57
          1904.20550	         9.82443e+57
          1905.01180	         8.95382e+57
          1905.81810	         1.02095e+58
          1906.62440	         1.33874e+58
          1907.43070	         1.54979e+58
          1908.23700	         1.56240e+58
          1909.04330	         1.32036e+58
          1909.84960	         1.02800e+58
          1910.65590	         8.02927e+57
          1911.46220	         9.03151e+57
          1912.26850	         7.30980e+57
          1913.07480	         6.15213e+57
          1913.88110	         6.55037e+57
          1914.68740	         6.16324e+57
          1915.49370	         5.85621e+57
          1916.30000	         6.45004e+57
          1917.10630	         6.63770e+57
          1917.91260	         6.34856e+57
          1918.71890	         6.69369e+57
          1919.52520	         6.04589e+57
          1920.33150	         4.77954e+57
          1921.13780	         6.55653e+57
          1921.94410	         7.95245e+57
          1922.75040	         7.81717e+57
          1923.55670	         7.00460e+57
          1924.36300	         7.01055e+57
          1925.16930	         6.60750e+57
          1925.97560	         6.04051e+57
          1926.78190	         5.12691e+57
          1927.58820	         6.29242e+57
          1928.39450	         5.98000e+57
          1929.20080	         5.92196e+57
          1930.00710	         6.82583e+57
          1930.81340	         7.40972e+57
          1931.61970	         6.89508e+57
          1932.42600	         6.93559e+57
          1933.23230	         8.01683e+57
          1934.03860	         6.65367e+57
          1934.84490	         6.30175e+57
          1935.65120	         7.89258e+57
          1936.45750	         8.25911e+57
          1937.26380	         6.42039e+57
          1938.07010	         6.19209e+57
          1938.87640	         7.63696e+57
          1939.68270	         7.01996e+57
          1940.48900	         7.33814e+57
          1941.29530	         8.44499e+57
          1942.10160	         7.99059e+57
          1942.90790	         7.85155e+57
          1943.71420	         6.74010e+57
          1944.52050	         6.21725e+57
          1945.32680	         6.34382e+57
          1946.13310	         7.81072e+57
          1946.93940	         8.23154e+57
          1947.74570	         6.78451e+57
          1948.55200	         5.25650e+57
          1949.35830	         7.14611e+57
          1950.16460	         6.30776e+57
          1950.97090	         6.89082e+57
          1951.77720	         8.16255e+57
          1952.58350	         8.13988e+57
          1953.38980	         7.00115e+57
          1954.19610	         5.53295e+57
          1955.00240	         5.64143e+57
          1955.80870	         6.13081e+57
          1956.61500	         6.30893e+57
          1957.42130	         5.54311e+57
          1958.22760	         6.93072e+57
          1959.03390	         7.80059e+57
          1959.84020	         7.38074e+57
          1960.64650	         7.49297e+57
          1961.45280	         6.16509e+57
          1962.25910	         6.46878e+57
          1963.06540	         6.61451e+57
          1963.87170	         6.51718e+57
          1964.67800	         7.20833e+57
          1965.48430	         6.82347e+57
          1966.29060	         7.03489e+57
          1967.09690	         7.70848e+57
          1967.90320	         7.46279e+57
          1968.70950	         7.29122e+57
          1969.51580	         6.20530e+57
          1970.32210	         7.54883e+57
          1971.12840	         8.20947e+57
          1971.93470	         5.48350e+57
          1972.74100	         5.24293e+57
          1973.54730	         6.85378e+57
          1974.35360	         8.58441e+57
          1975.15990	         8.43523e+57
          1975.96620	         7.43267e+57
          1976.77250	         8.04825e+57
          1977.57880	         7.93716e+57
          1978.38510	         6.81320e+57
          1979.19140	         7.35578e+57
          1979.99770	         7.73495e+57
          1980.80400	         7.82795e+57
          1981.61030	         7.79384e+57
          1982.41660	         6.00735e+57
          1983.22290	         6.37764e+57
          1984.02920	         5.59402e+57
          1984.83550	         5.85407e+57
          1985.64180	         7.27088e+57
          1986.44810	         6.81427e+57
          1987.25440	         6.36198e+57
          1988.06070	         5.65068e+57
          1988.86700	         6.01926e+57
          1989.67330	         7.21972e+57
          1990.47960	         7.01332e+57
          1991.28590	         6.54385e+57
          1992.09220	         5.94488e+57
          1992.89850	         5.55120e+57
          1993.70480	         5.65531e+57
          1994.51110	         4.29139e+57
          1995.31740	         4.87315e+57
          1996.12370	         6.23128e+57
          1996.93000	         6.81366e+57
          1997.73630	         7.95183e+57
          1998.54260	         5.04972e+57
          1999.34890	         5.83065e+57
          2000.15520	         6.56629e+57
          2000.96150	         6.46212e+57
          2001.76780	         6.25207e+57
          2002.57410	         5.09816e+57
          2003.38040	         6.16435e+57
          2004.18670	         5.96586e+57
          2004.99300	         5.78748e+57
          2005.79930	         6.89575e+57
          2006.60560	         6.40327e+57
          2007.41190	         6.32227e+57
          2008.21820	         6.27653e+57
          2009.02450	         7.14162e+57
          2009.83080	         6.23796e+57
          2010.63710	         6.32747e+57
          2011.44340	         6.48917e+57
          2012.24970	         7.15708e+57
          2013.05600	         6.65459e+57
          2013.86230	         5.73438e+57
          2014.66860	         5.44169e+57
          2015.47490	         6.68672e+57
          2016.28120	         6.19546e+57
          2017.08750	         5.76742e+57
          2017.89380	         5.71888e+57
          2018.70010	         6.48435e+57
          2019.50640	         6.04939e+57
          2020.31270	         6.92554e+57
          2021.11900	         7.37578e+57
          2021.92530	         6.78621e+57
          2022.73160	         7.83931e+57
          2023.53790	         7.07207e+57
          2024.34420	         5.92958e+57
          2025.15050	         4.97752e+57
          2025.95680	         5.33394e+57
          2026.76310	         6.16901e+57
          2027.56940	         6.87371e+57
          2028.37570	         7.69350e+57
          2029.18200	         6.70286e+57
          2029.98830	         6.72317e+57
          2030.79460	         6.86725e+57
          2031.60090	         6.59577e+57
          2032.40720	         6.20480e+57
          2033.21350	         5.78094e+57
          2034.01980	         4.80333e+57
          2034.82610	         4.56518e+57
          2035.63240	         4.92642e+57
          2036.43870	         4.55415e+57
          2037.24500	         5.24154e+57
          2038.05130	         5.63974e+57
          2038.85760	         5.55476e+57
          2039.66390	         5.70487e+57
          2040.47020	         6.45462e+57
          2041.27650	         7.06027e+57
          2042.08280	         6.26733e+57
          2042.88910	         6.48943e+57
          2043.69540	         6.85897e+57
          2044.50170	         6.01266e+57
          2045.30800	         5.45221e+57
          2046.11430	         3.84817e+57
          2046.92060	         5.38458e+57
          2047.72690	         6.17631e+57
          2048.53320	         6.77058e+57
          2049.33950	         6.69212e+57
          2050.14580	         6.80614e+57
          2050.95210	         6.42668e+57
          2051.75840	         7.35070e+57
          2052.56470	         6.60899e+57
          2053.37100	         4.60306e+57
          2054.17730	         4.44309e+57
          2054.98360	         5.98786e+57
          2055.78990	         3.75516e+57
          2056.59620	         2.71862e+57
          2057.40250	         4.72547e+57
          2058.20880	         7.82238e+57
          2059.01510	         6.62196e+57
          2059.82140	         7.38374e+57
          2060.62770	         9.80230e+57
          2061.43400	         1.70421e+58
          2062.24030	         1.17967e+58
          2063.04660	         6.50632e+57
          2063.85290	         1.33249e+57
          2064.65920	        -2.00370e+57
          2065.46550	        -6.23666e+57
          2066.27180	        -6.40825e+57
          2067.07810	         4.19016e+57
          2067.88440	         6.06287e+57
          2068.69070	         4.77664e+57
          2069.49700	         5.00488e+57
          2070.30330	         4.89104e+57
          2071.10960	         5.56016e+57
          2071.91590	         6.90120e+57
          2072.72220	         4.82128e+57
          2073.52850	         5.54109e+57
          2074.33480	         5.99673e+57
          2075.14110	         4.02906e+57
          2075.94740	         4.02937e+57
          2076.75370	         5.78725e+57
          2077.56000	         4.28625e+57
          2078.36630	         5.04160e+57
          2079.17260	         5.51238e+57
          2079.97890	         5.27153e+57
          2080.78520	         5.44909e+57
          2081.59150	         5.54834e+57
          2082.39780	         5.57515e+57
          2083.20410	         4.61592e+57
          2084.01040	         3.68341e+57
          2084.81670	         3.72657e+57
          2085.62300	         4.44211e+57
          2086.42930	         3.74885e+57
          2087.23560	         1.31864e+57
          2088.04190	         2.27664e+57
          2088.84820	         3.58474e+57
          2089.65450	         2.76649e+57
          2090.46080	         2.25533e+57
          2091.26710	         2.53599e+57
          2092.07340	         3.31977e+57
          2092.87970	         2.38868e+57
          2093.68600	        -1.03304e+57
          2094.49230	         3.30832e+55
          2095.29860	         6.60008e+57
          2096.10490	         2.54181e+57
          2096.91120	         1.99984e+57
          2097.71750	         2.18261e+57
          2098.52380	         1.15289e+56
          2099.33010	         1.60151e+57
          2100.13640	         3.46377e+57
          2100.94270	         3.18152e+57
          2101.74900	         2.48029e+57
          2102.55530	         2.17298e+57
          2103.36160	         1.12375e+57
          2104.16790	         5.28041e+57
          2104.97420	         2.83497e+57
          2105.78050	        -4.52759e+56
          2106.58680	        -4.33937e+56
          2107.39310	        -3.83646e+57
          2108.19940	         1.84973e+56
          2109.00570	        -1.59197e+57
          2109.81200	        -2.91026e+57
          2110.61830	         1.34702e+57
          2111.42460	         2.94948e+57
          2112.23090	         9.66044e+56
          2113.03720	        -5.39008e+56
          2113.84350	         3.25615e+56
          2114.64980	         2.70467e+57
          2115.45610	         4.08890e+55
          2116.26240	         7.26628e+56
          2117.06870	        -4.31909e+56
          2117.87500	        -2.50196e+57
          2118.68130	         1.51253e+57
          2119.48760	         3.61442e+56
          2120.29390	        -6.17523e+56
          2121.10020	        -3.23722e+57
          2121.90650	         2.25087e+57
          2122.71280	         2.47325e+57
          2123.51910	         1.90889e+57
          2124.32540	         1.86097e+57
          2125.13170	         2.41287e+57
          2125.93800	         2.69255e+57
          2126.74430	        -1.24082e+57
          2127.55060	        -7.08376e+57
          2128.35690	        -4.35473e+57
          2129.16320	        -5.89662e+57
          2129.96950	        -5.85651e+57
          2130.77580	        -1.94501e+57
          2131.58210	        -3.28789e+57
          2132.38840	         1.57075e+57
          2133.19470	         4.47635e+57
          2134.00100	        -1.85556e+57
          2134.80730	        -1.31511e+58
          2135.61360	         2.13230e+57
          2136.41990	         3.13636e+57
          2137.22620	         2.02595e+57
          2138.03250	        -2.52420e+57
          2138.83880	        -1.21260e+58
          2139.64510	        -6.14848e+57
          2140.45140	        -8.24220e+57
          2141.25770	        -1.59694e+58
          2142.06400	        -1.10376e+58
          2142.87030	        -7.16411e+56
          2143.67660	         5.93290e+57
          2144.48290	        -2.16254e+57
          2145.28920	         3.12512e+57
          2146.09550	        -1.20329e+57
          2146.90180	        -1.06970e+58
          2147.70810	        -8.03295e+57
          2148.51440	        -1.01374e+58
          2149.32070	        -1.36708e+58
          2150.12700	        -1.07494e+58
          2150.93330	        -6.71821e+57
          2151.73960	         2.84988e+57
          2152.54590	         2.94161e+56
          2153.35220	        -4.73621e+57
          2154.15850	        -1.01602e+57
          2154.96480	        -1.54970e+57
          2155.77110	        -4.53355e+56
          2156.57740	        -2.15941e+57
          2157.38370	        -2.20921e+56
          2158.19000	        -1.69762e+57
          2158.99630	        -4.34804e+57
          2159.80260	        -1.25235e+58
          2160.60890	         3.77966e+56
          2161.41520	         2.54856e+55
          2162.22150	        -5.74750e+57
          2163.02780	         1.94413e+57
          2163.83410	        -3.42491e+57
          2164.64040	        -6.22556e+57
          2165.44670	        -3.58644e+57
          2166.25300	        -1.33123e+58
          2167.05930	        -7.00976e+57
          2167.86560	        -6.12045e+57
          2168.67190	        -1.06277e+58
          2169.47820	        -4.76622e+57
          2170.28450	         5.59607e+56
          2171.09080	        -2.83417e+57
          2171.89710	         1.40578e+57
          2172.70340	         4.46487e+57
          2173.50970	        -1.11278e+58
          2174.31600	        -1.03434e+58
          2175.12230	        -1.26971e+57
          2175.92860	        -5.25039e+57
          2176.73490	        -9.58922e+57
          2177.54120	        -1.10110e+58
          2178.34750	        -5.03989e+57
          2179.15380	                 nan
          2179.96010	                 nan
          2180.76640	                 nan
          2181.57270	                 nan
          2182.37900	                 nan
          2183.18530	                 nan
          2183.99160	                 nan
          2184.79790	                 nan
          2185.60420	                 nan
          2186.41050	                 nan
          2187.21680	                 nan
          2188.02310	                 nan
          2188.82940	                 nan
          2189.63570	                 nan
          2190.44200	                 nan
          2191.24830	                 nan
          2192.05460	                 nan
          2192.86090	                 nan
          2193.66720	                 nan
          2194.47350	                 nan
          2195.27980	                 nan
          2196.08610	                 nan
          2196.89240	                 nan
          2197.69870	                 nan
          2198.50500	                 nan
          2199.31130	                 nan
          2200.11760	                 nan
          2200.92390	                 nan
          2201.73020	                 nan
          2202.53650	                 nan
          2203.34280	                 nan
          2204.14910	                 nan
          2204.95540	                 nan
          2205.76170	                 nan
          2206.56800	                 nan
          2207.37430	                 nan
          2208.18060	                 nan
          2208.98690	                 nan
          2209.79320	                 nan
          2210.59950	                 nan
          2211.40580	                 nan
          2212.21210	                 nan
          2213.01840	                 nan
          2213.82470	                 nan
          2214.63100	                 nan
          2215.43730	         0.00000e+00
