#sample_120_stacked_spectrum_rest_UV-bands_median_H-alpha_noDC.txt
#median Lum: 1.70195e+42
#Rest-frame wavelength (A) | Luminosity (erg/s/A)
#
          1110.00000	         0.00000e+00
          1110.80630	        -2.98792e+59
          1111.61260	         4.16134e+59
          1112.41890	         2.90924e+59
          1113.22520	        -8.34123e+58
          1114.03150	        -1.04913e+57
          1114.83780	         2.75799e+59
          1115.64410	         1.81914e+59
          1116.45040	         1.22858e+59
          1117.25670	        -1.63274e+59
          1118.06300	         9.47460e+58
          1118.86930	        -1.01445e+59
          1119.67560	         6.88719e+58
          1120.48190	        -5.20754e+58
          1121.28820	        -1.58575e+59
          1122.09450	         1.42865e+58
          1122.90080	         1.20018e+58
          1123.70710	         1.14981e+58
          1124.51340	         6.65195e+58
          1125.31970	        -2.31359e+58
          1126.12600	        -1.60749e+58
          1126.93230	        -3.17731e+58
          1127.73860	        -6.15314e+58
          1128.54490	        -6.54752e+57
          1129.35120	        -2.24372e+58
          1130.15750	        -6.05804e+57
          1130.96380	        -3.56689e+58
          1131.77010	         8.58174e+58
          1132.57640	         2.82729e+57
          1133.38270	        -6.09803e+57
          1134.18900	        -5.28931e+57
          1134.99530	         1.68661e+58
          1135.80160	         1.67455e+58
          1136.60790	         3.68903e+58
          1137.41420	         9.86683e+57
          1138.22050	         4.29127e+58
          1139.02680	         2.03418e+58
          1139.83310	         2.32273e+58
          1140.63940	         1.21561e+58
          1141.44570	        -1.58237e+58
          1142.25200	        -1.12540e+58
          1143.05830	         2.61411e+58
          1143.86460	         3.79905e+58
          1144.67090	         4.66384e+58
          1145.47720	         2.40910e+58
          1146.28350	         3.12425e+57
          1147.08980	         1.24845e+58
          1147.89610	         1.53116e+58
          1148.70240	         3.39777e+58
          1149.50870	         3.74906e+58
          1150.31500	         2.18619e+58
          1151.12130	         4.71517e+57
          1151.92760	        -1.43772e+57
          1152.73390	         2.70888e+57
          1153.54020	         5.72594e+57
          1154.34650	         2.35798e+58
          1155.15280	         2.20271e+58
          1155.95910	         1.34149e+58
          1156.76540	         3.27581e+57
          1157.57170	        -1.18119e+58
          1158.37800	        -1.38264e+58
          1159.18430	        -8.32001e+56
          1159.99060	         5.96374e+57
          1160.79690	         5.59280e+56
          1161.60320	         1.04221e+58
          1162.40950	         7.29049e+57
          1163.21580	         1.52689e+58
          1164.02210	         1.43409e+58
          1164.82840	         9.34004e+57
          1165.63470	         2.86679e+58
          1166.44100	         2.66533e+58
          1167.24730	         1.67551e+58
          1168.05360	         9.45582e+57
          1168.85990	         6.36913e+57
          1169.66620	         9.11864e+57
          1170.47250	         1.44912e+58
          1171.27880	         1.10190e+58
          1172.08510	         1.23293e+58
          1172.89140	         1.24956e+58
          1173.69770	         5.52524e+57
          1174.50400	         9.37747e+57
          1175.31030	         1.45287e+58
          1176.11660	         1.88820e+58
          1176.92290	         1.34637e+58
          1177.72920	         1.26993e+58
          1178.53550	         9.21967e+57
          1179.34180	         1.92699e+57
          1180.14810	         1.01998e+58
          1180.95440	         1.37712e+58
          1181.76070	         1.14162e+58
          1182.56700	         1.11557e+58
          1183.37330	         9.25709e+57
          1184.17960	         1.25545e+58
          1184.98590	         1.37052e+58
          1185.79220	         7.67130e+57
          1186.59850	         9.33050e+57
          1187.40480	         9.97744e+57
          1188.21110	         1.73951e+58
          1189.01740	         1.38450e+58
          1189.82370	         1.53332e+58
          1190.63000	         1.50667e+58
          1191.43630	         1.45450e+58
          1192.24260	         1.40070e+58
          1193.04890	         1.27782e+58
          1193.85520	         1.26927e+58
          1194.66150	         5.40287e+57
          1195.46780	         9.91493e+57
          1196.27410	         1.52498e+58
          1197.08040	         1.04250e+58
          1197.88670	         1.39653e+58
          1198.69300	         1.70224e+58
          1199.49930	         1.74617e+58
          1200.30560	         1.08504e+58
          1201.11190	         9.35723e+57
          1201.91820	         1.11264e+58
          1202.72450	         8.58632e+57
          1203.53080	         1.54817e+58
          1204.33710	         8.45480e+57
          1205.14340	         9.57093e+57
          1205.94970	         7.88805e+57
          1206.75600	         8.52243e+57
          1207.56230	         6.58093e+57
          1208.36860	         9.67604e+57
          1209.17490	         5.96871e+57
          1209.98120	         4.85384e+57
          1210.78750	         8.69438e+57
          1211.59380	         1.24173e+58
          1212.40010	         1.81283e+58
          1213.20640	         2.11055e+58
          1214.01270	         2.03705e+58
          1214.81900	         2.45898e+58
          1215.62530	         4.77049e+58
          1216.43160	         9.36960e+58
          1217.23790	         1.53862e+59
          1218.04420	         1.14936e+59
          1218.85050	         8.52357e+58
          1219.65680	         5.88911e+58
          1220.46310	         3.73953e+58
          1221.26940	         2.05603e+58
          1222.07570	         8.69416e+57
          1222.88200	         1.04636e+58
          1223.68830	         6.28078e+57
          1224.49460	         4.50204e+57
          1225.30090	         6.86362e+57
          1226.10720	         5.66680e+57
          1226.91350	         6.39629e+57
          1227.71980	         8.30159e+57
          1228.52610	         1.47973e+58
          1229.33240	         1.34618e+58
          1230.13870	         8.11532e+57
          1230.94500	         6.52590e+57
          1231.75130	         5.43076e+57
          1232.55760	         7.12021e+57
          1233.36390	         6.24371e+57
          1234.17020	         6.19057e+57
          1234.97650	         6.62830e+57
          1235.78280	         7.97472e+57
          1236.58910	         9.80877e+57
          1237.39540	         1.01417e+58
          1238.20170	         9.55811e+57
          1239.00800	         1.08555e+58
          1239.81430	         1.25850e+58
          1240.62060	         9.26416e+57
          1241.42690	         1.01399e+58
          1242.23320	         1.17116e+58
          1243.03950	         1.02793e+58
          1243.84580	         1.03435e+58
          1244.65210	         1.03457e+58
          1245.45840	         1.12901e+58
          1246.26470	         1.13932e+58
          1247.07100	         7.91041e+57
          1247.87730	         6.28195e+57
          1248.68360	         4.81550e+57
          1249.48990	         6.87014e+57
          1250.29620	         1.07605e+58
          1251.10250	         1.05718e+58
          1251.90880	         7.29591e+57
          1252.71510	         6.71804e+57
          1253.52140	         6.71531e+57
          1254.32770	         9.71929e+57
          1255.13400	         1.37688e+58
          1255.94030	         9.61591e+57
          1256.74660	         7.66997e+57
          1257.55290	         1.11204e+58
          1258.35920	         1.06427e+58
          1259.16550	         7.85645e+57
          1259.97180	         6.29767e+57
          1260.77810	         8.33975e+57
          1261.58440	         1.05991e+58
          1262.39070	         8.07655e+57
          1263.19700	         7.25790e+57
          1264.00330	         8.16180e+57
          1264.80960	         1.08803e+58
          1265.61590	         1.26619e+58
          1266.42220	         1.32178e+58
          1267.22850	         1.20555e+58
          1268.03480	         1.33679e+58
          1268.84110	         1.29933e+58
          1269.64740	         1.12352e+58
          1270.45370	         1.25621e+58
          1271.26000	         9.83959e+57
          1272.06630	         9.91519e+57
          1272.87260	         1.34322e+58
          1273.67890	         1.39044e+58
          1274.48520	         1.43662e+58
          1275.29150	         1.31591e+58
          1276.09780	         1.24431e+58
          1276.90410	         1.49454e+58
          1277.71040	         1.45109e+58
          1278.51670	         1.31640e+58
          1279.32300	         1.36244e+58
          1280.12930	         1.22571e+58
          1280.93560	         1.04453e+58
          1281.74190	         1.18012e+58
          1282.54820	         1.15936e+58
          1283.35450	         9.90554e+57
          1284.16080	         1.07784e+58
          1284.96710	         1.08649e+58
          1285.77340	         9.65894e+57
          1286.57970	         1.13500e+58
          1287.38600	         1.62561e+58
          1288.19230	         1.91424e+58
          1288.99860	         1.69739e+58
          1289.80490	         1.23484e+58
          1290.61120	         1.44041e+58
          1291.41750	         1.44432e+58
          1292.22380	         1.23377e+58
          1293.03010	         1.17895e+58
          1293.83640	         1.11597e+58
          1294.64270	         8.14144e+57
          1295.44900	         5.93065e+57
          1296.25530	         6.80282e+57
          1297.06160	         1.03233e+58
          1297.86790	         1.09657e+58
          1298.67420	         8.08125e+57
          1299.48050	         6.29704e+57
          1300.28680	         9.37928e+57
          1301.09310	         8.69251e+57
          1301.89940	         4.78162e+57
          1302.70570	         6.38488e+57
          1303.51200	         8.24867e+57
          1304.31830	         9.63893e+57
          1305.12460	         1.16090e+58
          1305.93090	         1.24309e+58
          1306.73720	         1.25855e+58
          1307.54350	         1.24519e+58
          1308.34980	         1.25334e+58
          1309.15610	         1.48803e+58
          1309.96240	         1.31854e+58
          1310.76870	         1.01126e+58
          1311.57500	         1.04541e+58
          1312.38130	         9.93629e+57
          1313.18760	         1.16176e+58
          1313.99390	         1.63334e+58
          1314.80020	         1.56883e+58
          1315.60650	         1.19422e+58
          1316.41280	         1.10029e+58
          1317.21910	         1.11421e+58
          1318.02540	         1.18718e+58
          1318.83170	         1.34097e+58
          1319.63800	         1.20488e+58
          1320.44430	         9.65552e+57
          1321.25060	         1.16146e+58
          1322.05690	         1.38511e+58
          1322.86320	         1.26305e+58
          1323.66950	         1.06123e+58
          1324.47580	         9.73595e+57
          1325.28210	         9.94843e+57
          1326.08840	         1.06625e+58
          1326.89470	         1.13940e+58
          1327.70100	         9.37741e+57
          1328.50730	         8.30642e+57
          1329.31360	         9.66722e+57
          1330.11990	         9.51677e+57
          1330.92620	         9.05130e+57
          1331.73250	         1.12712e+58
          1332.53880	         1.06134e+58
          1333.34510	         9.22946e+57
          1334.15140	         9.30187e+57
          1334.95770	         9.27431e+57
          1335.76400	         1.09369e+58
          1336.57030	         1.12651e+58
          1337.37660	         1.04508e+58
          1338.18290	         1.16973e+58
          1338.98920	         1.19834e+58
          1339.79550	         1.10691e+58
          1340.60180	         1.36197e+58
          1341.40810	         1.50150e+58
          1342.21440	         1.15725e+58
          1343.02070	         1.23922e+58
          1343.82700	         1.34294e+58
          1344.63330	         1.23133e+58
          1345.43960	         1.17425e+58
          1346.24590	         1.05985e+58
          1347.05220	         1.24829e+58
          1347.85850	         1.16064e+58
          1348.66480	         9.87716e+57
          1349.47110	         1.02427e+58
          1350.27740	         1.06292e+58
          1351.08370	         1.10922e+58
          1351.89000	         1.03743e+58
          1352.69630	         1.07404e+58
          1353.50260	         1.14635e+58
          1354.30890	         1.16579e+58
          1355.11520	         1.06493e+58
          1355.92150	         1.01594e+58
          1356.72780	         1.08957e+58
          1357.53410	         1.12409e+58
          1358.34040	         1.12546e+58
          1359.14670	         1.17092e+58
          1359.95300	         1.26967e+58
          1360.75930	         1.18277e+58
          1361.56560	         1.07882e+58
          1362.37190	         1.19181e+58
          1363.17820	         1.06523e+58
          1363.98450	         1.05399e+58
          1364.79080	         1.22175e+58
          1365.59710	         1.27467e+58
          1366.40340	         1.17181e+58
          1367.20970	         1.05166e+58
          1368.01600	         1.03024e+58
          1368.82230	         8.87437e+57
          1369.62860	         9.39803e+57
          1370.43490	         8.72826e+57
          1371.24120	         9.23905e+57
          1372.04750	         8.70522e+57
          1372.85380	         1.15432e+58
          1373.66010	         1.10692e+58
          1374.46640	         9.45124e+57
          1375.27270	         9.99085e+57
          1376.07900	         9.41374e+57
          1376.88530	         9.23029e+57
          1377.69160	         9.49896e+57
          1378.49790	         7.17972e+57
          1379.30420	         7.48980e+57
          1380.11050	         9.02742e+57
          1380.91680	         7.80619e+57
          1381.72310	         7.22425e+57
          1382.52940	         7.92055e+57
          1383.33570	         7.90960e+57
          1384.14200	         9.36053e+57
          1384.94830	         1.15642e+58
          1385.75460	         1.04481e+58
          1386.56090	         1.13575e+58
          1387.36720	         1.24442e+58
          1388.17350	         1.35263e+58
          1388.97980	         1.16222e+58
          1389.78610	         1.00273e+58
          1390.59240	         8.48809e+57
          1391.39870	         7.47319e+57
          1392.20500	         7.50764e+57
          1393.01130	         7.60414e+57
          1393.81760	         6.89286e+57
          1394.62390	         7.28993e+57
          1395.43020	         6.84428e+57
          1396.23650	         7.52967e+57
          1397.04280	         8.45426e+57
          1397.84910	         9.09648e+57
          1398.65540	         9.17958e+57
          1399.46170	         1.05686e+58
          1400.26800	         8.87359e+57
          1401.07430	         7.50151e+57
          1401.88060	         8.57660e+57
          1402.68690	         9.14812e+57
          1403.49320	         9.58901e+57
          1404.29950	         9.52086e+57
          1405.10580	         1.03556e+58
          1405.91210	         1.09148e+58
          1406.71840	         9.55660e+57
          1407.52470	         1.01019e+58
          1408.33100	         1.10806e+58
          1409.13730	         1.12175e+58
          1409.94360	         1.07469e+58
          1410.74990	         1.14751e+58
          1411.55620	         1.10939e+58
          1412.36250	         9.02574e+57
          1413.16880	         7.92314e+57
          1413.97510	         7.74011e+57
          1414.78140	         7.98792e+57
          1415.58770	         1.03084e+58
          1416.39400	         1.08802e+58
          1417.20030	         1.07591e+58
          1418.00660	         1.04759e+58
          1418.81290	         1.13185e+58
          1419.61920	         1.15109e+58
          1420.42550	         1.19276e+58
          1421.23180	         1.28251e+58
          1422.03810	         1.21936e+58
          1422.84440	         1.15416e+58
          1423.65070	         1.24980e+58
          1424.45700	         1.20699e+58
          1425.26330	         9.61928e+57
          1426.06960	         8.90770e+57
          1426.87590	         9.37169e+57
          1427.68220	         1.00203e+58
          1428.48850	         1.10448e+58
          1429.29480	         1.05259e+58
          1430.10110	         9.58383e+57
          1430.90740	         8.44927e+57
          1431.71370	         9.30233e+57
          1432.52000	         8.92257e+57
          1433.32630	         7.26178e+57
          1434.13260	         7.24224e+57
          1434.93890	         7.88043e+57
          1435.74520	         8.39076e+57
          1436.55150	         8.86863e+57
          1437.35780	         8.49305e+57
          1438.16410	         9.91067e+57
          1438.97040	         9.68855e+57
          1439.77670	         9.15254e+57
          1440.58300	         9.39134e+57
          1441.38930	         8.45323e+57
          1442.19560	         8.44693e+57
          1443.00190	         9.08011e+57
          1443.80820	         1.09147e+58
          1444.61450	         1.04539e+58
          1445.42080	         9.22659e+57
          1446.22710	         1.03686e+58
          1447.03340	         9.59479e+57
          1447.83970	         1.08080e+58
          1448.64600	         1.10098e+58
          1449.45230	         9.91619e+57
          1450.25860	         9.47891e+57
          1451.06490	         8.09440e+57
          1451.87120	         7.30425e+57
          1452.67750	         7.34616e+57
          1453.48380	         8.82634e+57
          1454.29010	         8.40588e+57
          1455.09640	         7.67952e+57
          1455.90270	         9.43046e+57
          1456.70900	         9.93137e+57
          1457.51530	         1.06657e+58
          1458.32160	         1.27702e+58
          1459.12790	         1.19222e+58
          1459.93420	         8.82488e+57
          1460.74050	         6.79759e+57
          1461.54680	         7.71785e+57
          1462.35310	         7.96883e+57
          1463.15940	         9.25902e+57
          1463.96570	         1.12547e+58
          1464.77200	         1.24984e+58
          1465.57830	         1.16774e+58
          1466.38460	         8.99801e+57
          1467.19090	         7.92620e+57
          1467.99720	         9.56061e+57
          1468.80350	         1.04323e+58
          1469.60980	         1.01216e+58
          1470.41610	         1.07739e+58
          1471.22240	         1.00185e+58
          1472.02870	         9.20160e+57
          1472.83500	         8.74139e+57
          1473.64130	         9.01021e+57
          1474.44760	         8.44301e+57
          1475.25390	         7.68808e+57
          1476.06020	         7.88428e+57
          1476.86650	         7.48943e+57
          1477.67280	         7.14293e+57
          1478.47910	         6.17417e+57
          1479.28540	         6.64932e+57
          1480.09170	         7.15551e+57
          1480.89800	         6.51781e+57
          1481.70430	         7.77415e+57
          1482.51060	         8.39737e+57
          1483.31690	         7.14466e+57
          1484.12320	         7.32090e+57
          1484.92950	         7.71812e+57
          1485.73580	         7.97263e+57
          1486.54210	         8.93647e+57
          1487.34840	         1.00789e+58
          1488.15470	         8.96914e+57
          1488.96100	         9.36146e+57
          1489.76730	         9.27379e+57
          1490.57360	         8.31671e+57
          1491.37990	         7.84033e+57
          1492.18620	         7.90348e+57
          1492.99250	         8.32136e+57
          1493.79880	         9.38735e+57
          1494.60510	         9.40214e+57
          1495.41140	         8.41399e+57
          1496.21770	         7.84507e+57
          1497.02400	         1.02033e+58
          1497.83030	         9.08894e+57
          1498.63660	         7.29542e+57
          1499.44290	         6.97890e+57
          1500.24920	         6.56332e+57
          1501.05550	         7.98467e+57
          1501.86180	         9.43492e+57
          1502.66810	         9.99295e+57
          1503.47440	         9.23857e+57
          1504.28070	         8.96158e+57
          1505.08700	         9.48668e+57
          1505.89330	         8.90667e+57
          1506.69960	         8.31447e+57
          1507.50590	         9.32078e+57
          1508.31220	         8.53444e+57
          1509.11850	         8.74093e+57
          1509.92480	         9.51438e+57
          1510.73110	         8.83251e+57
          1511.53740	         7.49551e+57
          1512.34370	         7.79356e+57
          1513.15000	         9.41197e+57
          1513.95630	         9.75965e+57
          1514.76260	         8.50877e+57
          1515.56890	         7.42646e+57
          1516.37520	         8.83699e+57
          1517.18150	         8.94327e+57
          1517.98780	         8.37826e+57
          1518.79410	         7.88867e+57
          1519.60040	         8.71127e+57
          1520.40670	         9.60319e+57
          1521.21300	         9.63260e+57
          1522.01930	         9.76878e+57
          1522.82560	         9.87165e+57
          1523.63190	         9.87911e+57
          1524.43820	         9.38339e+57
          1525.24450	         7.37197e+57
          1526.05080	         5.93902e+57
          1526.85710	         5.35546e+57
          1527.66340	         6.77116e+57
          1528.46970	         8.42787e+57
          1529.27600	         8.59866e+57
          1530.08230	         7.09490e+57
          1530.88860	         7.21140e+57
          1531.69490	         8.03721e+57
          1532.50120	         9.19210e+57
          1533.30750	         1.03946e+58
          1534.11380	         9.72324e+57
          1534.92010	         7.59098e+57
          1535.72640	         8.57251e+57
          1536.53270	         9.69080e+57
          1537.33900	         8.21000e+57
          1538.14530	         8.98789e+57
          1538.95160	         9.91241e+57
          1539.75790	         8.72737e+57
          1540.56420	         7.97695e+57
          1541.37050	         7.62333e+57
          1542.17680	         7.08393e+57
          1542.98310	         7.13982e+57
          1543.78940	         7.16271e+57
          1544.59570	         6.98045e+57
          1545.40200	         7.12023e+57
          1546.20830	         8.43530e+57
          1547.01460	         9.74487e+57
          1547.82090	         1.09158e+58
          1548.62720	         1.26111e+58
          1549.43350	         1.21614e+58
          1550.23980	         1.12365e+58
          1551.04610	         1.16661e+58
          1551.85240	         1.25247e+58
          1552.65870	         1.19173e+58
          1553.46500	         1.09860e+58
          1554.27130	         9.78080e+57
          1555.07760	         1.01259e+58
          1555.88390	         9.32561e+57
          1556.69020	         8.68902e+57
          1557.49650	         8.47061e+57
          1558.30280	         8.32610e+57
          1559.10910	         8.38115e+57
          1559.91540	         8.85943e+57
          1560.72170	         9.28372e+57
          1561.52800	         9.85905e+57
          1562.33430	         9.13214e+57
          1563.14060	         9.12922e+57
          1563.94690	         7.48845e+57
          1564.75320	         7.66634e+57
          1565.55950	         7.27688e+57
          1566.36580	         6.76667e+57
          1567.17210	         8.67111e+57
          1567.97840	         9.38375e+57
          1568.78470	         9.58501e+57
          1569.59100	         9.10496e+57
          1570.39730	         8.92808e+57
          1571.20360	         7.60690e+57
          1572.00990	         7.64111e+57
          1572.81620	         8.85173e+57
          1573.62250	         1.00295e+58
          1574.42880	         9.65629e+57
          1575.23510	         8.49949e+57
          1576.04140	         8.07008e+57
          1576.84770	         8.08221e+57
          1577.65400	         8.83050e+57
          1578.46030	         9.80379e+57
          1579.26660	         1.02452e+58
          1580.07290	         9.27891e+57
          1580.87920	         7.35486e+57
          1581.68550	         7.41882e+57
          1582.49180	         8.23669e+57
          1583.29810	         8.19178e+57
          1584.10440	         8.39015e+57
          1584.91070	         9.16329e+57
          1585.71700	         9.01442e+57
          1586.52330	         8.50833e+57
          1587.32960	         8.82883e+57
          1588.13590	         8.82385e+57
          1588.94220	         8.54039e+57
          1589.74850	         9.02653e+57
          1590.55480	         8.68364e+57
          1591.36110	         8.34576e+57
          1592.16740	         8.56563e+57
          1592.97370	         8.05345e+57
          1593.78000	         8.74135e+57
          1594.58630	         9.74150e+57
          1595.39260	         8.23307e+57
          1596.19890	         7.95820e+57
          1597.00520	         8.58711e+57
          1597.81150	         8.50357e+57
          1598.61780	         7.15683e+57
          1599.42410	         6.54322e+57
          1600.23040	         6.08065e+57
          1601.03670	         7.19540e+57
          1601.84300	         7.23529e+57
          1602.64930	         8.72712e+57
          1603.45560	         9.30627e+57
          1604.26190	         8.10044e+57
          1605.06820	         8.16333e+57
          1605.87450	         7.83511e+57
          1606.68080	         6.90699e+57
          1607.48710	         5.99604e+57
          1608.29340	         5.66709e+57
          1609.09970	         5.99060e+57
          1609.90600	         6.43118e+57
          1610.71230	         6.67723e+57
          1611.51860	         7.52941e+57
          1612.32490	         7.43630e+57
          1613.13120	         8.00964e+57
          1613.93750	         7.77089e+57
          1614.74380	         8.30266e+57
          1615.55010	         8.98321e+57
          1616.35640	         8.22499e+57
          1617.16270	         9.37088e+57
          1617.96900	         9.24815e+57
          1618.77530	         8.58607e+57
          1619.58160	         7.80093e+57
          1620.38790	         8.34814e+57
          1621.19420	         9.63910e+57
          1622.00050	         8.75818e+57
          1622.80680	         8.76836e+57
          1623.61310	         8.73149e+57
          1624.41940	         8.19035e+57
          1625.22570	         8.66985e+57
          1626.03200	         8.50125e+57
          1626.83830	         8.27673e+57
          1627.64460	         9.04182e+57
          1628.45090	         7.43655e+57
          1629.25720	         8.45034e+57
          1630.06350	         9.38235e+57
          1630.86980	         6.58760e+57
          1631.67610	         6.98282e+57
          1632.48240	         8.88909e+57
          1633.28870	         9.67668e+57
          1634.09500	         1.00067e+58
          1634.90130	         1.07578e+58
          1635.70760	         9.14933e+57
          1636.51390	         7.68597e+57
          1637.32020	         7.21378e+57
          1638.12650	         8.65856e+57
          1638.93280	         8.61994e+57
          1639.73910	         9.76233e+57
          1640.54540	         1.12028e+58
          1641.35170	         8.96047e+57
          1642.15800	         8.82018e+57
          1642.96430	         8.48787e+57
          1643.77060	         8.42248e+57
          1644.57690	         8.40743e+57
          1645.38320	         8.37121e+57
          1646.18950	         7.53701e+57
          1646.99580	         8.34224e+57
          1647.80210	         8.03007e+57
          1648.60840	         7.38144e+57
          1649.41470	         8.38341e+57
          1650.22100	         6.81753e+57
          1651.02730	         6.57565e+57
          1651.83360	         6.89317e+57
          1652.63990	         7.61107e+57
          1653.44620	         9.17839e+57
          1654.25250	         8.48915e+57
          1655.05880	         7.16885e+57
          1655.86510	         7.46655e+57
          1656.67140	         8.21967e+57
          1657.47770	         7.72252e+57
          1658.28400	         7.74154e+57
          1659.09030	         8.33385e+57
          1659.89660	         8.79817e+57
          1660.70290	         9.55241e+57
          1661.50920	         9.40419e+57
          1662.31550	         7.92987e+57
          1663.12180	         7.98134e+57
          1663.92810	         8.92355e+57
          1664.73440	         9.88478e+57
          1665.54070	         1.15040e+58
          1666.34700	         1.21565e+58
          1667.15330	         1.13707e+58
          1667.95960	         9.11311e+57
          1668.76590	         7.49751e+57
          1669.57220	         6.86039e+57
          1670.37850	         7.62668e+57
          1671.18480	         8.40455e+57
          1671.99110	         7.62237e+57
          1672.79740	         6.55200e+57
          1673.60370	         6.02186e+57
          1674.41000	         7.04863e+57
          1675.21630	         6.86564e+57
          1676.02260	         6.34343e+57
          1676.82890	         6.44207e+57
          1677.63520	         6.80885e+57
          1678.44150	         7.75420e+57
          1679.24780	         8.63806e+57
          1680.05410	         7.85454e+57
          1680.86040	         6.42549e+57
          1681.66670	         7.06186e+57
          1682.47300	         7.54472e+57
          1683.27930	         7.63083e+57
          1684.08560	         8.93704e+57
          1684.89190	         7.83446e+57
          1685.69820	         5.42091e+57
          1686.50450	         5.09003e+57
          1687.31080	         6.36854e+57
          1688.11710	         8.11491e+57
          1688.92340	         7.62808e+57
          1689.72970	         6.49652e+57
          1690.53600	         5.88133e+57
          1691.34230	         6.88631e+57
          1692.14860	         7.43499e+57
          1692.95490	         7.61038e+57
          1693.76120	         8.14244e+57
          1694.56750	         7.54101e+57
          1695.37380	         7.74760e+57
          1696.18010	         8.50948e+57
          1696.98640	         8.21972e+57
          1697.79270	         8.51259e+57
          1698.59900	         7.92503e+57
          1699.40530	         7.32925e+57
          1700.21160	         7.20047e+57
          1701.01790	         8.09420e+57
          1701.82420	         8.21804e+57
          1702.63050	         7.63212e+57
          1703.43680	         8.63555e+57
          1704.24310	         8.39113e+57
          1705.04940	         7.97009e+57
          1705.85570	         8.17862e+57
          1706.66200	         8.43699e+57
          1707.46830	         8.85643e+57
          1708.27460	         7.60543e+57
          1709.08090	         6.06508e+57
          1709.88720	         5.52821e+57
          1710.69350	         6.50417e+57
          1711.49980	         6.93835e+57
          1712.30610	         7.25709e+57
          1713.11240	         7.97496e+57
          1713.91870	         6.69447e+57
          1714.72500	         8.13638e+57
          1715.53130	         9.75559e+57
          1716.33760	         7.80328e+57
          1717.14390	         7.83535e+57
          1717.95020	         8.45781e+57
          1718.75650	         8.67435e+57
          1719.56280	         8.93736e+57
          1720.36910	         7.65345e+57
          1721.17540	         7.39053e+57
          1721.98170	         6.23076e+57
          1722.78800	         6.15847e+57
          1723.59430	         6.63136e+57
          1724.40060	         6.88211e+57
          1725.20690	         8.48471e+57
          1726.01320	         9.12271e+57
          1726.81950	         7.88102e+57
          1727.62580	         7.41861e+57
          1728.43210	         6.35689e+57
          1729.23840	         6.96264e+57
          1730.04470	         8.50925e+57
          1730.85100	         8.53443e+57
          1731.65730	         8.05839e+57
          1732.46360	         8.08494e+57
          1733.26990	         7.89061e+57
          1734.07620	         7.05819e+57
          1734.88250	         7.45968e+57
          1735.68880	         8.14487e+57
          1736.49510	         8.75749e+57
          1737.30140	         8.46134e+57
          1738.10770	         7.28846e+57
          1738.91400	         7.38467e+57
          1739.72030	         7.38338e+57
          1740.52660	         5.49613e+57
          1741.33290	         5.19770e+57
          1742.13920	         5.68309e+57
          1742.94550	         7.18301e+57
          1743.75180	         7.52743e+57
          1744.55810	         7.65403e+57
          1745.36440	         7.57638e+57
          1746.17070	         5.30803e+57
          1746.97700	         5.05879e+57
          1747.78330	         6.68016e+57
          1748.58960	         5.77396e+57
          1749.39590	         6.18962e+57
          1750.20220	         6.48363e+57
          1751.00850	         5.46748e+57
          1751.81480	         5.67481e+57
          1752.62110	         6.53716e+57
          1753.42740	         7.22623e+57
          1754.23370	         6.80967e+57
          1755.04000	         8.01024e+57
          1755.84630	         8.28896e+57
          1756.65260	         7.56828e+57
          1757.45890	         7.85174e+57
          1758.26520	         6.87056e+57
          1759.07150	         7.66019e+57
          1759.87780	         7.80500e+57
          1760.68410	         7.89036e+57
          1761.49040	         7.82446e+57
          1762.29670	         5.99442e+57
          1763.10300	         7.45077e+57
          1763.90930	         7.81633e+57
          1764.71560	         7.16923e+57
          1765.52190	         7.85185e+57
          1766.32820	         9.03246e+57
          1767.13450	         7.91996e+57
          1767.94080	         6.68080e+57
          1768.74710	         6.87082e+57
          1769.55340	         7.08734e+57
          1770.35970	         6.82962e+57
          1771.16600	         6.75777e+57
          1771.97230	         8.09153e+57
          1772.77860	         9.08000e+57
          1773.58490	         7.38023e+57
          1774.39120	         6.33180e+57
          1775.19750	         6.58285e+57
          1776.00380	         7.36512e+57
          1776.81010	         6.66516e+57
          1777.61640	         5.91049e+57
          1778.42270	         7.02130e+57
          1779.22900	         7.06538e+57
          1780.03530	         6.31472e+57
          1780.84160	         6.66646e+57
          1781.64790	         8.17774e+57
          1782.45420	         7.64364e+57
          1783.26050	         6.59463e+57
          1784.06680	         7.10530e+57
          1784.87310	         7.09609e+57
          1785.67940	         6.99517e+57
          1786.48570	         6.63854e+57
          1787.29200	         7.33251e+57
          1788.09830	         6.48496e+57
          1788.90460	         4.66078e+57
          1789.71090	         4.22494e+57
          1790.51720	         5.20226e+57
          1791.32350	         7.22369e+57
          1792.12980	         8.75161e+57
          1792.93610	         8.30469e+57
          1793.74240	         7.22204e+57
          1794.54870	         7.29741e+57
          1795.35500	         8.29236e+57
          1796.16130	         8.88168e+57
          1796.96760	         7.40465e+57
          1797.77390	         7.95981e+57
          1798.58020	         7.70525e+57
          1799.38650	         6.94937e+57
          1800.19280	         7.12413e+57
          1800.99910	         7.85071e+57
          1801.80540	         7.69670e+57
          1802.61170	         8.04162e+57
          1803.41800	         7.90659e+57
          1804.22430	         7.23970e+57
          1805.03060	         6.77509e+57
          1805.83690	         7.73660e+57
          1806.64320	         8.77801e+57
          1807.44950	         8.77622e+57
          1808.25580	         8.01960e+57
          1809.06210	         8.73620e+57
          1809.86840	         7.09737e+57
          1810.67470	         6.94220e+57
          1811.48100	         8.82950e+57
          1812.28730	         8.86763e+57
          1813.09360	         7.66441e+57
          1813.89990	         7.80411e+57
          1814.70620	         7.97596e+57
          1815.51250	         8.60906e+57
          1816.31880	         7.27572e+57
          1817.12510	         7.00922e+57
          1817.93140	         6.91639e+57
          1818.73770	         7.81915e+57
          1819.54400	         8.03443e+57
          1820.35030	         7.79663e+57
          1821.15660	         6.11642e+57
          1821.96290	         6.16024e+57
          1822.76920	         8.06537e+57
          1823.57550	         7.53356e+57
          1824.38180	         8.07065e+57
          1825.18810	         8.62735e+57
          1825.99440	         8.27719e+57
          1826.80070	         7.31204e+57
          1827.60700	         6.06796e+57
          1828.41330	         5.16740e+57
          1829.21960	         5.93742e+57
          1830.02590	         7.30809e+57
          1830.83220	         7.47206e+57
          1831.63850	         7.07622e+57
          1832.44480	         7.42139e+57
          1833.25110	         8.45851e+57
          1834.05740	         8.52170e+57
          1834.86370	         7.52889e+57
          1835.67000	         6.36879e+57
          1836.47630	         7.68578e+57
          1837.28260	         8.47109e+57
          1838.08890	         8.68530e+57
          1838.89520	         8.86484e+57
          1839.70150	         7.49148e+57
          1840.50780	         7.72964e+57
          1841.31410	         7.65997e+57
          1842.12040	         6.45351e+57
          1842.92670	         6.54044e+57
          1843.73300	         7.50714e+57
          1844.53930	         6.41164e+57
          1845.34560	         6.62674e+57
          1846.15190	         7.49404e+57
          1846.95820	         7.73223e+57
          1847.76450	         7.74755e+57
          1848.57080	         6.05924e+57
          1849.37710	         5.89401e+57
          1850.18340	         7.08409e+57
          1850.98970	         7.45787e+57
          1851.79600	         8.22012e+57
          1852.60230	         7.70257e+57
          1853.40860	         6.50897e+57
          1854.21490	         6.29273e+57
          1855.02120	         5.22647e+57
          1855.82750	         4.99204e+57
          1856.63380	         6.10379e+57
          1857.44010	         6.31897e+57
          1858.24640	         8.56066e+57
          1859.05270	         7.65468e+57
          1859.85900	         5.95954e+57
          1860.66530	         5.70706e+57
          1861.47160	         6.20101e+57
          1862.27790	         5.73790e+57
          1863.08420	         7.15956e+57
          1863.89050	         8.24129e+57
          1864.69680	         7.29301e+57
          1865.50310	         7.48035e+57
          1866.30940	         6.20892e+57
          1867.11570	         6.50150e+57
          1867.92200	         7.21329e+57
          1868.72830	         7.84216e+57
          1869.53460	         7.71786e+57
          1870.34090	         7.35632e+57
          1871.14720	         7.50019e+57
          1871.95350	         7.15373e+57
          1872.75980	         7.44130e+57
          1873.56610	         6.95184e+57
          1874.37240	         5.73014e+57
          1875.17870	         5.80253e+57
          1875.98500	         7.42261e+57
          1876.79130	         7.41639e+57
          1877.59760	         7.13816e+57
          1878.40390	         5.98660e+57
          1879.21020	         5.59918e+57
          1880.01650	         7.24438e+57
          1880.82280	         8.70139e+57
          1881.62910	         8.82603e+57
          1882.43540	         9.65760e+57
          1883.24170	         8.68787e+57
          1884.04800	         7.66737e+57
          1884.85430	         7.95660e+57
          1885.66060	         7.76890e+57
          1886.46690	         7.41483e+57
          1887.27320	         7.16101e+57
          1888.07950	         6.18854e+57
          1888.88580	         5.86707e+57
          1889.69210	         7.77405e+57
          1890.49840	         8.04130e+57
          1891.30470	         7.69751e+57
          1892.11100	         8.54100e+57
          1892.91730	         8.05586e+57
          1893.72360	         7.83235e+57
          1894.52990	         7.25264e+57
          1895.33620	         7.98497e+57
          1896.14250	         6.71951e+57
          1896.94880	         5.52106e+57
          1897.75510	         4.65936e+57
          1898.56140	         6.54173e+57
          1899.36770	         7.89850e+57
          1900.17400	         7.26718e+57
          1900.98030	         6.24944e+57
          1901.78660	         7.42444e+57
          1902.59290	         7.38323e+57
          1903.39920	         8.49810e+57
          1904.20550	         9.13790e+57
          1905.01180	         9.40580e+57
          1905.81810	         1.04260e+58
          1906.62440	         1.22337e+58
          1907.43070	         1.48429e+58
          1908.23700	         1.60622e+58
          1909.04330	         1.33058e+58
          1909.84960	         1.14252e+58
          1910.65590	         1.02976e+58
          1911.46220	         9.34602e+57
          1912.26850	         7.57781e+57
          1913.07480	         5.78714e+57
          1913.88110	         6.01404e+57
          1914.68740	         6.60952e+57
          1915.49370	         5.79693e+57
          1916.30000	         6.91633e+57
          1917.10630	         7.63375e+57
          1917.91260	         6.71699e+57
          1918.71890	         6.29423e+57
          1919.52520	         6.56297e+57
          1920.33150	         5.85278e+57
          1921.13780	         7.10422e+57
          1921.94410	         8.79669e+57
          1922.75040	         8.79186e+57
          1923.55670	         7.73572e+57
          1924.36300	         7.40222e+57
          1925.16930	         4.97698e+57
          1925.97560	         4.80529e+57
          1926.78190	         4.85446e+57
          1927.58820	         5.66815e+57
          1928.39450	         6.12566e+57
          1929.20080	         5.09916e+57
          1930.00710	         7.49170e+57
          1930.81340	         8.95350e+57
          1931.61970	         6.63045e+57
          1932.42600	         6.28555e+57
          1933.23230	         7.01359e+57
          1934.03860	         7.15914e+57
          1934.84490	         4.97661e+57
          1935.65120	         8.24294e+57
          1936.45750	         8.50439e+57
          1937.26380	         5.43624e+57
          1938.07010	         6.68949e+57
          1938.87640	         8.25251e+57
          1939.68270	         7.72375e+57
          1940.48900	         7.62716e+57
          1941.29530	         7.76945e+57
          1942.10160	         7.06636e+57
          1942.90790	         7.01154e+57
          1943.71420	         7.00956e+57
          1944.52050	         7.07062e+57
          1945.32680	         6.68804e+57
          1946.13310	         7.22576e+57
          1946.93940	         7.84618e+57
          1947.74570	         7.28665e+57
          1948.55200	         6.23106e+57
          1949.35830	         6.29761e+57
          1950.16460	         5.38732e+57
          1950.97090	         6.60419e+57
          1951.77720	         8.00749e+57
          1952.58350	         8.56446e+57
          1953.38980	         6.40451e+57
          1954.19610	         4.53282e+57
          1955.00240	         5.02857e+57
          1955.80870	         6.26431e+57
          1956.61500	         6.13164e+57
          1957.42130	         5.80133e+57
          1958.22760	         6.38545e+57
          1959.03390	         7.68386e+57
          1959.84020	         7.69310e+57
          1960.64650	         7.57908e+57
          1961.45280	         6.19240e+57
          1962.25910	         5.74464e+57
          1963.06540	         6.75923e+57
          1963.87170	         6.86175e+57
          1964.67800	         7.99396e+57
          1965.48430	         6.96960e+57
          1966.29060	         6.82273e+57
          1967.09690	         9.03702e+57
          1967.90320	         7.38136e+57
          1968.70950	         6.22153e+57
          1969.51580	         5.86770e+57
          1970.32210	         7.09006e+57
          1971.12840	         7.53892e+57
          1971.93470	         4.83570e+57
          1972.74100	         4.58382e+57
          1973.54730	         6.48127e+57
          1974.35360	         7.09207e+57
          1975.15990	         7.35963e+57
          1975.96620	         7.30560e+57
          1976.77250	         6.97152e+57
          1977.57880	         6.57832e+57
          1978.38510	         5.96933e+57
          1979.19140	         6.61732e+57
          1979.99770	         7.07982e+57
          1980.80400	         8.08113e+57
          1981.61030	         6.73149e+57
          1982.41660	         5.39813e+57
          1983.22290	         5.98046e+57
          1984.02920	         6.23939e+57
          1984.83550	         6.05141e+57
          1985.64180	         6.32040e+57
          1986.44810	         6.69110e+57
          1987.25440	         6.34234e+57
          1988.06070	         6.27182e+57
          1988.86700	         7.15636e+57
          1989.67330	         5.94779e+57
          1990.47960	         6.62465e+57
          1991.28590	         7.00817e+57
          1992.09220	         6.88868e+57
          1992.89850	         6.44178e+57
          1993.70480	         5.67745e+57
          1994.51110	         4.71984e+57
          1995.31740	         5.40492e+57
          1996.12370	         5.76686e+57
          1996.93000	         6.17821e+57
          1997.73630	         7.18532e+57
          1998.54260	         7.97790e+57
          1999.34890	         7.81479e+57
          2000.15520	         7.29847e+57
          2000.96150	         6.69931e+57
          2001.76780	         6.59323e+57
          2002.57410	         4.76650e+57
          2003.38040	         5.93243e+57
          2004.18670	         7.34172e+57
          2004.99300	         7.42983e+57
          2005.79930	         7.48553e+57
          2006.60560	         6.52242e+57
          2007.41190	         6.83144e+57
          2008.21820	         7.01958e+57
          2009.02450	         6.68260e+57
          2009.83080	         6.67281e+57
          2010.63710	         6.26162e+57
          2011.44340	         6.10889e+57
          2012.24970	         7.16990e+57
          2013.05600	         6.88426e+57
          2013.86230	         6.60766e+57
          2014.66860	         5.89513e+57
          2015.47490	         6.97065e+57
          2016.28120	         5.99307e+57
          2017.08750	         6.59548e+57
          2017.89380	         7.82446e+57
          2018.70010	         7.25747e+57
          2019.50640	         6.62435e+57
          2020.31270	         5.43353e+57
          2021.11900	         6.12383e+57
          2021.92530	         7.87341e+57
          2022.73160	         7.99178e+57
          2023.53790	         7.68120e+57
          2024.34420	         6.58552e+57
          2025.15050	         4.86315e+57
          2025.95680	         5.15870e+57
          2026.76310	         7.06604e+57
          2027.56940	         7.73801e+57
          2028.37570	         6.64910e+57
          2029.18200	         4.88821e+57
          2029.98830	         5.89640e+57
          2030.79460	         7.06722e+57
          2031.60090	         7.27904e+57
          2032.40720	         6.62416e+57
          2033.21350	         6.04150e+57
          2034.01980	         5.91256e+57
          2034.82610	         4.47471e+57
          2035.63240	         4.43010e+57
          2036.43870	         6.10982e+57
          2037.24500	         6.51671e+57
          2038.05130	         6.01742e+57
          2038.85760	         6.66070e+57
          2039.66390	         6.95065e+57
          2040.47020	         4.86601e+57
          2041.27650	         5.30112e+57
          2042.08280	         5.28911e+57
          2042.88910	         5.80916e+57
          2043.69540	         4.73824e+57
          2044.50170	         4.79031e+57
          2045.30800	         5.52347e+57
          2046.11430	         5.83819e+57
          2046.92060	         6.39244e+57
          2047.72690	         6.76863e+57
          2048.53320	         5.05621e+57
          2049.33950	         3.39783e+57
          2050.14580	         3.88343e+57
          2050.95210	         5.52295e+57
          2051.75840	         7.16962e+57
          2052.56470	         5.18417e+57
          2053.37100	         4.89248e+57
          2054.17730	         3.74390e+57
          2054.98360	         4.07627e+57
          2055.78990	         3.25190e+57
          2056.59620	         3.45084e+57
          2057.40250	         5.78923e+57
          2058.20880	         6.48949e+57
          2059.01510	         6.74879e+57
          2059.82140	         7.21825e+57
          2060.62770	         1.01405e+58
          2061.43400	         1.52317e+58
          2062.24030	         1.27423e+58
          2063.04660	         6.12482e+57
          2063.85290	         1.07858e+57
          2064.65920	        -3.95485e+57
          2065.46550	        -9.73708e+57
          2066.27180	        -9.68706e+57
          2067.07810	         3.21602e+57
          2067.88440	         5.80901e+57
          2068.69070	         6.84633e+57
          2069.49700	         4.44323e+57
          2070.30330	         4.11034e+57
          2071.10960	         4.73187e+57
          2071.91590	         5.57280e+57
          2072.72220	         3.62640e+57
          2073.52850	         4.62636e+57
          2074.33480	         4.18856e+57
          2075.14110	         5.74869e+57
          2075.94740	         4.50035e+57
          2076.75370	         5.12654e+57
          2077.56000	         4.91328e+57
          2078.36630	         5.24749e+57
          2079.17260	         5.62953e+57
          2079.97890	         5.60058e+57
          2080.78520	         5.99929e+57
          2081.59150	         4.32064e+57
          2082.39780	         4.23667e+57
          2083.20410	         2.31318e+57
          2084.01040	         2.47698e+57
          2084.81670	         4.55605e+57
          2085.62300	         3.30294e+57
          2086.42930	         4.56111e+57
          2087.23560	         7.09313e+57
          2088.04190	         6.00526e+57
          2088.84820	         2.52114e+57
          2089.65450	         2.56373e+57
          2090.46080	         2.68990e+57
          2091.26710	         4.23634e+57
          2092.07340	         4.95395e+57
          2092.87970	         3.63555e+57
          2093.68600	        -8.53516e+56
          2094.49230	        -3.43984e+56
          2095.29860	         4.16486e+57
          2096.10490	         1.98845e+57
          2096.91120	         2.43744e+57
          2097.71750	         1.77572e+57
          2098.52380	         7.39078e+56
          2099.33010	         3.66436e+56
          2100.13640	        -1.97888e+55
          2100.94270	         1.76036e+57
          2101.74900	         3.25048e+57
          2102.55530	         4.17886e+57
          2103.36160	         3.92354e+57
          2104.16790	         3.82636e+57
          2104.97420	         4.00626e+56
          2105.78050	         1.25434e+57
          2106.58680	         9.69497e+56
          2107.39310	        -1.59342e+57
          2108.19940	        -9.99362e+56
          2109.00570	        -2.96918e+57
          2109.81200	        -1.33597e+57
          2110.61830	         2.08207e+57
          2111.42460	         1.34979e+57
          2112.23090	         1.58422e+57
          2113.03720	         1.06171e+57
          2113.84350	         1.29036e+57
          2114.64980	         1.17484e+57
          2115.45610	        -3.55769e+56
          2116.26240	        -6.10678e+56
          2117.06870	        -6.88746e+56
          2117.87500	        -4.57827e+57
          2118.68130	        -3.21591e+57
          2119.48760	        -1.39895e+57
          2120.29390	         2.11629e+57
          2121.10020	        -1.92120e+57
          2121.90650	         2.40843e+57
          2122.71280	         1.95026e+57
          2123.51910	         3.56218e+57
          2124.32540	         1.16557e+57
          2125.13170	         1.54194e+57
          2125.93800	         1.64944e+57
          2126.74430	         1.28426e+57
          2127.55060	        -2.80623e+57
          2128.35690	         9.21113e+56
          2129.16320	        -1.89680e+57
          2129.96950	        -4.23434e+57
          2130.77580	        -2.35266e+57
          2131.58210	         1.80862e+57
          2132.38840	        -1.46813e+56
          2133.19470	        -3.90092e+57
          2134.00100	        -2.32504e+57
          2134.80730	        -6.88310e+57
          2135.61360	         6.01213e+57
          2136.41990	         2.53588e+57
          2137.22620	        -7.30010e+56
          2138.03250	         1.54721e+57
          2138.83880	        -1.14419e+58
          2139.64510	        -8.89642e+57
          2140.45140	        -3.34881e+57
          2141.25770	        -1.42645e+58
          2142.06400	        -1.05327e+58
          2142.87030	         2.75914e+57
          2143.67660	         1.09840e+58
          2144.48290	         5.78425e+57
          2145.28920	         7.39254e+57
          2146.09550	        -5.38463e+57
          2146.90180	        -1.30607e+58
          2147.70810	        -7.33825e+57
          2148.51440	        -4.07918e+57
          2149.32070	        -1.47478e+58
          2150.12700	        -1.04807e+58
          2150.93330	        -1.73236e+57
          2151.73960	        -5.59008e+57
          2152.54590	        -2.56029e+57
          2153.35220	         4.45620e+56
          2154.15850	         6.51891e+56
          2154.96480	        -5.18122e+57
          2155.77110	        -1.35229e+58
          2156.57740	        -1.40485e+57
          2157.38370	         3.16272e+56
          2158.19000	        -6.99665e+57
          2158.99630	        -1.75967e+57
          2159.80260	        -1.35946e+58
          2160.60890	        -1.32988e+58
          2161.41520	        -2.53065e+57
          2162.22150	        -9.20669e+57
          2163.02780	         1.89403e+57
          2163.83410	        -9.63303e+57
          2164.64040	        -1.18856e+58
          2165.44670	        -9.42978e+57
          2166.25300	        -1.53479e+58
          2167.05930	        -1.42192e+58
          2167.86560	        -1.31002e+58
          2168.67190	        -1.74013e+57
          2169.47820	        -1.35755e+58
          2170.28450	        -1.61135e+58
          2171.09080	         4.52254e+57
          2171.89710	        -2.77535e+57
          2172.70340	        -1.38458e+58
          2173.50970	        -4.56421e+57
          2174.31600	        -6.89809e+57
          2175.12230	        -6.86063e+57
          2175.92860	        -5.92063e+57
          2176.73490	        -5.09691e+57
          2177.54120	        -4.56567e+57
          2178.34750	        -4.77175e+57
          2179.15380	                 nan
          2179.96010	                 nan
          2180.76640	                 nan
          2181.57270	                 nan
          2182.37900	                 nan
          2183.18530	                 nan
          2183.99160	                 nan
          2184.79790	                 nan
          2185.60420	                 nan
          2186.41050	                 nan
          2187.21680	                 nan
          2188.02310	                 nan
          2188.82940	                 nan
          2189.63570	                 nan
          2190.44200	                 nan
          2191.24830	                 nan
          2192.05460	                 nan
          2192.86090	                 nan
          2193.66720	                 nan
          2194.47350	                 nan
          2195.27980	                 nan
          2196.08610	                 nan
          2196.89240	                 nan
          2197.69870	                 nan
          2198.50500	                 nan
          2199.31130	                 nan
          2200.11760	                 nan
          2200.92390	                 nan
          2201.73020	                 nan
          2202.53650	                 nan
          2203.34280	                 nan
          2204.14910	                 nan
          2204.95540	                 nan
          2205.76170	                 nan
          2206.56800	                 nan
          2207.37430	                 nan
          2208.18060	                 nan
          2208.98690	                 nan
          2209.79320	                 nan
          2210.59950	                 nan
          2211.40580	                 nan
          2212.21210	                 nan
          2213.01840	                 nan
          2213.82470	                 nan
          2214.63100	                 nan
          2215.43730	         0.00000e+00
