#sample_398_stacked_spectrum_rest_UV-bands_median_H-alpha_noDC.txt
#median Lum: 1.70602e+42
#Rest-frame wavelength (A) | Luminosity (erg/s/A)
#
          1110.00000	         0.00000e+00
          1110.80630	         2.63420e+59
          1111.61260	         1.28795e+59
          1112.41890	         1.61543e+59
          1113.22520	         2.85371e+58
          1114.03150	        -1.60525e+59
          1114.83780	         6.13438e+58
          1115.64410	         1.23640e+59
          1116.45040	         5.08691e+58
          1117.25670	         2.23231e+59
          1118.06300	        -2.09391e+57
          1118.86930	        -9.77444e+58
          1119.67560	         1.08778e+59
          1120.48190	        -9.15837e+58
          1121.28820	        -2.32857e+59
          1122.09450	        -7.02436e+58
          1122.90080	        -2.55412e+58
          1123.70710	         3.94092e+58
          1124.51340	         5.65222e+58
          1125.31970	         1.20218e+58
          1126.12600	        -2.37698e+57
          1126.93230	        -4.92140e+58
          1127.73860	        -5.72652e+58
          1128.54490	         2.47189e+58
          1129.35120	         7.22346e+57
          1130.15750	        -4.60941e+58
          1130.96380	        -4.23458e+57
          1131.77010	         7.24932e+58
          1132.57640	         7.96210e+58
          1133.38270	         4.44618e+58
          1134.18900	         1.99520e+58
          1134.99530	         2.18723e+58
          1135.80160	         1.89196e+58
          1136.60790	        -2.91976e+57
          1137.41420	        -1.30429e+58
          1138.22050	         3.13990e+58
          1139.02680	         1.74670e+58
          1139.83310	         9.94575e+57
          1140.63940	         2.04808e+58
          1141.44570	         2.86967e+57
          1142.25200	        -2.05071e+58
          1143.05830	         9.91924e+57
          1143.86460	         1.33586e+58
          1144.67090	         1.58708e+58
          1145.47720	         7.75098e+57
          1146.28350	         4.32613e+57
          1147.08980	         7.22770e+57
          1147.89610	         1.17796e+58
          1148.70240	         3.42356e+58
          1149.50870	         2.76242e+58
          1150.31500	         6.28726e+57
          1151.12130	         1.21783e+58
          1151.92760	         2.13981e+58
          1152.73390	         1.48914e+58
          1153.54020	         9.20750e+57
          1154.34650	         2.69989e+58
          1155.15280	         2.72308e+58
          1155.95910	         8.52198e+57
          1156.76540	         1.63190e+58
          1157.57170	         3.53731e+57
          1158.37800	        -4.88161e+57
          1159.18430	        -4.86035e+57
          1159.99060	         4.51018e+57
          1160.79690	         2.68561e+56
          1161.60320	         9.12581e+57
          1162.40950	         1.37482e+58
          1163.21580	         1.88145e+58
          1164.02210	         1.17546e+58
          1164.82840	         1.29978e+58
          1165.63470	         1.53632e+58
          1166.44100	         2.80296e+58
          1167.24730	         2.48598e+58
          1168.05360	         6.83254e+57
          1168.85990	         5.93450e+57
          1169.66620	         9.88300e+57
          1170.47250	         7.95024e+57
          1171.27880	         9.72135e+57
          1172.08510	         1.59409e+58
          1172.89140	         1.39992e+58
          1173.69770	         8.70580e+57
          1174.50400	         1.72771e+58
          1175.31030	         1.70974e+58
          1176.11660	         1.66746e+58
          1176.92290	         1.47916e+58
          1177.72920	         1.25633e+58
          1178.53550	         7.41287e+57
          1179.34180	         5.15240e+57
          1180.14810	         8.33591e+57
          1180.95440	         7.44349e+57
          1181.76070	         4.45413e+57
          1182.56700	         6.93367e+57
          1183.37330	         9.49206e+57
          1184.17960	         1.01871e+58
          1184.98590	         8.80741e+57
          1185.79220	         5.34684e+57
          1186.59850	         7.89595e+57
          1187.40480	         6.11550e+57
          1188.21110	         1.18559e+58
          1189.01740	         1.05333e+58
          1189.82370	         1.24089e+58
          1190.63000	         1.65395e+58
          1191.43630	         1.45406e+58
          1192.24260	         8.79988e+57
          1193.04890	         1.33064e+58
          1193.85520	         1.17755e+58
          1194.66150	         1.02432e+58
          1195.46780	         1.60172e+58
          1196.27410	         1.46970e+58
          1197.08040	         1.26360e+58
          1197.88670	         1.80217e+58
          1198.69300	         1.71109e+58
          1199.49930	         1.61544e+58
          1200.30560	         1.38512e+58
          1201.11190	         1.11571e+58
          1201.91820	         8.48165e+57
          1202.72450	         9.23696e+57
          1203.53080	         1.73479e+58
          1204.33710	         1.06889e+58
          1205.14340	         4.29209e+57
          1205.94970	         5.41112e+57
          1206.75600	         4.90127e+57
          1207.56230	         5.22684e+57
          1208.36860	         8.26915e+57
          1209.17490	         4.33705e+57
          1209.98120	         3.57368e+57
          1210.78750	         6.06446e+57
          1211.59380	         9.04189e+57
          1212.40010	         1.83537e+58
          1213.20640	         2.08548e+58
          1214.01270	         1.97157e+58
          1214.81900	         2.66548e+58
          1215.62530	         4.86613e+58
          1216.43160	         9.36734e+58
          1217.23790	         1.51632e+59
          1218.04420	         1.11528e+59
          1218.85050	         8.34995e+58
          1219.65680	         5.78037e+58
          1220.46310	         3.37975e+58
          1221.26940	         2.08870e+58
          1222.07570	         1.43207e+58
          1222.88200	         1.15482e+58
          1223.68830	         8.85307e+57
          1224.49460	         9.38229e+57
          1225.30090	         6.86244e+57
          1226.10720	         7.09111e+57
          1226.91350	         6.87562e+57
          1227.71980	         5.74198e+57
          1228.52610	         1.22171e+58
          1229.33240	         1.17080e+58
          1230.13870	         1.13839e+58
          1230.94500	         7.88262e+57
          1231.75130	         8.46259e+57
          1232.55760	         8.66372e+57
          1233.36390	         9.78504e+57
          1234.17020	         9.04765e+57
          1234.97650	         8.40825e+57
          1235.78280	         9.59098e+57
          1236.58910	         8.84850e+57
          1237.39540	         1.03382e+58
          1238.20170	         9.92327e+57
          1239.00800	         1.03712e+58
          1239.81430	         1.18726e+58
          1240.62060	         7.38196e+57
          1241.42690	         9.48720e+57
          1242.23320	         1.27466e+58
          1243.03950	         9.08531e+57
          1243.84580	         9.45614e+57
          1244.65210	         1.24588e+58
          1245.45840	         1.04058e+58
          1246.26470	         7.87853e+57
          1247.07100	         8.86020e+57
          1247.87730	         5.52600e+57
          1248.68360	         2.90527e+57
          1249.48990	         6.61610e+57
          1250.29620	         7.93660e+57
          1251.10250	         6.15709e+57
          1251.90880	         2.17192e+57
          1252.71510	         3.48603e+57
          1253.52140	         5.39001e+57
          1254.32770	         9.49479e+57
          1255.13400	         1.42175e+58
          1255.94030	         1.15718e+58
          1256.74660	         1.13346e+58
          1257.55290	         1.32691e+58
          1258.35920	         8.68222e+57
          1259.16550	         5.09297e+57
          1259.97180	         4.60263e+57
          1260.77810	         7.86026e+57
          1261.58440	         8.45967e+57
          1262.39070	         5.77082e+57
          1263.19700	         8.62417e+57
          1264.00330	         9.18498e+57
          1264.80960	         1.00512e+58
          1265.61590	         1.38954e+58
          1266.42220	         1.16364e+58
          1267.22850	         8.67513e+57
          1268.03480	         1.35606e+58
          1268.84110	         1.43822e+58
          1269.64740	         1.44660e+58
          1270.45370	         1.45325e+58
          1271.26000	         1.22401e+58
          1272.06630	         1.34963e+58
          1272.87260	         1.41088e+58
          1273.67890	         1.38243e+58
          1274.48520	         1.22070e+58
          1275.29150	         1.33615e+58
          1276.09780	         1.19442e+58
          1276.90410	         1.56649e+58
          1277.71040	         1.50266e+58
          1278.51670	         1.30842e+58
          1279.32300	         1.36915e+58
          1280.12930	         1.34454e+58
          1280.93560	         1.20252e+58
          1281.74190	         1.17405e+58
          1282.54820	         1.20640e+58
          1283.35450	         1.13459e+58
          1284.16080	         1.35853e+58
          1284.96710	         1.24522e+58
          1285.77340	         8.77753e+57
          1286.57970	         1.06595e+58
          1287.38600	         1.44849e+58
          1288.19230	         1.80643e+58
          1288.99860	         1.83367e+58
          1289.80490	         1.32478e+58
          1290.61120	         1.11364e+58
          1291.41750	         1.24666e+58
          1292.22380	         1.17026e+58
          1293.03010	         1.06328e+58
          1293.83640	         1.12536e+58
          1294.64270	         9.47598e+57
          1295.44900	         6.31818e+57
          1296.25530	         8.09985e+57
          1297.06160	         8.46483e+57
          1297.86790	         7.54433e+57
          1298.67420	         8.33232e+57
          1299.48050	         8.65821e+57
          1300.28680	         9.35701e+57
          1301.09310	         7.36361e+57
          1301.89940	         4.97001e+57
          1302.70570	         5.95824e+57
          1303.51200	         6.96520e+57
          1304.31830	         9.51279e+57
          1305.12460	         1.07955e+58
          1305.93090	         1.20801e+58
          1306.73720	         1.28293e+58
          1307.54350	         1.22342e+58
          1308.34980	         1.32290e+58
          1309.15610	         1.57585e+58
          1309.96240	         1.64099e+58
          1310.76870	         1.40086e+58
          1311.57500	         1.05177e+58
          1312.38130	         8.58543e+57
          1313.18760	         1.18022e+58
          1313.99390	         1.56394e+58
          1314.80020	         1.59283e+58
          1315.60650	         1.67242e+58
          1316.41280	         1.23901e+58
          1317.21910	         1.05534e+58
          1318.02540	         1.30387e+58
          1318.83170	         1.32598e+58
          1319.63800	         1.17156e+58
          1320.44430	         1.21915e+58
          1321.25060	         1.31182e+58
          1322.05690	         1.25417e+58
          1322.86320	         1.18503e+58
          1323.66950	         1.15308e+58
          1324.47580	         1.07169e+58
          1325.28210	         1.01988e+58
          1326.08840	         1.08707e+58
          1326.89470	         1.09433e+58
          1327.70100	         1.13594e+58
          1328.50730	         9.35825e+57
          1329.31360	         9.31227e+57
          1330.11990	         1.07584e+58
          1330.92620	         1.08819e+58
          1331.73250	         1.10412e+58
          1332.53880	         1.09142e+58
          1333.34510	         9.49367e+57
          1334.15140	         1.02327e+58
          1334.95770	         9.58958e+57
          1335.76400	         1.06010e+58
          1336.57030	         1.05087e+58
          1337.37660	         9.83762e+57
          1338.18290	         1.08110e+58
          1338.98920	         1.02706e+58
          1339.79550	         1.02278e+58
          1340.60180	         1.31053e+58
          1341.40810	         1.47494e+58
          1342.21440	         1.29601e+58
          1343.02070	         1.19889e+58
          1343.82700	         1.25346e+58
          1344.63330	         1.26510e+58
          1345.43960	         1.40135e+58
          1346.24590	         1.33164e+58
          1347.05220	         1.36929e+58
          1347.85850	         1.17679e+58
          1348.66480	         1.16420e+58
          1349.47110	         1.23436e+58
          1350.27740	         1.10193e+58
          1351.08370	         1.12563e+58
          1351.89000	         1.14979e+58
          1352.69630	         1.28589e+58
          1353.50260	         1.20863e+58
          1354.30890	         1.17383e+58
          1355.11520	         1.29184e+58
          1355.92150	         1.17872e+58
          1356.72780	         1.07086e+58
          1357.53410	         1.17052e+58
          1358.34040	         1.20544e+58
          1359.14670	         1.11937e+58
          1359.95300	         1.11706e+58
          1360.75930	         1.09116e+58
          1361.56560	         1.04280e+58
          1362.37190	         1.19965e+58
          1363.17820	         1.24051e+58
          1363.98450	         1.22483e+58
          1364.79080	         1.25408e+58
          1365.59710	         1.35525e+58
          1366.40340	         1.14016e+58
          1367.20970	         9.07577e+57
          1368.01600	         8.42514e+57
          1368.82230	         9.51092e+57
          1369.62860	         1.23816e+58
          1370.43490	         1.04850e+58
          1371.24120	         8.79508e+57
          1372.04750	         8.54849e+57
          1372.85380	         1.09425e+58
          1373.66010	         1.09994e+58
          1374.46640	         1.08579e+58
          1375.27270	         1.14958e+58
          1376.07900	         1.07127e+58
          1376.88530	         8.60900e+57
          1377.69160	         8.23350e+57
          1378.49790	         7.96006e+57
          1379.30420	         8.65694e+57
          1380.11050	         9.04531e+57
          1380.91680	         8.22153e+57
          1381.72310	         8.53086e+57
          1382.52940	         7.58457e+57
          1383.33570	         8.11272e+57
          1384.14200	         8.98140e+57
          1384.94830	         1.03661e+58
          1385.75460	         1.06395e+58
          1386.56090	         1.07649e+58
          1387.36720	         1.25337e+58
          1388.17350	         1.28720e+58
          1388.97980	         1.02867e+58
          1389.78610	         8.52931e+57
          1390.59240	         7.60365e+57
          1391.39870	         7.40503e+57
          1392.20500	         8.37113e+57
          1393.01130	         8.78854e+57
          1393.81760	         9.27901e+57
          1394.62390	         9.15641e+57
          1395.43020	         6.74955e+57
          1396.23650	         8.07541e+57
          1397.04280	         8.45665e+57
          1397.84910	         7.67432e+57
          1398.65540	         8.12789e+57
          1399.46170	         9.69235e+57
          1400.26800	         8.06240e+57
          1401.07430	         6.24628e+57
          1401.88060	         7.81086e+57
          1402.68690	         9.50474e+57
          1403.49320	         9.64412e+57
          1404.29950	         9.09485e+57
          1405.10580	         1.02790e+58
          1405.91210	         1.03921e+58
          1406.71840	         1.10818e+58
          1407.52470	         1.09148e+58
          1408.33100	         1.04302e+58
          1409.13730	         1.14702e+58
          1409.94360	         1.09042e+58
          1410.74990	         1.00073e+58
          1411.55620	         9.44814e+57
          1412.36250	         7.89306e+57
          1413.16880	         8.58176e+57
          1413.97510	         9.90253e+57
          1414.78140	         1.02808e+58
          1415.58770	         1.03785e+58
          1416.39400	         1.01056e+58
          1417.20030	         1.23936e+58
          1418.00660	         1.00891e+58
          1418.81290	         9.01807e+57
          1419.61920	         9.89485e+57
          1420.42550	         1.18921e+58
          1421.23180	         1.31930e+58
          1422.03810	         1.36073e+58
          1422.84440	         1.24928e+58
          1423.65070	         1.29213e+58
          1424.45700	         1.05232e+58
          1425.26330	         9.38007e+57
          1426.06960	         9.00012e+57
          1426.87590	         9.20443e+57
          1427.68220	         1.11286e+58
          1428.48850	         1.18609e+58
          1429.29480	         9.27570e+57
          1430.10110	         8.67026e+57
          1430.90740	         8.20623e+57
          1431.71370	         8.90404e+57
          1432.52000	         8.86833e+57
          1433.32630	         7.99890e+57
          1434.13260	         8.03714e+57
          1434.93890	         8.72246e+57
          1435.74520	         9.69218e+57
          1436.55150	         1.00521e+58
          1437.35780	         9.96514e+57
          1438.16410	         9.27941e+57
          1438.97040	         9.27697e+57
          1439.77670	         9.52084e+57
          1440.58300	         9.46351e+57
          1441.38930	         9.75075e+57
          1442.19560	         1.07352e+58
          1443.00190	         1.02643e+58
          1443.80820	         1.05705e+58
          1444.61450	         1.01543e+58
          1445.42080	         9.18252e+57
          1446.22710	         1.05146e+58
          1447.03340	         1.01812e+58
          1447.83970	         1.01917e+58
          1448.64600	         9.81855e+57
          1449.45230	         9.81846e+57
          1450.25860	         1.01140e+58
          1451.06490	         1.00385e+58
          1451.87120	         8.84676e+57
          1452.67750	         8.24165e+57
          1453.48380	         9.56976e+57
          1454.29010	         8.35810e+57
          1455.09640	         7.28172e+57
          1455.90270	         8.74736e+57
          1456.70900	         8.47750e+57
          1457.51530	         9.76886e+57
          1458.32160	         1.18994e+58
          1459.12790	         1.01837e+58
          1459.93420	         8.03300e+57
          1460.74050	         7.21168e+57
          1461.54680	         7.64413e+57
          1462.35310	         8.24372e+57
          1463.15940	         9.56615e+57
          1463.96570	         1.06793e+58
          1464.77200	         1.03073e+58
          1465.57830	         9.62539e+57
          1466.38460	         8.39336e+57
          1467.19090	         7.69323e+57
          1467.99720	         7.83923e+57
          1468.80350	         9.01274e+57
          1469.60980	         9.26646e+57
          1470.41610	         1.04652e+58
          1471.22240	         1.00107e+58
          1472.02870	         8.12008e+57
          1472.83500	         8.75425e+57
          1473.64130	         1.11640e+58
          1474.44760	         1.03704e+58
          1475.25390	         9.63165e+57
          1476.06020	         8.56007e+57
          1476.86650	         8.32142e+57
          1477.67280	         7.98761e+57
          1478.47910	         7.19968e+57
          1479.28540	         6.56003e+57
          1480.09170	         7.81695e+57
          1480.89800	         8.64129e+57
          1481.70430	         8.69455e+57
          1482.51060	         8.29534e+57
          1483.31690	         7.78651e+57
          1484.12320	         8.74712e+57
          1484.92950	         7.48642e+57
          1485.73580	         8.07286e+57
          1486.54210	         9.12976e+57
          1487.34840	         8.46354e+57
          1488.15470	         7.91058e+57
          1488.96100	         8.34872e+57
          1489.76730	         9.22910e+57
          1490.57360	         8.13461e+57
          1491.37990	         6.91847e+57
          1492.18620	         7.61909e+57
          1492.99250	         8.02493e+57
          1493.79880	         7.95576e+57
          1494.60510	         8.20980e+57
          1495.41140	         7.21241e+57
          1496.21770	         8.16476e+57
          1497.02400	         9.59391e+57
          1497.83030	         8.13524e+57
          1498.63660	         6.97952e+57
          1499.44290	         7.34745e+57
          1500.24920	         6.75187e+57
          1501.05550	         8.15397e+57
          1501.86180	         8.24588e+57
          1502.66810	         8.21000e+57
          1503.47440	         8.58247e+57
          1504.28070	         8.66429e+57
          1505.08700	         9.36003e+57
          1505.89330	         9.50304e+57
          1506.69960	         8.49865e+57
          1507.50590	         8.44628e+57
          1508.31220	         9.03620e+57
          1509.11850	         8.75000e+57
          1509.92480	         9.32810e+57
          1510.73110	         9.04747e+57
          1511.53740	         6.98902e+57
          1512.34370	         5.66507e+57
          1513.15000	         8.13577e+57
          1513.95630	         9.70740e+57
          1514.76260	         9.63522e+57
          1515.56890	         8.40538e+57
          1516.37520	         8.39579e+57
          1517.18150	         8.30427e+57
          1517.98780	         7.38439e+57
          1518.79410	         6.74853e+57
          1519.60040	         7.65412e+57
          1520.40670	         9.58503e+57
          1521.21300	         9.13283e+57
          1522.01930	         8.63595e+57
          1522.82560	         8.93753e+57
          1523.63190	         1.03222e+58
          1524.43820	         8.88858e+57
          1525.24450	         6.67977e+57
          1526.05080	         5.97638e+57
          1526.85710	         4.93973e+57
          1527.66340	         6.44346e+57
          1528.46970	         8.25685e+57
          1529.27600	         8.24383e+57
          1530.08230	         7.41494e+57
          1530.88860	         7.87463e+57
          1531.69490	         8.48397e+57
          1532.50120	         9.57595e+57
          1533.30750	         1.01255e+58
          1534.11380	         9.41534e+57
          1534.92010	         9.15091e+57
          1535.72640	         9.69031e+57
          1536.53270	         8.41260e+57
          1537.33900	         7.88821e+57
          1538.14530	         8.67832e+57
          1538.95160	         8.86895e+57
          1539.75790	         8.09091e+57
          1540.56420	         8.35680e+57
          1541.37050	         7.92286e+57
          1542.17680	         8.02585e+57
          1542.98310	         7.53367e+57
          1543.78940	         8.18822e+57
          1544.59570	         7.84599e+57
          1545.40200	         8.33503e+57
          1546.20830	         9.34626e+57
          1547.01460	         1.05185e+58
          1547.82090	         1.15061e+58
          1548.62720	         1.14825e+58
          1549.43350	         1.12348e+58
          1550.23980	         9.93228e+57
          1551.04610	         1.15077e+58
          1551.85240	         1.25925e+58
          1552.65870	         1.21838e+58
          1553.46500	         1.07433e+58
          1554.27130	         9.67891e+57
          1555.07760	         9.26371e+57
          1555.88390	         8.51919e+57
          1556.69020	         8.74889e+57
          1557.49650	         9.89810e+57
          1558.30280	         9.03433e+57
          1559.10910	         8.33438e+57
          1559.91540	         8.78309e+57
          1560.72170	         9.20871e+57
          1561.52800	         8.62539e+57
          1562.33430	         8.63295e+57
          1563.14060	         8.22335e+57
          1563.94690	         8.18262e+57
          1564.75320	         8.12094e+57
          1565.55950	         6.99574e+57
          1566.36580	         7.19449e+57
          1567.17210	         8.71341e+57
          1567.97840	         8.92479e+57
          1568.78470	         8.45431e+57
          1569.59100	         9.32702e+57
          1570.39730	         8.54425e+57
          1571.20360	         7.20728e+57
          1572.00990	         8.04742e+57
          1572.81620	         8.79836e+57
          1573.62250	         9.94745e+57
          1574.42880	         9.29440e+57
          1575.23510	         8.09917e+57
          1576.04140	         8.25015e+57
          1576.84770	         8.91255e+57
          1577.65400	         9.00682e+57
          1578.46030	         1.05301e+58
          1579.26660	         1.06965e+58
          1580.07290	         8.93711e+57
          1580.87920	         7.84014e+57
          1581.68550	         8.74443e+57
          1582.49180	         9.07484e+57
          1583.29810	         7.28293e+57
          1584.10440	         8.19349e+57
          1584.91070	         8.95939e+57
          1585.71700	         8.38660e+57
          1586.52330	         8.83905e+57
          1587.32960	         9.05182e+57
          1588.13590	         8.70548e+57
          1588.94220	         8.90589e+57
          1589.74850	         9.65285e+57
          1590.55480	         9.77399e+57
          1591.36110	         8.87046e+57
          1592.16740	         9.08867e+57
          1592.97370	         8.49709e+57
          1593.78000	         8.50939e+57
          1594.58630	         9.51367e+57
          1595.39260	         8.88236e+57
          1596.19890	         9.02450e+57
          1597.00520	         9.88584e+57
          1597.81150	         9.30386e+57
          1598.61780	         7.15849e+57
          1599.42410	         6.43958e+57
          1600.23040	         7.26033e+57
          1601.03670	         8.22352e+57
          1601.84300	         7.96577e+57
          1602.64930	         8.28763e+57
          1603.45560	         8.64285e+57
          1604.26190	         8.74424e+57
          1605.06820	         8.19043e+57
          1605.87450	         7.83258e+57
          1606.68080	         7.34255e+57
          1607.48710	         5.34536e+57
          1608.29340	         5.27980e+57
          1609.09970	         6.29708e+57
          1609.90600	         6.75682e+57
          1610.71230	         6.46444e+57
          1611.51860	         6.89697e+57
          1612.32490	         7.18681e+57
          1613.13120	         7.53930e+57
          1613.93750	         8.08390e+57
          1614.74380	         8.23825e+57
          1615.55010	         8.02938e+57
          1616.35640	         8.24527e+57
          1617.16270	         9.59227e+57
          1617.96900	         9.63595e+57
          1618.77530	         7.66327e+57
          1619.58160	         8.44730e+57
          1620.38790	         9.52936e+57
          1621.19420	         8.35964e+57
          1622.00050	         7.21141e+57
          1622.80680	         8.02453e+57
          1623.61310	         8.19163e+57
          1624.41940	         8.26126e+57
          1625.22570	         8.68654e+57
          1626.03200	         8.22938e+57
          1626.83830	         7.95313e+57
          1627.64460	         7.67387e+57
          1628.45090	         7.32954e+57
          1629.25720	         8.66750e+57
          1630.06350	         1.00717e+58
          1630.86980	         6.50937e+57
          1631.67610	         7.46878e+57
          1632.48240	         9.20801e+57
          1633.28870	         8.39504e+57
          1634.09500	         9.11048e+57
          1634.90130	         1.21060e+58
          1635.70760	         1.06634e+58
          1636.51390	         7.85416e+57
          1637.32020	         7.82487e+57
          1638.12650	         9.66185e+57
          1638.93280	         9.69880e+57
          1639.73910	         9.84250e+57
          1640.54540	         9.82086e+57
          1641.35170	         8.53676e+57
          1642.15800	         8.42858e+57
          1642.96430	         8.68298e+57
          1643.77060	         7.25399e+57
          1644.57690	         7.93424e+57
          1645.38320	         9.43007e+57
          1646.18950	         8.19242e+57
          1646.99580	         9.71898e+57
          1647.80210	         8.72038e+57
          1648.60840	         7.60523e+57
          1649.41470	         7.85205e+57
          1650.22100	         6.93093e+57
          1651.02730	         7.36498e+57
          1651.83360	         8.30543e+57
          1652.63990	         7.95674e+57
          1653.44620	         8.33228e+57
          1654.25250	         8.02592e+57
          1655.05880	         7.50344e+57
          1655.86510	         7.64728e+57
          1656.67140	         7.86143e+57
          1657.47770	         8.34456e+57
          1658.28400	         8.43734e+57
          1659.09030	         8.88234e+57
          1659.89660	         8.74017e+57
          1660.70290	         9.26493e+57
          1661.50920	         9.64206e+57
          1662.31550	         8.79767e+57
          1663.12180	         8.02389e+57
          1663.92810	         8.90303e+57
          1664.73440	         1.04441e+58
          1665.54070	         1.11354e+58
          1666.34700	         1.19002e+58
          1667.15330	         1.11564e+58
          1667.95960	         8.58184e+57
          1668.76590	         6.62804e+57
          1669.57220	         6.36665e+57
          1670.37850	         6.93842e+57
          1671.18480	         7.88641e+57
          1671.99110	         8.27087e+57
          1672.79740	         7.25735e+57
          1673.60370	         6.89012e+57
          1674.41000	         7.79914e+57
          1675.21630	         7.71230e+57
          1676.02260	         7.47979e+57
          1676.82890	         7.22576e+57
          1677.63520	         6.64605e+57
          1678.44150	         7.14633e+57
          1679.24780	         8.72525e+57
          1680.05410	         6.87712e+57
          1680.86040	         5.53686e+57
          1681.66670	         7.43815e+57
          1682.47300	         7.94008e+57
          1683.27930	         8.16645e+57
          1684.08560	         8.83871e+57
          1684.89190	         7.86607e+57
          1685.69820	         4.94284e+57
          1686.50450	         5.20299e+57
          1687.31080	         7.12047e+57
          1688.11710	         6.44983e+57
          1688.92340	         6.24257e+57
          1689.72970	         6.21019e+57
          1690.53600	         5.65231e+57
          1691.34230	         5.57979e+57
          1692.14860	         7.21477e+57
          1692.95490	         7.90854e+57
          1693.76120	         7.37632e+57
          1694.56750	         7.29774e+57
          1695.37380	         8.14558e+57
          1696.18010	         9.12162e+57
          1696.98640	         9.09013e+57
          1697.79270	         9.20075e+57
          1698.59900	         9.00184e+57
          1699.40530	         7.95420e+57
          1700.21160	         7.22095e+57
          1701.01790	         8.01997e+57
          1701.82420	         7.12878e+57
          1702.63050	         7.26959e+57
          1703.43680	         8.40916e+57
          1704.24310	         8.66922e+57
          1705.04940	         8.25058e+57
          1705.85570	         7.13060e+57
          1706.66200	         7.12734e+57
          1707.46830	         7.82968e+57
          1708.27460	         7.14438e+57
          1709.08090	         6.42973e+57
          1709.88720	         7.06318e+57
          1710.69350	         6.88036e+57
          1711.49980	         5.98772e+57
          1712.30610	         5.85179e+57
          1713.11240	         7.61753e+57
          1713.91870	         7.00959e+57
          1714.72500	         7.29838e+57
          1715.53130	         8.42103e+57
          1716.33760	         8.21331e+57
          1717.14390	         7.72273e+57
          1717.95020	         8.71643e+57
          1718.75650	         8.93694e+57
          1719.56280	         7.61617e+57
          1720.36910	         7.18596e+57
          1721.17540	         6.80639e+57
          1721.98170	         5.60364e+57
          1722.78800	         6.74813e+57
          1723.59430	         7.59868e+57
          1724.40060	         8.28011e+57
          1725.20690	         8.34682e+57
          1726.01320	         8.29534e+57
          1726.81950	         8.24951e+57
          1727.62580	         6.96896e+57
          1728.43210	         6.68417e+57
          1729.23840	         6.76959e+57
          1730.04470	         8.38805e+57
          1730.85100	         8.87212e+57
          1731.65730	         7.83358e+57
          1732.46360	         7.41377e+57
          1733.26990	         7.44123e+57
          1734.07620	         7.60490e+57
          1734.88250	         7.66605e+57
          1735.68880	         7.66169e+57
          1736.49510	         7.99589e+57
          1737.30140	         7.49244e+57
          1738.10770	         7.09751e+57
          1738.91400	         7.41756e+57
          1739.72030	         6.76735e+57
          1740.52660	         5.84318e+57
          1741.33290	         6.28992e+57
          1742.13920	         6.42025e+57
          1742.94550	         7.85466e+57
          1743.75180	         7.47817e+57
          1744.55810	         7.46666e+57
          1745.36440	         7.23567e+57
          1746.17070	         4.83007e+57
          1746.97700	         4.55242e+57
          1747.78330	         6.38648e+57
          1748.58960	         6.84849e+57
          1749.39590	         6.48152e+57
          1750.20220	         6.15489e+57
          1751.00850	         6.87360e+57
          1751.81480	         7.06420e+57
          1752.62110	         6.90062e+57
          1753.42740	         7.74823e+57
          1754.23370	         6.60833e+57
          1755.04000	         6.33051e+57
          1755.84630	         6.66255e+57
          1756.65260	         7.22819e+57
          1757.45890	         7.67576e+57
          1758.26520	         6.73416e+57
          1759.07150	         8.86799e+57
          1759.87780	         7.85961e+57
          1760.68410	         7.85346e+57
          1761.49040	         7.92422e+57
          1762.29670	         6.80697e+57
          1763.10300	         7.08655e+57
          1763.90930	         7.07936e+57
          1764.71560	         8.23215e+57
          1765.52190	         8.75402e+57
          1766.32820	         9.81007e+57
          1767.13450	         8.53040e+57
          1767.94080	         7.03187e+57
          1768.74710	         7.07128e+57
          1769.55340	         7.68736e+57
          1770.35970	         7.17703e+57
          1771.16600	         7.52004e+57
          1771.97230	         8.35869e+57
          1772.77860	         8.51618e+57
          1773.58490	         7.29180e+57
          1774.39120	         5.25742e+57
          1775.19750	         5.86915e+57
          1776.00380	         5.78323e+57
          1776.81010	         6.40537e+57
          1777.61640	         5.60062e+57
          1778.42270	         5.59001e+57
          1779.22900	         6.80455e+57
          1780.03530	         6.33997e+57
          1780.84160	         8.26099e+57
          1781.64790	         9.18416e+57
          1782.45420	         6.93603e+57
          1783.26050	         5.53126e+57
          1784.06680	         6.48683e+57
          1784.87310	         6.73920e+57
          1785.67940	         6.99695e+57
          1786.48570	         7.77671e+57
          1787.29200	         7.32880e+57
          1788.09830	         6.64035e+57
          1788.90460	         5.89222e+57
          1789.71090	         5.78180e+57
          1790.51720	         5.67733e+57
          1791.32350	         7.38242e+57
          1792.12980	         8.64148e+57
          1792.93610	         7.85085e+57
          1793.74240	         6.58056e+57
          1794.54870	         8.45557e+57
          1795.35500	         9.27315e+57
          1796.16130	         7.94414e+57
          1796.96760	         7.02029e+57
          1797.77390	         7.11237e+57
          1798.58020	         6.83150e+57
          1799.38650	         6.45353e+57
          1800.19280	         6.47094e+57
          1800.99910	         6.46525e+57
          1801.80540	         6.77690e+57
          1802.61170	         8.63574e+57
          1803.41800	         8.75554e+57
          1804.22430	         8.24370e+57
          1805.03060	         7.88039e+57
          1805.83690	         8.43613e+57
          1806.64320	         8.80904e+57
          1807.44950	         7.82884e+57
          1808.25580	         7.39771e+57
          1809.06210	         8.31066e+57
          1809.86840	         6.30225e+57
          1810.67470	         5.70437e+57
          1811.48100	         7.48002e+57
          1812.28730	         8.47855e+57
          1813.09360	         8.30317e+57
          1813.89990	         8.91042e+57
          1814.70620	         8.04867e+57
          1815.51250	         6.93854e+57
          1816.31880	         6.50016e+57
          1817.12510	         7.65865e+57
          1817.93140	         7.53810e+57
          1818.73770	         7.57521e+57
          1819.54400	         8.09733e+57
          1820.35030	         8.50762e+57
          1821.15660	         7.05748e+57
          1821.96290	         6.52769e+57
          1822.76920	         7.81213e+57
          1823.57550	         7.63303e+57
          1824.38180	         7.02975e+57
          1825.18810	         7.48399e+57
          1825.99440	         8.50116e+57
          1826.80070	         7.75766e+57
          1827.60700	         6.55536e+57
          1828.41330	         6.02727e+57
          1829.21960	         5.83757e+57
          1830.02590	         6.71545e+57
          1830.83220	         7.72693e+57
          1831.63850	         7.77208e+57
          1832.44480	         7.71001e+57
          1833.25110	         8.38908e+57
          1834.05740	         8.01173e+57
          1834.86370	         7.45532e+57
          1835.67000	         6.45411e+57
          1836.47630	         7.91319e+57
          1837.28260	         8.61553e+57
          1838.08890	         8.81773e+57
          1838.89520	         8.27747e+57
          1839.70150	         8.48214e+57
          1840.50780	         7.89263e+57
          1841.31410	         6.78527e+57
          1842.12040	         6.88189e+57
          1842.92670	         5.95901e+57
          1843.73300	         6.27580e+57
          1844.53930	         7.06152e+57
          1845.34560	         7.59716e+57
          1846.15190	         7.81513e+57
          1846.95820	         7.32342e+57
          1847.76450	         5.94218e+57
          1848.57080	         4.70307e+57
          1849.37710	         5.76826e+57
          1850.18340	         7.57229e+57
          1850.98970	         7.40988e+57
          1851.79600	         7.47009e+57
          1852.60230	         7.32521e+57
          1853.40860	         7.53938e+57
          1854.21490	         6.35716e+57
          1855.02120	         6.55023e+57
          1855.82750	         4.99559e+57
          1856.63380	         5.88217e+57
          1857.44010	         7.25682e+57
          1858.24640	         7.43504e+57
          1859.05270	         6.53063e+57
          1859.85900	         5.89416e+57
          1860.66530	         5.57360e+57
          1861.47160	         6.80130e+57
          1862.27790	         7.14024e+57
          1863.08420	         7.97905e+57
          1863.89050	         8.14691e+57
          1864.69680	         7.11005e+57
          1865.50310	         7.55836e+57
          1866.30940	         6.62690e+57
          1867.11570	         6.54612e+57
          1867.92200	         7.51650e+57
          1868.72830	         7.86416e+57
          1869.53460	         6.98318e+57
          1870.34090	         7.65369e+57
          1871.14720	         7.72034e+57
          1871.95350	         6.50600e+57
          1872.75980	         7.43052e+57
          1873.56610	         7.07614e+57
          1874.37240	         5.52123e+57
          1875.17870	         5.45780e+57
          1875.98500	         7.13024e+57
          1876.79130	         7.55024e+57
          1877.59760	         6.99563e+57
          1878.40390	         6.29722e+57
          1879.21020	         6.33940e+57
          1880.01650	         7.59759e+57
          1880.82280	         8.49446e+57
          1881.62910	         8.73098e+57
          1882.43540	         9.70711e+57
          1883.24170	         8.00734e+57
          1884.04800	         6.91858e+57
          1884.85430	         7.48964e+57
          1885.66060	         6.73709e+57
          1886.46690	         7.81886e+57
          1887.27320	         8.34893e+57
          1888.07950	         6.15258e+57
          1888.88580	         7.12878e+57
          1889.69210	         9.24236e+57
          1890.49840	         8.97424e+57
          1891.30470	         6.95018e+57
          1892.11100	         7.93709e+57
          1892.91730	         8.45026e+57
          1893.72360	         8.09024e+57
          1894.52990	         8.81595e+57
          1895.33620	         8.71422e+57
          1896.14250	         7.87093e+57
          1896.94880	         7.39744e+57
          1897.75510	         5.84140e+57
          1898.56140	         5.84313e+57
          1899.36770	         7.14389e+57
          1900.17400	         6.08301e+57
          1900.98030	         6.64809e+57
          1901.78660	         7.66528e+57
          1902.59290	         7.43313e+57
          1903.39920	         9.15036e+57
          1904.20550	         8.79671e+57
          1905.01180	         8.15887e+57
          1905.81810	         1.01980e+58
          1906.62440	         1.27192e+58
          1907.43070	         1.50524e+58
          1908.23700	         1.49804e+58
          1909.04330	         1.27089e+58
          1909.84960	         1.10130e+58
          1910.65590	         9.79063e+57
          1911.46220	         9.16474e+57
          1912.26850	         7.65957e+57
          1913.07480	         6.27000e+57
          1913.88110	         6.17497e+57
          1914.68740	         5.70889e+57
          1915.49370	         5.69716e+57
          1916.30000	         6.03712e+57
          1917.10630	         6.52214e+57
          1917.91260	         6.05983e+57
          1918.71890	         5.94381e+57
          1919.52520	         5.42689e+57
          1920.33150	         5.71307e+57
          1921.13780	         7.46056e+57
          1921.94410	         7.98751e+57
          1922.75040	         7.61782e+57
          1923.55670	         7.99405e+57
          1924.36300	         7.89086e+57
          1925.16930	         6.26002e+57
          1925.97560	         4.87692e+57
          1926.78190	         4.38950e+57
          1927.58820	         5.89595e+57
          1928.39450	         5.64279e+57
          1929.20080	         4.92604e+57
          1930.00710	         5.85911e+57
          1930.81340	         6.81977e+57
          1931.61970	         6.80750e+57
          1932.42600	         7.62735e+57
          1933.23230	         8.51622e+57
          1934.03860	         5.99999e+57
          1934.84490	         5.73303e+57
          1935.65120	         6.59445e+57
          1936.45750	         9.30679e+57
          1937.26380	         7.73708e+57
          1938.07010	         6.81389e+57
          1938.87640	         6.58642e+57
          1939.68270	         7.31102e+57
          1940.48900	         8.26178e+57
          1941.29530	         7.70465e+57
          1942.10160	         8.50758e+57
          1942.90790	         7.47861e+57
          1943.71420	         5.61841e+57
          1944.52050	         5.46424e+57
          1945.32680	         5.26460e+57
          1946.13310	         6.35070e+57
          1946.93940	         8.84681e+57
          1947.74570	         7.08875e+57
          1948.55200	         5.84678e+57
          1949.35830	         6.52105e+57
          1950.16460	         5.44347e+57
          1950.97090	         6.45524e+57
          1951.77720	         7.55575e+57
          1952.58350	         8.21348e+57
          1953.38980	         6.53994e+57
          1954.19610	         4.05332e+57
          1955.00240	         5.22202e+57
          1955.80870	         5.58411e+57
          1956.61500	         5.80278e+57
          1957.42130	         5.91486e+57
          1958.22760	         7.37348e+57
          1959.03390	         7.67174e+57
          1959.84020	         8.25440e+57
          1960.64650	         8.45579e+57
          1961.45280	         7.46526e+57
          1962.25910	         7.32124e+57
          1963.06540	         7.57914e+57
          1963.87170	         6.70905e+57
          1964.67800	         7.86711e+57
          1965.48430	         5.83930e+57
          1966.29060	         5.38505e+57
          1967.09690	         7.32635e+57
          1967.90320	         7.48786e+57
          1968.70950	         6.83014e+57
          1969.51580	         5.46207e+57
          1970.32210	         5.62314e+57
          1971.12840	         6.72463e+57
          1971.93470	         4.92092e+57
          1972.74100	         4.00688e+57
          1973.54730	         7.35531e+57
          1974.35360	         8.42807e+57
          1975.15990	         8.00118e+57
          1975.96620	         6.55673e+57
          1976.77250	         7.05581e+57
          1977.57880	         7.66030e+57
          1978.38510	         6.70844e+57
          1979.19140	         6.72054e+57
          1979.99770	         8.21060e+57
          1980.80400	         7.41355e+57
          1981.61030	         6.26704e+57
          1982.41660	         6.12992e+57
          1983.22290	         5.36516e+57
          1984.02920	         5.77737e+57
          1984.83550	         6.25258e+57
          1985.64180	         7.37714e+57
          1986.44810	         6.92526e+57
          1987.25440	         5.84045e+57
          1988.06070	         6.37047e+57
          1988.86700	         7.11784e+57
          1989.67330	         6.65828e+57
          1990.47960	         5.60469e+57
          1991.28590	         5.72798e+57
          1992.09220	         6.24684e+57
          1992.89850	         5.74471e+57
          1993.70480	         5.57979e+57
          1994.51110	         4.83940e+57
          1995.31740	         4.69274e+57
          1996.12370	         5.87094e+57
          1996.93000	         6.11181e+57
          1997.73630	         8.24510e+57
          1998.54260	         6.90274e+57
          1999.34890	         7.18598e+57
          2000.15520	         7.63229e+57
          2000.96150	         6.93547e+57
          2001.76780	         4.37742e+57
          2002.57410	         4.41374e+57
          2003.38040	         6.33649e+57
          2004.18670	         6.33550e+57
          2004.99300	         6.68644e+57
          2005.79930	         7.44683e+57
          2006.60560	         7.02320e+57
          2007.41190	         6.02382e+57
          2008.21820	         7.80675e+57
          2009.02450	         8.37161e+57
          2009.83080	         7.19626e+57
          2010.63710	         6.99850e+57
          2011.44340	         7.49612e+57
          2012.24970	         7.56840e+57
          2013.05600	         7.74177e+57
          2013.86230	         6.33617e+57
          2014.66860	         5.14330e+57
          2015.47490	         5.87043e+57
          2016.28120	         5.37745e+57
          2017.08750	         5.80982e+57
          2017.89380	         6.28412e+57
          2018.70010	         6.08463e+57
          2019.50640	         5.73104e+57
          2020.31270	         6.43203e+57
          2021.11900	         7.31141e+57
          2021.92530	         7.66637e+57
          2022.73160	         7.91577e+57
          2023.53790	         7.05421e+57
          2024.34420	         6.88545e+57
          2025.15050	         5.61727e+57
          2025.95680	         6.09569e+57
          2026.76310	         6.06113e+57
          2027.56940	         5.84641e+57
          2028.37570	         6.90850e+57
          2029.18200	         7.19958e+57
          2029.98830	         7.00017e+57
          2030.79460	         6.65390e+57
          2031.60090	         5.75630e+57
          2032.40720	         5.47145e+57
          2033.21350	         5.00192e+57
          2034.01980	         5.49926e+57
          2034.82610	         5.33272e+57
          2035.63240	         5.67376e+57
          2036.43870	         6.39388e+57
          2037.24500	         7.03111e+57
          2038.05130	         7.38012e+57
          2038.85760	         6.66761e+57
          2039.66390	         6.56713e+57
          2040.47020	         5.87762e+57
          2041.27650	         6.58988e+57
          2042.08280	         5.92039e+57
          2042.88910	         6.57955e+57
          2043.69540	         7.38915e+57
          2044.50170	         5.20136e+57
          2045.30800	         5.43723e+57
          2046.11430	         4.56151e+57
          2046.92060	         6.29876e+57
          2047.72690	         6.84999e+57
          2048.53320	         5.99582e+57
          2049.33950	         4.82012e+57
          2050.14580	         6.16220e+57
          2050.95210	         7.24379e+57
          2051.75840	         6.75979e+57
          2052.56470	         4.33610e+57
          2053.37100	         3.93330e+57
          2054.17730	         4.01469e+57
          2054.98360	         5.29327e+57
          2055.78990	         4.12634e+57
          2056.59620	         3.37057e+57
          2057.40250	         4.91736e+57
          2058.20880	         6.12429e+57
          2059.01510	         6.76326e+57
          2059.82140	         6.77377e+57
          2060.62770	         9.54303e+57
          2061.43400	         1.57201e+58
          2062.24030	         1.63868e+58
          2063.04660	         5.63154e+57
          2063.85290	         1.68461e+57
          2064.65920	        -3.14214e+57
          2065.46550	        -8.28390e+57
          2066.27180	        -7.76280e+57
          2067.07810	         3.37634e+57
          2067.88440	         5.57487e+57
          2068.69070	         6.04496e+57
          2069.49700	         5.40519e+57
          2070.30330	         3.78701e+57
          2071.10960	         5.16958e+57
          2071.91590	         5.91829e+57
          2072.72220	         4.40920e+57
          2073.52850	         3.67216e+57
          2074.33480	         4.01913e+57
          2075.14110	         5.47913e+57
          2075.94740	         4.71034e+57
          2076.75370	         4.26787e+57
          2077.56000	         3.46295e+57
          2078.36630	         4.86384e+57
          2079.17260	         6.39561e+57
          2079.97890	         6.81326e+57
          2080.78520	         6.18792e+57
          2081.59150	         4.28943e+57
          2082.39780	         4.79481e+57
          2083.20410	         3.30056e+57
          2084.01040	         4.12671e+57
          2084.81670	         4.71076e+57
          2085.62300	         2.48451e+57
          2086.42930	         4.16992e+57
          2087.23560	         2.51646e+57
          2088.04190	         3.26680e+57
          2088.84820	         4.71171e+57
          2089.65450	         4.42639e+57
          2090.46080	         2.03516e+57
          2091.26710	         2.21590e+57
          2092.07340	         3.09023e+57
          2092.87970	         2.47443e+57
          2093.68600	        -1.00887e+57
          2094.49230	        -5.71630e+56
          2095.29860	         3.70113e+57
          2096.10490	         2.44898e+57
          2096.91120	         2.38449e+56
          2097.71750	         1.78813e+56
          2098.52380	         9.81223e+56
          2099.33010	         3.18694e+56
          2100.13640	         1.95202e+57
          2100.94270	         1.90821e+57
          2101.74900	         2.08305e+57
          2102.55530	         2.11260e+57
          2103.36160	         2.38244e+57
          2104.16790	         2.97080e+57
          2104.97420	         2.16931e+57
          2105.78050	         1.22264e+57
          2106.58680	         1.54902e+57
          2107.39310	        -6.70233e+55
          2108.19940	        -4.17805e+56
          2109.00570	        -9.15762e+56
          2109.81200	         1.81015e+57
          2110.61830	         2.62871e+57
          2111.42460	         5.93719e+56
          2112.23090	         2.35440e+57
          2113.03720	        -2.09925e+56
          2113.84350	        -8.50974e+56
          2114.64980	         6.56235e+57
          2115.45610	         1.17775e+56
          2116.26240	        -9.06929e+56
          2117.06870	        -4.04886e+57
          2117.87500	        -1.77888e+57
          2118.68130	         7.65133e+56
          2119.48760	         4.05142e+56
          2120.29390	         2.50102e+57
          2121.10020	        -4.86281e+57
          2121.90650	        -6.97373e+57
          2122.71280	         3.21891e+57
          2123.51910	         4.61912e+57
          2124.32540	         2.22457e+57
          2125.13170	        -5.53269e+56
          2125.93800	         3.79971e+57
          2126.74430	         9.24472e+56
          2127.55060	        -7.36173e+57
          2128.35690	        -5.11445e+57
          2129.16320	        -1.09737e+58
          2129.96950	        -8.56286e+55
          2130.77580	         1.89662e+57
          2131.58210	        -2.52928e+57
          2132.38840	         5.45205e+57
          2133.19470	         4.41499e+57
          2134.00100	        -4.00110e+56
          2134.80730	        -4.15914e+57
          2135.61360	         2.60572e+57
          2136.41990	         8.47790e+57
          2137.22620	         1.67260e+57
          2138.03250	         8.68570e+57
          2138.83880	        -3.67156e+57
          2139.64510	        -1.92262e+57
          2140.45140	        -8.22658e+57
          2141.25770	        -8.01158e+57
          2142.06400	        -4.16173e+57
          2142.87030	         1.80995e+57
          2143.67660	         4.01733e+57
          2144.48290	         5.17914e+57
          2145.28920	         1.25514e+58
          2146.09550	        -1.33451e+58
          2146.90180	        -1.36075e+58
          2147.70810	        -1.23940e+57
          2148.51440	        -7.37492e+57
          2149.32070	        -5.00550e+57
          2150.12700	        -5.61138e+57
          2150.93330	         4.99222e+56
          2151.73960	        -3.64524e+57
          2152.54590	         1.86946e+56
          2153.35220	        -3.37284e+57
          2154.15850	        -7.24310e+57
          2154.96480	         2.14700e+57
          2155.77110	        -1.08721e+58
          2156.57740	        -6.70253e+57
          2157.38370	        -4.54838e+56
          2158.19000	        -1.47440e+58
          2158.99630	        -2.25624e+57
          2159.80260	        -1.66489e+58
          2160.60890	        -1.90188e+58
          2161.41520	        -4.56289e+57
          2162.22150	        -7.62305e+57
          2163.02780	        -8.83326e+56
          2163.83410	        -6.11893e+57
          2164.64040	         2.54251e+55
          2165.44670	        -8.56123e+57
          2166.25300	        -1.89038e+58
          2167.05930	        -3.18810e+57
          2167.86560	        -1.29260e+57
          2168.67190	        -3.75518e+55
          2169.47820	        -7.45049e+57
          2170.28450	        -2.62344e+57
          2171.09080	        -4.92813e+57
          2171.89710	        -4.44592e+57
          2172.70340	        -5.92363e+55
          2173.50970	        -6.36034e+57
          2174.31600	        -3.11921e+57
          2175.12230	        -2.06394e+57
          2175.92860	        -7.44689e+57
          2176.73490	        -1.15261e+58
          2177.54120	        -9.13483e+57
          2178.34750	        -5.06638e+57
          2179.15380	                 nan
          2179.96010	                 nan
          2180.76640	                 nan
          2181.57270	                 nan
          2182.37900	                 nan
          2183.18530	                 nan
          2183.99160	                 nan
          2184.79790	                 nan
          2185.60420	                 nan
          2186.41050	                 nan
          2187.21680	                 nan
          2188.02310	                 nan
          2188.82940	                 nan
          2189.63570	                 nan
          2190.44200	                 nan
          2191.24830	                 nan
          2192.05460	                 nan
          2192.86090	                 nan
          2193.66720	                 nan
          2194.47350	                 nan
          2195.27980	                 nan
          2196.08610	                 nan
          2196.89240	                 nan
          2197.69870	                 nan
          2198.50500	                 nan
          2199.31130	                 nan
          2200.11760	                 nan
          2200.92390	                 nan
          2201.73020	                 nan
          2202.53650	                 nan
          2203.34280	                 nan
          2204.14910	                 nan
          2204.95540	                 nan
          2205.76170	                 nan
          2206.56800	                 nan
          2207.37430	                 nan
          2208.18060	                 nan
          2208.98690	                 nan
          2209.79320	                 nan
          2210.59950	                 nan
          2211.40580	                 nan
          2212.21210	                 nan
          2213.01840	                 nan
          2213.82470	                 nan
          2214.63100	                 nan
          2215.43730	         0.00000e+00
