#sample_233_stacked_spectrum_rest_UV-bands_median_H-alpha_noDC.txt
#median Lum: 1.69228e+42
#Rest-frame wavelength (A) | Luminosity (erg/s/A)
#
          1110.00000	         0.00000e+00
          1110.80630	        -1.79322e+59
          1111.61260	         2.20649e+59
          1112.41890	         1.36920e+59
          1113.22520	         3.18650e+58
          1114.03150	        -9.83743e+58
          1114.83780	         2.01758e+59
          1115.64410	         4.61550e+58
          1116.45040	         1.28356e+59
          1117.25670	         2.26504e+58
          1118.06300	         2.09361e+59
          1118.86930	         5.41500e+58
          1119.67560	         1.42949e+59
          1120.48190	        -6.58640e+58
          1121.28820	        -1.53851e+59
          1122.09450	        -6.51976e+58
          1122.90080	        -6.93599e+57
          1123.70710	         5.05468e+58
          1124.51340	         7.52165e+58
          1125.31970	         1.73563e+58
          1126.12600	         5.35595e+57
          1126.93230	        -5.48201e+57
          1127.73860	        -3.79353e+58
          1128.54490	         1.89302e+58
          1129.35120	        -1.79325e+57
          1130.15750	        -5.15616e+58
          1130.96380	        -4.47751e+58
          1131.77010	         1.48104e+58
          1132.57640	         2.83190e+58
          1133.38270	         2.75619e+58
          1134.18900	         1.98567e+58
          1134.99530	         1.75893e+58
          1135.80160	         1.98454e+58
          1136.60790	         1.60811e+58
          1137.41420	         9.30799e+57
          1138.22050	         6.88941e+58
          1139.02680	         2.78822e+58
          1139.83310	         1.18966e+58
          1140.63940	         2.59964e+58
          1141.44570	         6.82851e+56
          1142.25200	         9.47006e+57
          1143.05830	         2.04379e+58
          1143.86460	         2.77180e+58
          1144.67090	         2.12766e+58
          1145.47720	         1.33931e+58
          1146.28350	         1.44329e+58
          1147.08980	         4.52599e+57
          1147.89610	         1.53158e+58
          1148.70240	         1.54498e+58
          1149.50870	         1.99108e+58
          1150.31500	         1.59983e+58
          1151.12130	         7.88908e+57
          1151.92760	        -5.61252e+57
          1152.73390	         8.62807e+57
          1153.54020	         5.12455e+57
          1154.34650	         2.04884e+58
          1155.15280	         1.95668e+58
          1155.95910	         1.21919e+58
          1156.76540	         7.88161e+57
          1157.57170	         7.00191e+57
          1158.37800	         7.31610e+57
          1159.18430	         2.12791e+57
          1159.99060	         1.03436e+58
          1160.79690	         6.04431e+57
          1161.60320	         1.05285e+58
          1162.40950	         1.18452e+58
          1163.21580	         2.28023e+58
          1164.02210	         1.12425e+58
          1164.82840	        -4.21941e+56
          1165.63470	         1.20321e+58
          1166.44100	         2.25362e+58
          1167.24730	         1.35703e+58
          1168.05360	         8.72035e+57
          1168.85990	         1.72120e+57
          1169.66620	         1.26857e+58
          1170.47250	         1.63398e+58
          1171.27880	         6.81500e+57
          1172.08510	         1.41078e+58
          1172.89140	         9.35058e+57
          1173.69770	        -4.06396e+56
          1174.50400	         1.00406e+58
          1175.31030	         1.62356e+58
          1176.11660	         1.51722e+58
          1176.92290	         1.73185e+58
          1177.72920	         1.51444e+58
          1178.53550	         8.28793e+57
          1179.34180	         1.07996e+58
          1180.14810	         1.03636e+58
          1180.95440	         1.08601e+58
          1181.76070	         8.52917e+57
          1182.56700	         6.02005e+57
          1183.37330	         6.36511e+57
          1184.17960	         1.46446e+58
          1184.98590	         1.40426e+58
          1185.79220	         1.31485e+58
          1186.59850	         1.21833e+58
          1187.40480	         9.34206e+57
          1188.21110	         1.30282e+58
          1189.01740	         1.37177e+58
          1189.82370	         1.08587e+58
          1190.63000	         1.16149e+58
          1191.43630	         1.15991e+58
          1192.24260	         3.01941e+57
          1193.04890	         8.83695e+57
          1193.85520	         1.01156e+58
          1194.66150	         5.01342e+57
          1195.46780	         9.09861e+57
          1196.27410	         1.55811e+58
          1197.08040	         9.73848e+57
          1197.88670	         1.18111e+58
          1198.69300	         1.39222e+58
          1199.49930	         1.40771e+58
          1200.30560	         1.10186e+58
          1201.11190	         1.18253e+58
          1201.91820	         1.10139e+58
          1202.72450	         4.79219e+57
          1203.53080	         1.53350e+58
          1204.33710	         1.44429e+58
          1205.14340	         6.93549e+57
          1205.94970	         7.73622e+57
          1206.75600	         6.09421e+57
          1207.56230	         6.15091e+57
          1208.36860	         9.67693e+57
          1209.17490	         5.48176e+57
          1209.98120	         9.90821e+57
          1210.78750	         1.21043e+58
          1211.59380	         1.21231e+58
          1212.40010	         2.07806e+58
          1213.20640	         1.74225e+58
          1214.01270	         2.00989e+58
          1214.81900	         2.64668e+58
          1215.62530	         4.60292e+58
          1216.43160	         9.22621e+58
          1217.23790	         1.50537e+59
          1218.04420	         1.18072e+59
          1218.85050	         8.95916e+58
          1219.65680	         6.18694e+58
          1220.46310	         3.69362e+58
          1221.26940	         2.45219e+58
          1222.07570	         1.26236e+58
          1222.88200	         1.07351e+58
          1223.68830	         9.64479e+57
          1224.49460	         6.46233e+57
          1225.30090	         7.10877e+57
          1226.10720	         7.37634e+57
          1226.91350	         7.52486e+57
          1227.71980	         8.59571e+57
          1228.52610	         9.78494e+57
          1229.33240	         7.54440e+57
          1230.13870	         7.55321e+57
          1230.94500	         6.68747e+57
          1231.75130	         6.05681e+57
          1232.55760	         7.53095e+57
          1233.36390	         7.21081e+57
          1234.17020	         1.00230e+58
          1234.97650	         8.92607e+57
          1235.78280	         7.59563e+57
          1236.58910	         8.71139e+57
          1237.39540	         1.00496e+58
          1238.20170	         1.06290e+58
          1239.00800	         1.32136e+58
          1239.81430	         1.57567e+58
          1240.62060	         1.36980e+58
          1241.42690	         1.13978e+58
          1242.23320	         1.09824e+58
          1243.03950	         1.05904e+58
          1243.84580	         1.06673e+58
          1244.65210	         8.88992e+57
          1245.45840	         9.26630e+57
          1246.26470	         1.03089e+58
          1247.07100	         5.00958e+57
          1247.87730	         7.53884e+57
          1248.68360	         5.65747e+57
          1249.48990	         6.07799e+57
          1250.29620	         8.48368e+57
          1251.10250	         6.88133e+57
          1251.90880	         5.11855e+57
          1252.71510	         5.24768e+57
          1253.52140	         8.30715e+57
          1254.32770	         9.03921e+57
          1255.13400	         1.15781e+58
          1255.94030	         1.00978e+58
          1256.74660	         1.06746e+58
          1257.55290	         1.16637e+58
          1258.35920	         7.42298e+57
          1259.16550	         5.40150e+57
          1259.97180	         5.79960e+57
          1260.77810	         8.70208e+57
          1261.58440	         1.36852e+58
          1262.39070	         1.06494e+58
          1263.19700	         8.21223e+57
          1264.00330	         1.15658e+58
          1264.80960	         1.25388e+58
          1265.61590	         1.36248e+58
          1266.42220	         1.31903e+58
          1267.22850	         9.69632e+57
          1268.03480	         1.12282e+58
          1268.84110	         1.34066e+58
          1269.64740	         1.35315e+58
          1270.45370	         1.23271e+58
          1271.26000	         1.26910e+58
          1272.06630	         1.42875e+58
          1272.87260	         1.02206e+58
          1273.67890	         8.54248e+57
          1274.48520	         1.22105e+58
          1275.29150	         1.38504e+58
          1276.09780	         1.22497e+58
          1276.90410	         1.40355e+58
          1277.71040	         1.33924e+58
          1278.51670	         1.19446e+58
          1279.32300	         1.49760e+58
          1280.12930	         1.33046e+58
          1280.93560	         9.37361e+57
          1281.74190	         1.07164e+58
          1282.54820	         1.42782e+58
          1283.35450	         1.28627e+58
          1284.16080	         1.30723e+58
          1284.96710	         1.47538e+58
          1285.77340	         1.20776e+58
          1286.57970	         1.25101e+58
          1287.38600	         1.55600e+58
          1288.19230	         1.63291e+58
          1288.99860	         1.35413e+58
          1289.80490	         1.01851e+58
          1290.61120	         1.22412e+58
          1291.41750	         1.45445e+58
          1292.22380	         1.20186e+58
          1293.03010	         1.09212e+58
          1293.83640	         1.29126e+58
          1294.64270	         1.02188e+58
          1295.44900	         5.04871e+57
          1296.25530	         5.82123e+57
          1297.06160	         9.03951e+57
          1297.86790	         1.09176e+58
          1298.67420	         1.19195e+58
          1299.48050	         1.06965e+58
          1300.28680	         9.80940e+57
          1301.09310	         8.14049e+57
          1301.89940	         3.91014e+57
          1302.70570	         6.13371e+57
          1303.51200	         8.73936e+57
          1304.31830	         1.03676e+58
          1305.12460	         1.02329e+58
          1305.93090	         1.12337e+58
          1306.73720	         1.28036e+58
          1307.54350	         1.37443e+58
          1308.34980	         1.44019e+58
          1309.15610	         1.56177e+58
          1309.96240	         1.57686e+58
          1310.76870	         1.41852e+58
          1311.57500	         1.09594e+58
          1312.38130	         9.88998e+57
          1313.18760	         1.06404e+58
          1313.99390	         1.14365e+58
          1314.80020	         1.47031e+58
          1315.60650	         1.61491e+58
          1316.41280	         1.28314e+58
          1317.21910	         1.02696e+58
          1318.02540	         1.07978e+58
          1318.83170	         1.25562e+58
          1319.63800	         1.19173e+58
          1320.44430	         1.21200e+58
          1321.25060	         1.27927e+58
          1322.05690	         1.44025e+58
          1322.86320	         1.35861e+58
          1323.66950	         1.18060e+58
          1324.47580	         1.01018e+58
          1325.28210	         1.00406e+58
          1326.08840	         1.22950e+58
          1326.89470	         1.44356e+58
          1327.70100	         1.12521e+58
          1328.50730	         8.30015e+57
          1329.31360	         9.75901e+57
          1330.11990	         9.53168e+57
          1330.92620	         9.24631e+57
          1331.73250	         9.91014e+57
          1332.53880	         9.84611e+57
          1333.34510	         9.18422e+57
          1334.15140	         8.97793e+57
          1334.95770	         8.82310e+57
          1335.76400	         1.20631e+58
          1336.57030	         1.32105e+58
          1337.37660	         1.15006e+58
          1338.18290	         1.06579e+58
          1338.98920	         1.14410e+58
          1339.79550	         1.06427e+58
          1340.60180	         1.10837e+58
          1341.40810	         1.35628e+58
          1342.21440	         1.20278e+58
          1343.02070	         1.18131e+58
          1343.82700	         1.30269e+58
          1344.63330	         1.17847e+58
          1345.43960	         1.29436e+58
          1346.24590	         1.06534e+58
          1347.05220	         1.13293e+58
          1347.85850	         1.21297e+58
          1348.66480	         1.31503e+58
          1349.47110	         1.33091e+58
          1350.27740	         1.14477e+58
          1351.08370	         1.04847e+58
          1351.89000	         1.05169e+58
          1352.69630	         1.02555e+58
          1353.50260	         1.17888e+58
          1354.30890	         1.09253e+58
          1355.11520	         1.08424e+58
          1355.92150	         1.07909e+58
          1356.72780	         1.04173e+58
          1357.53410	         9.68639e+57
          1358.34040	         1.08945e+58
          1359.14670	         1.01127e+58
          1359.95300	         1.02215e+58
          1360.75930	         1.17605e+58
          1361.56560	         1.05493e+58
          1362.37190	         1.07993e+58
          1363.17820	         1.16493e+58
          1363.98450	         1.09980e+58
          1364.79080	         1.23310e+58
          1365.59710	         1.28219e+58
          1366.40340	         1.15271e+58
          1367.20970	         1.14634e+58
          1368.01600	         1.15317e+58
          1368.82230	         1.09122e+58
          1369.62860	         8.93076e+57
          1370.43490	         7.93787e+57
          1371.24120	         8.88540e+57
          1372.04750	         8.16172e+57
          1372.85380	         1.04328e+58
          1373.66010	         1.20020e+58
          1374.46640	         1.07508e+58
          1375.27270	         1.15643e+58
          1376.07900	         9.69830e+57
          1376.88530	         8.73217e+57
          1377.69160	         8.95282e+57
          1378.49790	         7.66543e+57
          1379.30420	         7.40438e+57
          1380.11050	         9.88590e+57
          1380.91680	         8.62526e+57
          1381.72310	         8.03241e+57
          1382.52940	         7.26406e+57
          1383.33570	         8.07214e+57
          1384.14200	         1.05416e+58
          1384.94830	         1.12304e+58
          1385.75460	         1.16780e+58
          1386.56090	         1.09886e+58
          1387.36720	         1.08767e+58
          1388.17350	         1.34951e+58
          1388.97980	         1.05822e+58
          1389.78610	         7.41262e+57
          1390.59240	         8.33792e+57
          1391.39870	         7.03420e+57
          1392.20500	         7.83741e+57
          1393.01130	         8.40608e+57
          1393.81760	         8.11155e+57
          1394.62390	         8.23508e+57
          1395.43020	         6.85208e+57
          1396.23650	         6.03492e+57
          1397.04280	         7.49652e+57
          1397.84910	         9.42300e+57
          1398.65540	         1.05031e+58
          1399.46170	         1.08854e+58
          1400.26800	         8.24166e+57
          1401.07430	         6.99158e+57
          1401.88060	         7.92610e+57
          1402.68690	         8.90567e+57
          1403.49320	         8.47962e+57
          1404.29950	         8.39889e+57
          1405.10580	         9.81781e+57
          1405.91210	         1.11059e+58
          1406.71840	         1.10419e+58
          1407.52470	         1.00406e+58
          1408.33100	         9.56796e+57
          1409.13730	         9.98061e+57
          1409.94360	         1.03918e+58
          1410.74990	         1.06328e+58
          1411.55620	         9.73179e+57
          1412.36250	         9.64058e+57
          1413.16880	         9.59535e+57
          1413.97510	         8.98402e+57
          1414.78140	         9.15445e+57
          1415.58770	         9.76376e+57
          1416.39400	         1.04232e+58
          1417.20030	         1.08554e+58
          1418.00660	         1.05322e+58
          1418.81290	         1.11276e+58
          1419.61920	         1.19650e+58
          1420.42550	         1.31718e+58
          1421.23180	         1.40103e+58
          1422.03810	         1.19982e+58
          1422.84440	         1.13227e+58
          1423.65070	         1.25043e+58
          1424.45700	         1.11905e+58
          1425.26330	         9.49714e+57
          1426.06960	         9.01160e+57
          1426.87590	         9.83234e+57
          1427.68220	         9.86851e+57
          1428.48850	         1.04271e+58
          1429.29480	         1.12945e+58
          1430.10110	         1.04875e+58
          1430.90740	         8.77500e+57
          1431.71370	         8.87295e+57
          1432.52000	         8.43739e+57
          1433.32630	         7.68269e+57
          1434.13260	         8.28248e+57
          1434.93890	         8.50313e+57
          1435.74520	         8.39264e+57
          1436.55150	         8.80820e+57
          1437.35780	         8.82109e+57
          1438.16410	         8.85215e+57
          1438.97040	         8.63526e+57
          1439.77670	         8.88762e+57
          1440.58300	         9.66044e+57
          1441.38930	         9.83725e+57
          1442.19560	         1.02078e+58
          1443.00190	         1.09986e+58
          1443.80820	         1.24019e+58
          1444.61450	         1.10415e+58
          1445.42080	         8.78401e+57
          1446.22710	         1.02666e+58
          1447.03340	         9.30241e+57
          1447.83970	         1.03444e+58
          1448.64600	         1.03979e+58
          1449.45230	         1.02952e+58
          1450.25860	         9.51751e+57
          1451.06490	         8.90435e+57
          1451.87120	         7.98200e+57
          1452.67750	         7.00527e+57
          1453.48380	         8.16940e+57
          1454.29010	         8.16413e+57
          1455.09640	         6.73088e+57
          1455.90270	         8.27990e+57
          1456.70900	         9.81763e+57
          1457.51530	         1.01996e+58
          1458.32160	         1.16775e+58
          1459.12790	         1.08190e+58
          1459.93420	         9.50937e+57
          1460.74050	         8.41187e+57
          1461.54680	         8.10373e+57
          1462.35310	         8.20043e+57
          1463.15940	         9.60964e+57
          1463.96570	         1.16545e+58
          1464.77200	         1.19408e+58
          1465.57830	         1.04137e+58
          1466.38460	         8.63408e+57
          1467.19090	         8.54328e+57
          1467.99720	         9.49990e+57
          1468.80350	         1.06133e+58
          1469.60980	         1.01034e+58
          1470.41610	         9.59959e+57
          1471.22240	         9.20252e+57
          1472.02870	         9.99500e+57
          1472.83500	         9.79657e+57
          1473.64130	         9.30964e+57
          1474.44760	         9.58155e+57
          1475.25390	         8.63462e+57
          1476.06020	         8.27778e+57
          1476.86650	         8.44023e+57
          1477.67280	         8.38778e+57
          1478.47910	         7.76287e+57
          1479.28540	         6.93634e+57
          1480.09170	         7.46102e+57
          1480.89800	         7.49627e+57
          1481.70430	         8.52885e+57
          1482.51060	         7.89847e+57
          1483.31690	         7.03781e+57
          1484.12320	         7.13830e+57
          1484.92950	         7.19431e+57
          1485.73580	         8.07348e+57
          1486.54210	         8.91509e+57
          1487.34840	         8.76056e+57
          1488.15470	         8.75336e+57
          1488.96100	         1.00432e+58
          1489.76730	         9.92916e+57
          1490.57360	         8.58791e+57
          1491.37990	         7.87142e+57
          1492.18620	         7.31316e+57
          1492.99250	         7.77238e+57
          1493.79880	         8.60333e+57
          1494.60510	         8.50546e+57
          1495.41140	         7.15459e+57
          1496.21770	         8.46397e+57
          1497.02400	         9.85285e+57
          1497.83030	         8.74246e+57
          1498.63660	         6.64394e+57
          1499.44290	         5.80412e+57
          1500.24920	         6.97467e+57
          1501.05550	         8.10988e+57
          1501.86180	         8.23969e+57
          1502.66810	         1.00548e+58
          1503.47440	         9.67512e+57
          1504.28070	         9.21427e+57
          1505.08700	         1.08584e+58
          1505.89330	         9.57357e+57
          1506.69960	         8.19744e+57
          1507.50590	         7.73065e+57
          1508.31220	         7.52347e+57
          1509.11850	         9.06553e+57
          1509.92480	         9.47310e+57
          1510.73110	         8.36644e+57
          1511.53740	         7.06577e+57
          1512.34370	         7.19068e+57
          1513.15000	         8.06570e+57
          1513.95630	         9.76776e+57
          1514.76260	         9.60363e+57
          1515.56890	         8.47968e+57
          1516.37520	         8.62126e+57
          1517.18150	         9.25528e+57
          1517.98780	         8.83806e+57
          1518.79410	         8.29279e+57
          1519.60040	         7.87821e+57
          1520.40670	         9.09350e+57
          1521.21300	         1.02228e+58
          1522.01930	         9.03433e+57
          1522.82560	         9.08587e+57
          1523.63190	         9.72079e+57
          1524.43820	         7.89765e+57
          1525.24450	         5.92408e+57
          1526.05080	         6.00448e+57
          1526.85710	         6.61408e+57
          1527.66340	         7.16564e+57
          1528.46970	         8.13182e+57
          1529.27600	         8.25995e+57
          1530.08230	         7.60220e+57
          1530.88860	         8.40603e+57
          1531.69490	         8.75771e+57
          1532.50120	         9.60234e+57
          1533.30750	         9.91269e+57
          1534.11380	         9.82073e+57
          1534.92010	         9.34462e+57
          1535.72640	         9.76801e+57
          1536.53270	         9.60701e+57
          1537.33900	         8.57487e+57
          1538.14530	         8.50149e+57
          1538.95160	         8.78392e+57
          1539.75790	         9.78389e+57
          1540.56420	         8.49676e+57
          1541.37050	         8.07137e+57
          1542.17680	         8.35023e+57
          1542.98310	         7.86995e+57
          1543.78940	         7.73167e+57
          1544.59570	         6.71742e+57
          1545.40200	         6.88500e+57
          1546.20830	         8.82918e+57
          1547.01460	         1.05374e+58
          1547.82090	         1.22266e+58
          1548.62720	         1.25049e+58
          1549.43350	         1.19349e+58
          1550.23980	         1.06632e+58
          1551.04610	         1.20003e+58
          1551.85240	         1.31106e+58
          1552.65870	         1.23007e+58
          1553.46500	         1.06781e+58
          1554.27130	         1.04635e+58
          1555.07760	         1.02459e+58
          1555.88390	         8.96263e+57
          1556.69020	         9.23462e+57
          1557.49650	         9.70159e+57
          1558.30280	         8.95030e+57
          1559.10910	         8.28785e+57
          1559.91540	         8.76976e+57
          1560.72170	         8.25662e+57
          1561.52800	         7.66855e+57
          1562.33430	         8.75352e+57
          1563.14060	         8.63387e+57
          1563.94690	         8.50303e+57
          1564.75320	         7.97461e+57
          1565.55950	         6.96333e+57
          1566.36580	         7.52121e+57
          1567.17210	         8.73758e+57
          1567.97840	         9.13003e+57
          1568.78470	         9.47909e+57
          1569.59100	         9.85578e+57
          1570.39730	         8.75720e+57
          1571.20360	         7.58994e+57
          1572.00990	         7.99001e+57
          1572.81620	         8.50962e+57
          1573.62250	         9.85400e+57
          1574.42880	         9.43450e+57
          1575.23510	         7.54544e+57
          1576.04140	         8.47800e+57
          1576.84770	         9.14384e+57
          1577.65400	         9.41353e+57
          1578.46030	         9.47955e+57
          1579.26660	         1.00614e+58
          1580.07290	         9.17839e+57
          1580.87920	         8.29348e+57
          1581.68550	         8.46742e+57
          1582.49180	         8.44271e+57
          1583.29810	         8.45058e+57
          1584.10440	         9.12127e+57
          1584.91070	         8.81391e+57
          1585.71700	         8.41139e+57
          1586.52330	         9.41692e+57
          1587.32960	         9.48172e+57
          1588.13590	         9.53944e+57
          1588.94220	         9.27182e+57
          1589.74850	         9.87455e+57
          1590.55480	         9.62459e+57
          1591.36110	         9.11837e+57
          1592.16740	         8.73781e+57
          1592.97370	         8.04988e+57
          1593.78000	         8.94137e+57
          1594.58630	         9.83714e+57
          1595.39260	         9.00546e+57
          1596.19890	         8.27558e+57
          1597.00520	         8.02576e+57
          1597.81150	         8.28238e+57
          1598.61780	         7.68580e+57
          1599.42410	         7.22114e+57
          1600.23040	         6.97522e+57
          1601.03670	         7.58123e+57
          1601.84300	         7.66905e+57
          1602.64930	         7.89615e+57
          1603.45560	         8.08679e+57
          1604.26190	         7.69972e+57
          1605.06820	         7.65221e+57
          1605.87450	         6.85733e+57
          1606.68080	         6.51865e+57
          1607.48710	         6.48768e+57
          1608.29340	         5.68205e+57
          1609.09970	         6.71892e+57
          1609.90600	         7.92241e+57
          1610.71230	         7.88793e+57
          1611.51860	         7.76169e+57
          1612.32490	         7.63318e+57
          1613.13120	         8.35232e+57
          1613.93750	         8.30928e+57
          1614.74380	         8.06141e+57
          1615.55010	         8.30808e+57
          1616.35640	         9.13461e+57
          1617.16270	         1.03344e+58
          1617.96900	         9.94531e+57
          1618.77530	         8.16205e+57
          1619.58160	         8.94370e+57
          1620.38790	         9.47415e+57
          1621.19420	         8.92995e+57
          1622.00050	         8.92667e+57
          1622.80680	         8.97052e+57
          1623.61310	         9.23016e+57
          1624.41940	         7.76335e+57
          1625.22570	         8.51013e+57
          1626.03200	         1.00817e+58
          1626.83830	         9.25312e+57
          1627.64460	         8.66634e+57
          1628.45090	         7.14322e+57
          1629.25720	         8.85024e+57
          1630.06350	         9.89571e+57
          1630.86980	         6.84045e+57
          1631.67610	         7.67844e+57
          1632.48240	         9.88949e+57
          1633.28870	         8.56588e+57
          1634.09500	         9.07081e+57
          1634.90130	         1.04648e+58
          1635.70760	         9.33597e+57
          1636.51390	         7.84270e+57
          1637.32020	         7.43120e+57
          1638.12650	         9.86551e+57
          1638.93280	         1.09601e+58
          1639.73910	         1.10936e+58
          1640.54540	         1.15051e+58
          1641.35170	         9.13861e+57
          1642.15800	         8.07495e+57
          1642.96430	         7.12451e+57
          1643.77060	         9.36398e+57
          1644.57690	         9.08282e+57
          1645.38320	         7.85436e+57
          1646.18950	         7.20177e+57
          1646.99580	         8.33969e+57
          1647.80210	         8.23681e+57
          1648.60840	         7.78953e+57
          1649.41470	         7.94650e+57
          1650.22100	         7.32593e+57
          1651.02730	         7.43428e+57
          1651.83360	         7.34947e+57
          1652.63990	         7.58573e+57
          1653.44620	         8.70248e+57
          1654.25250	         8.94957e+57
          1655.05880	         8.03952e+57
          1655.86510	         7.71384e+57
          1656.67140	         7.84040e+57
          1657.47770	         8.10880e+57
          1658.28400	         8.06515e+57
          1659.09030	         8.75687e+57
          1659.89660	         9.79733e+57
          1660.70290	         1.02377e+58
          1661.50920	         9.01978e+57
          1662.31550	         8.26831e+57
          1663.12180	         8.77407e+57
          1663.92810	         1.03698e+58
          1664.73440	         1.15636e+58
          1665.54070	         1.20582e+58
          1666.34700	         1.17611e+58
          1667.15330	         1.02004e+58
          1667.95960	         8.73150e+57
          1668.76590	         6.81543e+57
          1669.57220	         6.27301e+57
          1670.37850	         6.94286e+57
          1671.18480	         7.99326e+57
          1671.99110	         8.68805e+57
          1672.79740	         7.76126e+57
          1673.60370	         6.51764e+57
          1674.41000	         6.27922e+57
          1675.21630	         6.74022e+57
          1676.02260	         6.05924e+57
          1676.82890	         6.39148e+57
          1677.63520	         7.56744e+57
          1678.44150	         7.37092e+57
          1679.24780	         8.67240e+57
          1680.05410	         7.70973e+57
          1680.86040	         6.29110e+57
          1681.66670	         7.18287e+57
          1682.47300	         8.63355e+57
          1683.27930	         8.53791e+57
          1684.08560	         8.75941e+57
          1684.89190	         8.47071e+57
          1685.69820	         6.23722e+57
          1686.50450	         5.65002e+57
          1687.31080	         6.53071e+57
          1688.11710	         7.72720e+57
          1688.92340	         6.76690e+57
          1689.72970	         6.04501e+57
          1690.53600	         7.29625e+57
          1691.34230	         7.96769e+57
          1692.14860	         8.61225e+57
          1692.95490	         8.96042e+57
          1693.76120	         7.96628e+57
          1694.56750	         7.28969e+57
          1695.37380	         8.42165e+57
          1696.18010	         8.37947e+57
          1696.98640	         8.26997e+57
          1697.79270	         8.53544e+57
          1698.59900	         8.04366e+57
          1699.40530	         7.90561e+57
          1700.21160	         7.68942e+57
          1701.01790	         8.92276e+57
          1701.82420	         8.66182e+57
          1702.63050	         8.96764e+57
          1703.43680	         7.98976e+57
          1704.24310	         8.64085e+57
          1705.04940	         8.14808e+57
          1705.85570	         7.58117e+57
          1706.66200	         9.22558e+57
          1707.46830	         8.42791e+57
          1708.27460	         7.20223e+57
          1709.08090	         7.13274e+57
          1709.88720	         7.30473e+57
          1710.69350	         6.97634e+57
          1711.49980	         6.84260e+57
          1712.30610	         7.40971e+57
          1713.11240	         8.39232e+57
          1713.91870	         7.52921e+57
          1714.72500	         7.67388e+57
          1715.53130	         7.56693e+57
          1716.33760	         7.67041e+57
          1717.14390	         7.44259e+57
          1717.95020	         7.49321e+57
          1718.75650	         8.28606e+57
          1719.56280	         9.14178e+57
          1720.36910	         7.97900e+57
          1721.17540	         6.44461e+57
          1721.98170	         5.14912e+57
          1722.78800	         6.35784e+57
          1723.59430	         7.57274e+57
          1724.40060	         8.43909e+57
          1725.20690	         9.23240e+57
          1726.01320	         8.99407e+57
          1726.81950	         8.35281e+57
          1727.62580	         7.67442e+57
          1728.43210	         6.55566e+57
          1729.23840	         6.51103e+57
          1730.04470	         8.01443e+57
          1730.85100	         8.88814e+57
          1731.65730	         8.39698e+57
          1732.46360	         6.99892e+57
          1733.26990	         6.46023e+57
          1734.07620	         6.71779e+57
          1734.88250	         8.19585e+57
          1735.68880	         8.44596e+57
          1736.49510	         8.18926e+57
          1737.30140	         8.37246e+57
          1738.10770	         7.45518e+57
          1738.91400	         7.23767e+57
          1739.72030	         7.52514e+57
          1740.52660	         6.55554e+57
          1741.33290	         6.17420e+57
          1742.13920	         5.98091e+57
          1742.94550	         7.35048e+57
          1743.75180	         7.56355e+57
          1744.55810	         8.28965e+57
          1745.36440	         8.36976e+57
          1746.17070	         5.86951e+57
          1746.97700	         5.25237e+57
          1747.78330	         6.59215e+57
          1748.58960	         7.09341e+57
          1749.39590	         7.02106e+57
          1750.20220	         6.34652e+57
          1751.00850	         5.83338e+57
          1751.81480	         6.27794e+57
          1752.62110	         6.82590e+57
          1753.42740	         7.47550e+57
          1754.23370	         6.66370e+57
          1755.04000	         6.38493e+57
          1755.84630	         7.87704e+57
          1756.65260	         8.21627e+57
          1757.45890	         8.28750e+57
          1758.26520	         6.69376e+57
          1759.07150	         8.12027e+57
          1759.87780	         8.78269e+57
          1760.68410	         8.65137e+57
          1761.49040	         8.49988e+57
          1762.29670	         6.69117e+57
          1763.10300	         7.67761e+57
          1763.90930	         8.93990e+57
          1764.71560	         8.61900e+57
          1765.52190	         7.58707e+57
          1766.32820	         9.12801e+57
          1767.13450	         8.62550e+57
          1767.94080	         6.50034e+57
          1768.74710	         6.45802e+57
          1769.55340	         6.72655e+57
          1770.35970	         6.28101e+57
          1771.16600	         7.42467e+57
          1771.97230	         8.18223e+57
          1772.77860	         8.10470e+57
          1773.58490	         6.69048e+57
          1774.39120	         6.09091e+57
          1775.19750	         6.09378e+57
          1776.00380	         6.68278e+57
          1776.81010	         6.50518e+57
          1777.61640	         6.55360e+57
          1778.42270	         7.72955e+57
          1779.22900	         7.51904e+57
          1780.03530	         7.22888e+57
          1780.84160	         7.38848e+57
          1781.64790	         8.93753e+57
          1782.45420	         8.27201e+57
          1783.26050	         7.07999e+57
          1784.06680	         7.25878e+57
          1784.87310	         7.50505e+57
          1785.67940	         7.53723e+57
          1786.48570	         7.64486e+57
          1787.29200	         7.07462e+57
          1788.09830	         6.48209e+57
          1788.90460	         6.29945e+57
          1789.71090	         5.55864e+57
          1790.51720	         5.43751e+57
          1791.32350	         7.10593e+57
          1792.12980	         8.74605e+57
          1792.93610	         8.44311e+57
          1793.74240	         7.27482e+57
          1794.54870	         8.06694e+57
          1795.35500	         7.66908e+57
          1796.16130	         7.92982e+57
          1796.96760	         7.60142e+57
          1797.77390	         7.82378e+57
          1798.58020	         8.02248e+57
          1799.38650	         7.72701e+57
          1800.19280	         7.16076e+57
          1800.99910	         7.43925e+57
          1801.80540	         7.90135e+57
          1802.61170	         8.57565e+57
          1803.41800	         8.29019e+57
          1804.22430	         7.62221e+57
          1805.03060	         7.43129e+57
          1805.83690	         8.21393e+57
          1806.64320	         8.50240e+57
          1807.44950	         7.61786e+57
          1808.25580	         7.83591e+57
          1809.06210	         8.57039e+57
          1809.86840	         6.97035e+57
          1810.67470	         8.18284e+57
          1811.48100	         8.74304e+57
          1812.28730	         8.29726e+57
          1813.09360	         7.47236e+57
          1813.89990	         7.93325e+57
          1814.70620	         7.45954e+57
          1815.51250	         7.19346e+57
          1816.31880	         7.82184e+57
          1817.12510	         7.64463e+57
          1817.93140	         5.65817e+57
          1818.73770	         6.79868e+57
          1819.54400	         8.44824e+57
          1820.35030	         8.52577e+57
          1821.15660	         5.95958e+57
          1821.96290	         6.16455e+57
          1822.76920	         7.74472e+57
          1823.57550	         7.70664e+57
          1824.38180	         7.86767e+57
          1825.18810	         8.62577e+57
          1825.99440	         9.25107e+57
          1826.80070	         8.59008e+57
          1827.60700	         7.71843e+57
          1828.41330	         6.33619e+57
          1829.21960	         5.93249e+57
          1830.02590	         6.78031e+57
          1830.83220	         7.34438e+57
          1831.63850	         7.20973e+57
          1832.44480	         7.06838e+57
          1833.25110	         7.93551e+57
          1834.05740	         8.16738e+57
          1834.86370	         6.77992e+57
          1835.67000	         5.35705e+57
          1836.47630	         6.99432e+57
          1837.28260	         7.69523e+57
          1838.08890	         8.10968e+57
          1838.89520	         8.57436e+57
          1839.70150	         7.85325e+57
          1840.50780	         7.18245e+57
          1841.31410	         7.47946e+57
          1842.12040	         7.01958e+57
          1842.92670	         6.25834e+57
          1843.73300	         5.38601e+57
          1844.53930	         6.06409e+57
          1845.34560	         6.91864e+57
          1846.15190	         7.30798e+57
          1846.95820	         7.24888e+57
          1847.76450	         7.31964e+57
          1848.57080	         5.39290e+57
          1849.37710	         5.74707e+57
          1850.18340	         7.49204e+57
          1850.98970	         8.31362e+57
          1851.79600	         7.40498e+57
          1852.60230	         6.20962e+57
          1853.40860	         6.96384e+57
          1854.21490	         7.07195e+57
          1855.02120	         6.14290e+57
          1855.82750	         4.36870e+57
          1856.63380	         5.50431e+57
          1857.44010	         7.07060e+57
          1858.24640	         7.41620e+57
          1859.05270	         7.69124e+57
          1859.85900	         6.03809e+57
          1860.66530	         5.42155e+57
          1861.47160	         6.37845e+57
          1862.27790	         7.11488e+57
          1863.08420	         7.03897e+57
          1863.89050	         7.13608e+57
          1864.69680	         7.12411e+57
          1865.50310	         6.90436e+57
          1866.30940	         5.80923e+57
          1867.11570	         6.18893e+57
          1867.92200	         7.83436e+57
          1868.72830	         8.15114e+57
          1869.53460	         7.30329e+57
          1870.34090	         6.81059e+57
          1871.14720	         7.78247e+57
          1871.95350	         6.97417e+57
          1872.75980	         6.49851e+57
          1873.56610	         6.90706e+57
          1874.37240	         6.56792e+57
          1875.17870	         6.47251e+57
          1875.98500	         7.63353e+57
          1876.79130	         8.38205e+57
          1877.59760	         7.72262e+57
          1878.40390	         6.34343e+57
          1879.21020	         6.44263e+57
          1880.01650	         6.92786e+57
          1880.82280	         7.68915e+57
          1881.62910	         8.90517e+57
          1882.43540	         1.02800e+58
          1883.24170	         8.41464e+57
          1884.04800	         6.96646e+57
          1884.85430	         7.12307e+57
          1885.66060	         7.65019e+57
          1886.46690	         8.37386e+57
          1887.27320	         7.41585e+57
          1888.07950	         6.18307e+57
          1888.88580	         7.03289e+57
          1889.69210	         8.38324e+57
          1890.49840	         8.75247e+57
          1891.30470	         8.95524e+57
          1892.11100	         9.62758e+57
          1892.91730	         8.17209e+57
          1893.72360	         8.35194e+57
          1894.52990	         7.31298e+57
          1895.33620	         7.05302e+57
          1896.14250	         7.19649e+57
          1896.94880	         5.98528e+57
          1897.75510	         3.17643e+57
          1898.56140	         5.00605e+57
          1899.36770	         7.46405e+57
          1900.17400	         6.99697e+57
          1900.98030	         5.85184e+57
          1901.78660	         7.32366e+57
          1902.59290	         6.67510e+57
          1903.39920	         8.12296e+57
          1904.20550	         9.10488e+57
          1905.01180	         8.69903e+57
          1905.81810	         9.36472e+57
          1906.62440	         1.25129e+58
          1907.43070	         1.56290e+58
          1908.23700	         1.60137e+58
          1909.04330	         1.30072e+58
          1909.84960	         1.00471e+58
          1910.65590	         9.48991e+57
          1911.46220	         8.88206e+57
          1912.26850	         7.45807e+57
          1913.07480	         6.56328e+57
          1913.88110	         5.73272e+57
          1914.68740	         5.10123e+57
          1915.49370	         5.30699e+57
          1916.30000	         6.12527e+57
          1917.10630	         6.47515e+57
          1917.91260	         6.69324e+57
          1918.71890	         6.78045e+57
          1919.52520	         6.68954e+57
          1920.33150	         5.85773e+57
          1921.13780	         6.88031e+57
          1921.94410	         7.71604e+57
          1922.75040	         8.63068e+57
          1923.55670	         7.77391e+57
          1924.36300	         8.19873e+57
          1925.16930	         7.29681e+57
          1925.97560	         6.23683e+57
          1926.78190	         5.34581e+57
          1927.58820	         5.63421e+57
          1928.39450	         4.65618e+57
          1929.20080	         4.58063e+57
          1930.00710	         6.93946e+57
          1930.81340	         8.33109e+57
          1931.61970	         7.40378e+57
          1932.42600	         8.37222e+57
          1933.23230	         8.31101e+57
          1934.03860	         6.16778e+57
          1934.84490	         5.97151e+57
          1935.65120	         6.50353e+57
          1936.45750	         8.08449e+57
          1937.26380	         7.11073e+57
          1938.07010	         7.29477e+57
          1938.87640	         7.35977e+57
          1939.68270	         6.56148e+57
          1940.48900	         7.60583e+57
          1941.29530	         8.49272e+57
          1942.10160	         6.92887e+57
          1942.90790	         6.29981e+57
          1943.71420	         7.07618e+57
          1944.52050	         5.95879e+57
          1945.32680	         5.97716e+57
          1946.13310	         7.16594e+57
          1946.93940	         7.83190e+57
          1947.74570	         7.54345e+57
          1948.55200	         6.93459e+57
          1949.35830	         6.21322e+57
          1950.16460	         5.31464e+57
          1950.97090	         5.98306e+57
          1951.77720	         8.04062e+57
          1952.58350	         8.61293e+57
          1953.38980	         7.16890e+57
          1954.19610	         5.10417e+57
          1955.00240	         5.87296e+57
          1955.80870	         6.48120e+57
          1956.61500	         6.32594e+57
          1957.42130	         6.73780e+57
          1958.22760	         6.73341e+57
          1959.03390	         7.70658e+57
          1959.84020	         6.78226e+57
          1960.64650	         6.51692e+57
          1961.45280	         6.02056e+57
          1962.25910	         6.36076e+57
          1963.06540	         5.55277e+57
          1963.87170	         5.67412e+57
          1964.67800	         8.23195e+57
          1965.48430	         7.05528e+57
          1966.29060	         6.60536e+57
          1967.09690	         7.91285e+57
          1967.90320	         7.49914e+57
          1968.70950	         7.31577e+57
          1969.51580	         6.95715e+57
          1970.32210	         6.84861e+57
          1971.12840	         7.48855e+57
          1971.93470	         5.02348e+57
          1972.74100	         5.70995e+57
          1973.54730	         6.85691e+57
          1974.35360	         7.10078e+57
          1975.15990	         8.11933e+57
          1975.96620	         7.28565e+57
          1976.77250	         7.55727e+57
          1977.57880	         7.70508e+57
          1978.38510	         6.93788e+57
          1979.19140	         7.54020e+57
          1979.99770	         8.05237e+57
          1980.80400	         8.42545e+57
          1981.61030	         7.61153e+57
          1982.41660	         6.16934e+57
          1983.22290	         6.56102e+57
          1984.02920	         6.93006e+57
          1984.83550	         6.87940e+57
          1985.64180	         6.85274e+57
          1986.44810	         6.67144e+57
          1987.25440	         5.74314e+57
          1988.06070	         5.00367e+57
          1988.86700	         6.07064e+57
          1989.67330	         6.78293e+57
          1990.47960	         6.00501e+57
          1991.28590	         6.51878e+57
          1992.09220	         6.80288e+57
          1992.89850	         5.94473e+57
          1993.70480	         5.82719e+57
          1994.51110	         5.43568e+57
          1995.31740	         5.19108e+57
          1996.12370	         5.75762e+57
          1996.93000	         6.60680e+57
          1997.73630	         7.62869e+57
          1998.54260	         7.09196e+57
          1999.34890	         5.36828e+57
          2000.15520	         5.78374e+57
          2000.96150	         5.85092e+57
          2001.76780	         6.45500e+57
          2002.57410	         3.99266e+57
          2003.38040	         5.28819e+57
          2004.18670	         6.78209e+57
          2004.99300	         6.39123e+57
          2005.79930	         7.50485e+57
          2006.60560	         6.97538e+57
          2007.41190	         6.03685e+57
          2008.21820	         7.19161e+57
          2009.02450	         6.25574e+57
          2009.83080	         5.35055e+57
          2010.63710	         5.42119e+57
          2011.44340	         4.75522e+57
          2012.24970	         6.13315e+57
          2013.05600	         7.31378e+57
          2013.86230	         6.54413e+57
          2014.66860	         5.70487e+57
          2015.47490	         6.19873e+57
          2016.28120	         5.45779e+57
          2017.08750	         6.20810e+57
          2017.89380	         7.09321e+57
          2018.70010	         5.72485e+57
          2019.50640	         5.67084e+57
          2020.31270	         6.28949e+57
          2021.11900	         7.51790e+57
          2021.92530	         7.71348e+57
          2022.73160	         7.82256e+57
          2023.53790	         6.72172e+57
          2024.34420	         5.51307e+57
          2025.15050	         5.74545e+57
          2025.95680	         5.46718e+57
          2026.76310	         5.39437e+57
          2027.56940	         6.50889e+57
          2028.37570	         7.72720e+57
          2029.18200	         7.16482e+57
          2029.98830	         7.14124e+57
          2030.79460	         6.81881e+57
          2031.60090	         6.42597e+57
          2032.40720	         6.22401e+57
          2033.21350	         6.25472e+57
          2034.01980	         6.23795e+57
          2034.82610	         5.44915e+57
          2035.63240	         4.65523e+57
          2036.43870	         5.48730e+57
          2037.24500	         6.28958e+57
          2038.05130	         6.39974e+57
          2038.85760	         5.82321e+57
          2039.66390	         5.60467e+57
          2040.47020	         6.70778e+57
          2041.27650	         6.25425e+57
          2042.08280	         4.60694e+57
          2042.88910	         5.28122e+57
          2043.69540	         6.46186e+57
          2044.50170	         6.63613e+57
          2045.30800	         5.67933e+57
          2046.11430	         4.94578e+57
          2046.92060	         6.22131e+57
          2047.72690	         7.34617e+57
          2048.53320	         6.91994e+57
          2049.33950	         4.90026e+57
          2050.14580	         4.84264e+57
          2050.95210	         7.12256e+57
          2051.75840	         7.30995e+57
          2052.56470	         4.96934e+57
          2053.37100	         5.09821e+57
          2054.17730	         6.48230e+57
          2054.98360	         5.60132e+57
          2055.78990	         4.05195e+57
          2056.59620	         3.66762e+57
          2057.40250	         5.87357e+57
          2058.20880	         6.66626e+57
          2059.01510	         6.17877e+57
          2059.82140	         6.11090e+57
          2060.62770	         1.06916e+58
          2061.43400	         1.60134e+58
          2062.24030	         1.08972e+58
          2063.04660	         3.80292e+57
          2063.85290	         1.86644e+57
          2064.65920	        -2.34443e+57
          2065.46550	        -8.47523e+57
          2066.27180	        -8.70957e+57
          2067.07810	         2.89573e+57
          2067.88440	         3.62978e+57
          2068.69070	         5.45325e+57
          2069.49700	         4.96698e+57
          2070.30330	         3.01908e+57
          2071.10960	         5.24270e+57
          2071.91590	         6.87891e+57
          2072.72220	         3.96308e+57
          2073.52850	         4.60459e+57
          2074.33480	         4.82585e+57
          2075.14110	         5.41792e+57
          2075.94740	         4.70152e+57
          2076.75370	         4.85182e+57
          2077.56000	         5.84383e+57
          2078.36630	         5.88146e+57
          2079.17260	         4.54431e+57
          2079.97890	         5.21386e+57
          2080.78520	         5.16550e+57
          2081.59150	         3.94858e+57
          2082.39780	         4.10522e+57
          2083.20410	         2.48063e+57
          2084.01040	         2.23654e+57
          2084.81670	         3.60506e+57
          2085.62300	         2.82622e+57
          2086.42930	         3.21599e+57
          2087.23560	         3.47838e+57
          2088.04190	         3.96616e+57
          2088.84820	         4.37687e+57
          2089.65450	         3.62274e+57
          2090.46080	         2.04190e+57
          2091.26710	         3.07587e+57
          2092.07340	         3.64825e+57
          2092.87970	         3.05716e+57
          2093.68600	         4.41708e+55
          2094.49230	         4.74767e+56
          2095.29860	         3.14728e+57
          2096.10490	         1.60315e+57
          2096.91120	         1.22562e+57
          2097.71750	         6.12468e+56
          2098.52380	         4.30155e+55
          2099.33010	         3.04853e+56
          2100.13640	         2.22648e+57
          2100.94270	         2.49035e+57
          2101.74900	         3.48187e+57
          2102.55530	         3.77176e+57
          2103.36160	         1.94089e+57
          2104.16790	         2.83866e+57
          2104.97420	         2.84383e+57
          2105.78050	         1.79007e+57
          2106.58680	         1.90842e+57
          2107.39310	         8.17991e+56
          2108.19940	         1.42907e+57
          2109.00570	         1.44624e+57
          2109.81200	         2.74676e+57
          2110.61830	         2.66178e+57
          2111.42460	        -2.67298e+56
          2112.23090	         1.11376e+57
          2113.03720	         1.80626e+56
          2113.84350	        -4.60306e+56
          2114.64980	         5.78791e+57
          2115.45610	        -1.42902e+57
          2116.26240	         1.27743e+56
          2117.06870	         3.26490e+57
          2117.87500	        -7.11341e+56
          2118.68130	        -1.50072e+57
          2119.48760	         1.38397e+57
          2120.29390	         8.48073e+55
          2121.10020	        -3.22321e+57
          2121.90650	        -2.85736e+57
          2122.71280	        -1.10658e+57
          2123.51910	         5.71705e+57
          2124.32540	         3.21736e+57
          2125.13170	         5.22816e+56
          2125.93800	        -1.02273e+57
          2126.74430	        -1.78188e+56
          2127.55060	        -4.77426e+57
          2128.35690	        -9.39901e+57
          2129.16320	        -6.72373e+57
          2129.96950	        -2.04198e+57
          2130.77580	        -1.19016e+56
          2131.58210	        -1.61067e+57
          2132.38840	        -3.22402e+57
          2133.19470	        -3.95376e+57
          2134.00100	        -2.90852e+57
          2134.80730	        -7.28638e+57
          2135.61360	        -2.56493e+57
          2136.41990	         1.85544e+57
          2137.22620	         5.28456e+57
          2138.03250	         3.36682e+57
          2138.83880	         3.59765e+57
          2139.64510	         4.36037e+57
          2140.45140	        -1.78578e+57
          2141.25770	        -7.83746e+57
          2142.06400	         9.03033e+56
          2142.87030	         4.30060e+57
          2143.67660	         5.75931e+57
          2144.48290	         1.89191e+57
          2145.28920	         1.11885e+58
          2146.09550	        -5.64446e+57
          2146.90180	        -1.23601e+58
          2147.70810	        -9.06919e+57
          2148.51440	        -4.21528e+57
          2149.32070	        -7.33862e+57
          2150.12700	        -4.24127e+57
          2150.93330	        -1.29099e+57
          2151.73960	         1.15940e+57
          2152.54590	        -6.12222e+57
          2153.35220	        -5.66775e+57
          2154.15850	        -5.49570e+57
          2154.96480	         6.99529e+56
          2155.77110	        -5.03837e+57
          2156.57740	        -1.07399e+58
          2157.38370	        -2.16037e+57
          2158.19000	        -1.00804e+57
          2158.99630	        -1.05699e+58
          2159.80260	        -1.60366e+58
          2160.60890	        -1.20485e+58
          2161.41520	        -7.95224e+56
          2162.22150	        -4.32626e+57
          2163.02780	        -2.33398e+57
          2163.83410	        -3.56841e+57
          2164.64040	        -4.05197e+57
          2165.44670	        -7.25963e+57
          2166.25300	        -9.86464e+57
          2167.05930	        -6.06741e+57
          2167.86560	        -5.74266e+57
          2168.67190	         6.85684e+56
          2169.47820	         1.32097e+57
          2170.28450	        -9.48757e+57
          2171.09080	         3.53414e+57
          2171.89710	         1.59119e+57
          2172.70340	         3.34135e+57
          2173.50970	        -4.01361e+57
          2174.31600	        -1.92332e+57
          2175.12230	        -2.76607e+57
          2175.92860	        -8.72948e+57
          2176.73490	        -7.13410e+57
          2177.54120	        -2.02109e+57
          2178.34750	        -3.51252e+57
          2179.15380	                 nan
          2179.96010	                 nan
          2180.76640	                 nan
          2181.57270	                 nan
          2182.37900	                 nan
          2183.18530	                 nan
          2183.99160	                 nan
          2184.79790	                 nan
          2185.60420	                 nan
          2186.41050	                 nan
          2187.21680	                 nan
          2188.02310	                 nan
          2188.82940	                 nan
          2189.63570	                 nan
          2190.44200	                 nan
          2191.24830	                 nan
          2192.05460	                 nan
          2192.86090	                 nan
          2193.66720	                 nan
          2194.47350	                 nan
          2195.27980	                 nan
          2196.08610	                 nan
          2196.89240	                 nan
          2197.69870	                 nan
          2198.50500	                 nan
          2199.31130	                 nan
          2200.11760	                 nan
          2200.92390	                 nan
          2201.73020	                 nan
          2202.53650	                 nan
          2203.34280	                 nan
          2204.14910	                 nan
          2204.95540	                 nan
          2205.76170	                 nan
          2206.56800	                 nan
          2207.37430	                 nan
          2208.18060	                 nan
          2208.98690	                 nan
          2209.79320	                 nan
          2210.59950	                 nan
          2211.40580	                 nan
          2212.21210	                 nan
          2213.01840	                 nan
          2213.82470	                 nan
          2214.63100	                 nan
          2215.43730	         0.00000e+00
