#sample_329_stacked_spectrum_rest_UV-bands_median_H-alpha_noDC.txt
#median Lum: 1.69201e+42
#Rest-frame wavelength (A) | Luminosity (erg/s/A)
#
          1110.00000	         0.00000e+00
          1110.80630	         2.18584e+59
          1111.61260	         1.20789e+59
          1112.41890	         7.22217e+57
          1113.22520	         1.05590e+59
          1114.03150	        -6.05249e+58
          1114.83780	         5.48155e+57
          1115.64410	         1.03818e+59
          1116.45040	         4.28157e+58
          1117.25670	         2.60321e+58
          1118.06300	         2.52947e+59
          1118.86930	         4.56473e+58
          1119.67560	         1.68512e+59
          1120.48190	         4.60941e+58
          1121.28820	        -1.52194e+59
          1122.09450	        -2.51060e+58
          1122.90080	         8.72159e+57
          1123.70710	         4.85523e+58
          1124.51340	        -1.77871e+58
          1125.31970	        -1.94614e+58
          1126.12600	        -2.07523e+58
          1126.93230	        -5.05364e+58
          1127.73860	        -5.27698e+58
          1128.54490	        -1.31676e+58
          1129.35120	         1.20526e+58
          1130.15750	        -6.43867e+58
          1130.96380	        -6.19310e+58
          1131.77010	         2.42867e+58
          1132.57640	         3.93912e+58
          1133.38270	         6.22962e+58
          1134.18900	         3.21712e+58
          1134.99530	        -3.23448e+58
          1135.80160	         1.78437e+58
          1136.60790	         1.30708e+58
          1137.41420	         1.27971e+58
          1138.22050	         5.50516e+58
          1139.02680	         4.35662e+58
          1139.83310	         3.84445e+58
          1140.63940	         6.57417e+57
          1141.44570	        -2.34954e+58
          1142.25200	         1.86719e+58
          1143.05830	         3.74856e+58
          1143.86460	         1.87648e+58
          1144.67090	         9.27556e+57
          1145.47720	         4.40517e+57
          1146.28350	         2.50035e+58
          1147.08980	         1.91354e+58
          1147.89610	         2.98517e+58
          1148.70240	         2.78861e+58
          1149.50870	         2.72892e+58
          1150.31500	         1.36593e+58
          1151.12130	         5.03913e+57
          1151.92760	        -9.75970e+57
          1152.73390	         2.68510e+57
          1153.54020	         7.14866e+57
          1154.34650	         2.49781e+58
          1155.15280	         2.76171e+58
          1155.95910	         8.77921e+57
          1156.76540	        -4.34144e+57
          1157.57170	         2.42139e+57
          1158.37800	        -3.89703e+57
          1159.18430	        -1.59885e+57
          1159.99060	         3.21918e+57
          1160.79690	         6.22071e+56
          1161.60320	         6.84451e+57
          1162.40950	         1.24754e+58
          1163.21580	         8.81571e+57
          1164.02210	         1.44068e+58
          1164.82840	         1.09963e+58
          1165.63470	         2.70736e+58
          1166.44100	         3.00197e+58
          1167.24730	         2.32007e+58
          1168.05360	         9.68869e+57
          1168.85990	         1.44190e+58
          1169.66620	         1.70993e+58
          1170.47250	         1.27236e+58
          1171.27880	         4.03064e+57
          1172.08510	         1.46791e+57
          1172.89140	         6.07910e+57
          1173.69770	         7.81159e+57
          1174.50400	         1.16289e+58
          1175.31030	         1.96204e+58
          1176.11660	         2.18553e+58
          1176.92290	         1.73511e+58
          1177.72920	         1.40128e+58
          1178.53550	         6.23462e+57
          1179.34180	         4.77671e+57
          1180.14810	         7.99856e+57
          1180.95440	         9.21478e+57
          1181.76070	         1.21188e+58
          1182.56700	         9.12615e+57
          1183.37330	         8.14951e+57
          1184.17960	         1.29093e+58
          1184.98590	         1.33243e+58
          1185.79220	         8.83647e+57
          1186.59850	         1.22014e+58
          1187.40480	         1.36298e+58
          1188.21110	         1.86843e+58
          1189.01740	         1.02419e+58
          1189.82370	         9.76198e+57
          1190.63000	         1.13514e+58
          1191.43630	         1.02326e+58
          1192.24260	         6.93450e+57
          1193.04890	         1.21008e+58
          1193.85520	         1.15418e+58
          1194.66150	         6.82508e+57
          1195.46780	         7.45817e+57
          1196.27410	         1.05261e+58
          1197.08040	         1.38059e+58
          1197.88670	         1.55703e+58
          1198.69300	         1.45278e+58
          1199.49930	         1.42467e+58
          1200.30560	         9.79041e+57
          1201.11190	         7.36004e+57
          1201.91820	         6.94003e+57
          1202.72450	         5.96199e+57
          1203.53080	         1.32512e+58
          1204.33710	         8.80311e+57
          1205.14340	         5.12777e+57
          1205.94970	         6.77023e+57
          1206.75600	         7.17106e+57
          1207.56230	         6.63136e+57
          1208.36860	         7.52436e+57
          1209.17490	         5.85607e+57
          1209.98120	         3.25178e+57
          1210.78750	         5.25614e+57
          1211.59380	         1.18679e+58
          1212.40010	         1.56990e+58
          1213.20640	         1.75523e+58
          1214.01270	         1.67275e+58
          1214.81900	         2.22283e+58
          1215.62530	         4.48217e+58
          1216.43160	         8.98741e+58
          1217.23790	         1.49078e+59
          1218.04420	         1.11863e+59
          1218.85050	         8.89634e+58
          1219.65680	         5.92220e+58
          1220.46310	         3.56604e+58
          1221.26940	         2.47885e+58
          1222.07570	         1.38951e+58
          1222.88200	         1.18588e+58
          1223.68830	         1.18714e+58
          1224.49460	         9.51841e+57
          1225.30090	         6.63789e+57
          1226.10720	         5.67942e+57
          1226.91350	         5.49166e+57
          1227.71980	         8.43991e+57
          1228.52610	         1.41817e+58
          1229.33240	         9.71904e+57
          1230.13870	         5.86773e+57
          1230.94500	         8.99520e+57
          1231.75130	         8.61797e+57
          1232.55760	         8.78559e+57
          1233.36390	         9.50803e+57
          1234.17020	         9.19279e+57
          1234.97650	         1.03796e+58
          1235.78280	         8.98415e+57
          1236.58910	         6.41659e+57
          1237.39540	         8.90373e+57
          1238.20170	         1.03664e+58
          1239.00800	         1.22152e+58
          1239.81430	         1.54476e+58
          1240.62060	         1.24686e+58
          1241.42690	         9.22215e+57
          1242.23320	         1.07219e+58
          1243.03950	         8.67870e+57
          1243.84580	         1.03902e+58
          1244.65210	         1.28211e+58
          1245.45840	         1.02673e+58
          1246.26470	         9.26318e+57
          1247.07100	         7.35561e+57
          1247.87730	         7.17699e+57
          1248.68360	         4.49323e+57
          1249.48990	         7.70751e+57
          1250.29620	         7.85361e+57
          1251.10250	         5.66461e+57
          1251.90880	         1.57727e+57
          1252.71510	         6.49227e+57
          1253.52140	         9.49245e+57
          1254.32770	         9.29724e+57
          1255.13400	         1.22489e+58
          1255.94030	         1.16744e+58
          1256.74660	         1.00002e+58
          1257.55290	         1.04979e+58
          1258.35920	         8.71580e+57
          1259.16550	         5.10876e+57
          1259.97180	         6.16154e+57
          1260.77810	         7.66165e+57
          1261.58440	         1.12327e+58
          1262.39070	         9.69958e+57
          1263.19700	         6.64008e+57
          1264.00330	         8.19201e+57
          1264.80960	         1.06734e+58
          1265.61590	         1.30087e+58
          1266.42220	         1.41342e+58
          1267.22850	         1.28420e+58
          1268.03480	         1.23978e+58
          1268.84110	         1.46552e+58
          1269.64740	         1.29295e+58
          1270.45370	         1.22464e+58
          1271.26000	         1.20224e+58
          1272.06630	         1.16788e+58
          1272.87260	         1.16368e+58
          1273.67890	         1.16227e+58
          1274.48520	         1.21591e+58
          1275.29150	         1.12357e+58
          1276.09780	         9.84225e+57
          1276.90410	         1.19324e+58
          1277.71040	         1.12024e+58
          1278.51670	         1.15808e+58
          1279.32300	         1.28006e+58
          1280.12930	         1.33984e+58
          1280.93560	         1.20769e+58
          1281.74190	         1.03584e+58
          1282.54820	         1.16596e+58
          1283.35450	         1.08623e+58
          1284.16080	         1.14264e+58
          1284.96710	         1.40589e+58
          1285.77340	         1.15720e+58
          1286.57970	         9.23889e+57
          1287.38600	         1.15070e+58
          1288.19230	         1.50733e+58
          1288.99860	         1.43152e+58
          1289.80490	         1.15153e+58
          1290.61120	         1.38127e+58
          1291.41750	         1.30784e+58
          1292.22380	         1.12286e+58
          1293.03010	         1.12932e+58
          1293.83640	         1.17235e+58
          1294.64270	         1.04696e+58
          1295.44900	         6.77153e+57
          1296.25530	         6.82233e+57
          1297.06160	         1.02439e+58
          1297.86790	         1.05996e+58
          1298.67420	         8.77121e+57
          1299.48050	         8.84707e+57
          1300.28680	         9.15403e+57
          1301.09310	         8.58434e+57
          1301.89940	         5.79033e+57
          1302.70570	         6.28103e+57
          1303.51200	         9.35181e+57
          1304.31830	         1.13904e+58
          1305.12460	         1.13159e+58
          1305.93090	         1.10517e+58
          1306.73720	         1.30853e+58
          1307.54350	         1.49262e+58
          1308.34980	         1.41125e+58
          1309.15610	         1.49555e+58
          1309.96240	         1.44202e+58
          1310.76870	         1.38596e+58
          1311.57500	         1.40253e+58
          1312.38130	         1.00353e+58
          1313.18760	         1.37307e+58
          1313.99390	         1.61137e+58
          1314.80020	         1.63289e+58
          1315.60650	         1.56935e+58
          1316.41280	         1.36475e+58
          1317.21910	         1.14873e+58
          1318.02540	         1.19020e+58
          1318.83170	         1.31878e+58
          1319.63800	         1.25769e+58
          1320.44430	         1.01897e+58
          1321.25060	         1.07557e+58
          1322.05690	         1.21308e+58
          1322.86320	         1.09698e+58
          1323.66950	         1.11707e+58
          1324.47580	         1.00927e+58
          1325.28210	         9.41118e+57
          1326.08840	         1.08555e+58
          1326.89470	         1.31845e+58
          1327.70100	         1.25911e+58
          1328.50730	         8.26723e+57
          1329.31360	         9.18688e+57
          1330.11990	         1.15681e+58
          1330.92620	         1.06205e+58
          1331.73250	         1.02211e+58
          1332.53880	         9.98275e+57
          1333.34510	         8.48039e+57
          1334.15140	         7.71575e+57
          1334.95770	         9.95490e+57
          1335.76400	         1.17262e+58
          1336.57030	         1.05056e+58
          1337.37660	         9.56097e+57
          1338.18290	         8.60528e+57
          1338.98920	         9.84398e+57
          1339.79550	         9.65451e+57
          1340.60180	         1.23222e+58
          1341.40810	         1.38752e+58
          1342.21440	         1.20538e+58
          1343.02070	         1.35673e+58
          1343.82700	         1.44927e+58
          1344.63330	         1.28564e+58
          1345.43960	         1.14702e+58
          1346.24590	         1.00915e+58
          1347.05220	         1.12672e+58
          1347.85850	         1.04928e+58
          1348.66480	         1.09420e+58
          1349.47110	         1.14528e+58
          1350.27740	         1.14489e+58
          1351.08370	         1.28578e+58
          1351.89000	         1.17204e+58
          1352.69630	         9.95205e+57
          1353.50260	         1.09135e+58
          1354.30890	         1.26756e+58
          1355.11520	         1.11313e+58
          1355.92150	         1.06547e+58
          1356.72780	         1.05479e+58
          1357.53410	         1.08339e+58
          1358.34040	         1.12614e+58
          1359.14670	         1.05815e+58
          1359.95300	         1.09795e+58
          1360.75930	         1.13196e+58
          1361.56560	         1.03732e+58
          1362.37190	         1.04832e+58
          1363.17820	         1.04826e+58
          1363.98450	         1.21126e+58
          1364.79080	         1.40008e+58
          1365.59710	         1.30435e+58
          1366.40340	         1.08599e+58
          1367.20970	         9.41702e+57
          1368.01600	         9.96744e+57
          1368.82230	         1.05013e+58
          1369.62860	         1.07409e+58
          1370.43490	         8.42538e+57
          1371.24120	         8.71878e+57
          1372.04750	         8.72646e+57
          1372.85380	         1.07397e+58
          1373.66010	         1.27928e+58
          1374.46640	         1.06064e+58
          1375.27270	         1.04702e+58
          1376.07900	         9.23647e+57
          1376.88530	         8.53136e+57
          1377.69160	         8.14686e+57
          1378.49790	         7.21059e+57
          1379.30420	         8.47971e+57
          1380.11050	         9.57259e+57
          1380.91680	         7.72294e+57
          1381.72310	         6.82603e+57
          1382.52940	         9.40214e+57
          1383.33570	         1.03206e+58
          1384.14200	         9.24751e+57
          1384.94830	         9.82664e+57
          1385.75460	         9.41079e+57
          1386.56090	         9.97660e+57
          1387.36720	         1.09225e+58
          1388.17350	         1.40786e+58
          1388.97980	         1.17622e+58
          1389.78610	         8.97560e+57
          1390.59240	         8.45991e+57
          1391.39870	         7.70819e+57
          1392.20500	         6.90715e+57
          1393.01130	         8.04313e+57
          1393.81760	         7.42730e+57
          1394.62390	         6.23485e+57
          1395.43020	         6.25273e+57
          1396.23650	         6.41334e+57
          1397.04280	         7.19914e+57
          1397.84910	         9.15541e+57
          1398.65540	         9.12146e+57
          1399.46170	         9.06111e+57
          1400.26800	         7.30827e+57
          1401.07430	         6.14062e+57
          1401.88060	         8.10811e+57
          1402.68690	         1.01550e+58
          1403.49320	         9.95575e+57
          1404.29950	         9.17881e+57
          1405.10580	         1.05836e+58
          1405.91210	         1.11483e+58
          1406.71840	         1.04807e+58
          1407.52470	         1.08302e+58
          1408.33100	         9.56508e+57
          1409.13730	         9.75387e+57
          1409.94360	         1.07669e+58
          1410.74990	         1.11863e+58
          1411.55620	         9.22877e+57
          1412.36250	         8.85430e+57
          1413.16880	         9.77402e+57
          1413.97510	         8.43382e+57
          1414.78140	         9.04971e+57
          1415.58770	         1.03683e+58
          1416.39400	         1.05033e+58
          1417.20030	         9.66133e+57
          1418.00660	         1.00331e+58
          1418.81290	         1.10841e+58
          1419.61920	         1.07812e+58
          1420.42550	         1.24217e+58
          1421.23180	         1.40889e+58
          1422.03810	         1.20641e+58
          1422.84440	         1.11405e+58
          1423.65070	         1.25229e+58
          1424.45700	         1.12262e+58
          1425.26330	         9.12635e+57
          1426.06960	         8.63599e+57
          1426.87590	         1.00899e+58
          1427.68220	         1.03258e+58
          1428.48850	         1.03043e+58
          1429.29480	         1.01455e+58
          1430.10110	         1.11932e+58
          1430.90740	         9.70316e+57
          1431.71370	         9.26422e+57
          1432.52000	         9.61184e+57
          1433.32630	         9.16668e+57
          1434.13260	         8.72960e+57
          1434.93890	         9.07441e+57
          1435.74520	         9.30214e+57
          1436.55150	         9.33328e+57
          1437.35780	         9.69889e+57
          1438.16410	         9.74606e+57
          1438.97040	         8.70054e+57
          1439.77670	         8.86519e+57
          1440.58300	         8.74955e+57
          1441.38930	         9.66953e+57
          1442.19560	         1.02346e+58
          1443.00190	         9.17227e+57
          1443.80820	         1.05633e+58
          1444.61450	         1.01962e+58
          1445.42080	         8.71001e+57
          1446.22710	         1.03740e+58
          1447.03340	         9.98915e+57
          1447.83970	         1.06493e+58
          1448.64600	         1.14206e+58
          1449.45230	         1.03785e+58
          1450.25860	         1.04833e+58
          1451.06490	         9.54456e+57
          1451.87120	         8.15223e+57
          1452.67750	         7.68455e+57
          1453.48380	         9.07357e+57
          1454.29010	         8.03491e+57
          1455.09640	         7.57826e+57
          1455.90270	         8.54885e+57
          1456.70900	         7.98820e+57
          1457.51530	         9.22937e+57
          1458.32160	         1.22575e+58
          1459.12790	         1.24934e+58
          1459.93420	         1.02247e+58
          1460.74050	         7.68605e+57
          1461.54680	         8.21102e+57
          1462.35310	         7.85996e+57
          1463.15940	         1.00774e+58
          1463.96570	         1.16242e+58
          1464.77200	         1.14994e+58
          1465.57830	         9.92430e+57
          1466.38460	         8.64927e+57
          1467.19090	         8.21176e+57
          1467.99720	         9.69066e+57
          1468.80350	         9.74695e+57
          1469.60980	         9.53877e+57
          1470.41610	         1.02302e+58
          1471.22240	         9.38843e+57
          1472.02870	         1.03842e+58
          1472.83500	         1.07692e+58
          1473.64130	         9.44251e+57
          1474.44760	         9.38203e+57
          1475.25390	         9.94371e+57
          1476.06020	         9.08236e+57
          1476.86650	         7.98043e+57
          1477.67280	         8.26412e+57
          1478.47910	         7.80941e+57
          1479.28540	         7.02238e+57
          1480.09170	         8.57684e+57
          1480.89800	         8.58233e+57
          1481.70430	         8.91093e+57
          1482.51060	         8.92382e+57
          1483.31690	         7.36844e+57
          1484.12320	         7.68826e+57
          1484.92950	         8.79842e+57
          1485.73580	         8.42300e+57
          1486.54210	         8.82580e+57
          1487.34840	         8.73493e+57
          1488.15470	         7.86672e+57
          1488.96100	         8.29923e+57
          1489.76730	         9.22156e+57
          1490.57360	         8.50653e+57
          1491.37990	         7.98069e+57
          1492.18620	         8.78418e+57
          1492.99250	         8.65306e+57
          1493.79880	         8.72195e+57
          1494.60510	         8.96370e+57
          1495.41140	         8.12479e+57
          1496.21770	         8.94995e+57
          1497.02400	         9.96394e+57
          1497.83030	         8.70791e+57
          1498.63660	         7.61392e+57
          1499.44290	         8.23010e+57
          1500.24920	         7.73705e+57
          1501.05550	         7.46481e+57
          1501.86180	         8.71829e+57
          1502.66810	         9.49068e+57
          1503.47440	         8.42770e+57
          1504.28070	         7.61072e+57
          1505.08700	         8.96141e+57
          1505.89330	         9.24716e+57
          1506.69960	         7.66661e+57
          1507.50590	         8.37200e+57
          1508.31220	         8.82634e+57
          1509.11850	         9.31171e+57
          1509.92480	         1.03769e+58
          1510.73110	         9.81606e+57
          1511.53740	         8.04448e+57
          1512.34370	         7.62062e+57
          1513.15000	         9.39932e+57
          1513.95630	         1.03271e+58
          1514.76260	         9.29726e+57
          1515.56890	         7.54540e+57
          1516.37520	         7.81690e+57
          1517.18150	         8.78591e+57
          1517.98780	         8.16502e+57
          1518.79410	         7.36905e+57
          1519.60040	         8.23881e+57
          1520.40670	         9.74642e+57
          1521.21300	         9.30260e+57
          1522.01930	         8.38679e+57
          1522.82560	         9.03192e+57
          1523.63190	         9.58044e+57
          1524.43820	         8.46414e+57
          1525.24450	         5.94691e+57
          1526.05080	         6.12436e+57
          1526.85710	         6.89377e+57
          1527.66340	         7.99694e+57
          1528.46970	         8.51429e+57
          1529.27600	         8.13476e+57
          1530.08230	         7.77110e+57
          1530.88860	         6.99361e+57
          1531.69490	         8.52035e+57
          1532.50120	         9.53023e+57
          1533.30750	         9.82445e+57
          1534.11380	         9.28531e+57
          1534.92010	         9.61655e+57
          1535.72640	         9.54985e+57
          1536.53270	         9.23504e+57
          1537.33900	         9.00693e+57
          1538.14530	         9.02438e+57
          1538.95160	         8.64765e+57
          1539.75790	         8.35582e+57
          1540.56420	         8.92676e+57
          1541.37050	         8.81691e+57
          1542.17680	         7.43710e+57
          1542.98310	         6.78034e+57
          1543.78940	         7.08247e+57
          1544.59570	         6.65119e+57
          1545.40200	         7.32812e+57
          1546.20830	         8.68238e+57
          1547.01460	         1.03016e+58
          1547.82090	         1.04210e+58
          1548.62720	         1.10125e+58
          1549.43350	         1.17847e+58
          1550.23980	         1.14940e+58
          1551.04610	         1.17492e+58
          1551.85240	         1.30614e+58
          1552.65870	         1.16096e+58
          1553.46500	         1.01835e+58
          1554.27130	         9.70270e+57
          1555.07760	         1.02618e+58
          1555.88390	         9.01282e+57
          1556.69020	         8.78481e+57
          1557.49650	         8.25856e+57
          1558.30280	         9.62552e+57
          1559.10910	         1.01659e+58
          1559.91540	         9.69088e+57
          1560.72170	         9.20989e+57
          1561.52800	         8.81408e+57
          1562.33430	         8.35441e+57
          1563.14060	         7.38187e+57
          1563.94690	         8.11759e+57
          1564.75320	         8.44297e+57
          1565.55950	         7.42225e+57
          1566.36580	         8.05861e+57
          1567.17210	         9.01544e+57
          1567.97840	         9.06656e+57
          1568.78470	         8.56575e+57
          1569.59100	         9.14448e+57
          1570.39730	         8.15755e+57
          1571.20360	         7.13532e+57
          1572.00990	         7.29471e+57
          1572.81620	         8.27043e+57
          1573.62250	         9.71972e+57
          1574.42880	         9.33897e+57
          1575.23510	         7.68021e+57
          1576.04140	         8.44849e+57
          1576.84770	         9.45401e+57
          1577.65400	         8.87565e+57
          1578.46030	         1.00475e+58
          1579.26660	         1.08780e+58
          1580.07290	         9.14816e+57
          1580.87920	         7.91274e+57
          1581.68550	         8.25147e+57
          1582.49180	         8.02308e+57
          1583.29810	         7.82600e+57
          1584.10440	         7.98856e+57
          1584.91070	         8.16174e+57
          1585.71700	         8.41075e+57
          1586.52330	         8.50303e+57
          1587.32960	         9.11090e+57
          1588.13590	         9.80082e+57
          1588.94220	         9.41948e+57
          1589.74850	         9.12339e+57
          1590.55480	         9.01361e+57
          1591.36110	         8.21382e+57
          1592.16740	         8.43681e+57
          1592.97370	         8.27964e+57
          1593.78000	         8.18526e+57
          1594.58630	         9.69224e+57
          1595.39260	         8.78978e+57
          1596.19890	         7.83188e+57
          1597.00520	         9.15929e+57
          1597.81150	         8.85788e+57
          1598.61780	         8.26777e+57
          1599.42410	         7.30059e+57
          1600.23040	         6.69257e+57
          1601.03670	         7.77725e+57
          1601.84300	         7.57393e+57
          1602.64930	         8.34656e+57
          1603.45560	         9.34997e+57
          1604.26190	         8.02359e+57
          1605.06820	         7.98727e+57
          1605.87450	         7.35691e+57
          1606.68080	         6.92864e+57
          1607.48710	         5.47815e+57
          1608.29340	         5.18583e+57
          1609.09970	         6.31577e+57
          1609.90600	         7.00477e+57
          1610.71230	         7.02598e+57
          1611.51860	         7.09214e+57
          1612.32490	         6.89135e+57
          1613.13120	         8.14497e+57
          1613.93750	         8.73457e+57
          1614.74380	         8.29011e+57
          1615.55010	         7.93779e+57
          1616.35640	         9.21991e+57
          1617.16270	         9.84640e+57
          1617.96900	         1.01295e+58
          1618.77530	         9.71347e+57
          1619.58160	         8.97397e+57
          1620.38790	         8.94183e+57
          1621.19420	         8.59071e+57
          1622.00050	         7.95130e+57
          1622.80680	         8.87951e+57
          1623.61310	         9.35708e+57
          1624.41940	         9.35678e+57
          1625.22570	         9.95559e+57
          1626.03200	         8.78694e+57
          1626.83830	         7.64064e+57
          1627.64460	         7.78823e+57
          1628.45090	         6.44923e+57
          1629.25720	         9.30571e+57
          1630.06350	         1.06124e+58
          1630.86980	         6.15783e+57
          1631.67610	         6.09577e+57
          1632.48240	         8.73540e+57
          1633.28870	         9.26437e+57
          1634.09500	         1.09241e+58
          1634.90130	         1.22672e+58
          1635.70760	         8.56551e+57
          1636.51390	         6.54969e+57
          1637.32020	         6.46951e+57
          1638.12650	         8.32444e+57
          1638.93280	         9.42902e+57
          1639.73910	         1.07339e+58
          1640.54540	         1.03520e+58
          1641.35170	         8.62314e+57
          1642.15800	         9.79766e+57
          1642.96430	         9.21940e+57
          1643.77060	         8.85035e+57
          1644.57690	         8.11085e+57
          1645.38320	         8.13601e+57
          1646.18950	         7.61773e+57
          1646.99580	         8.66712e+57
          1647.80210	         8.29660e+57
          1648.60840	         6.81236e+57
          1649.41470	         7.49918e+57
          1650.22100	         6.55158e+57
          1651.02730	         6.93768e+57
          1651.83360	         7.98669e+57
          1652.63990	         8.36165e+57
          1653.44620	         9.27060e+57
          1654.25250	         7.84758e+57
          1655.05880	         6.85336e+57
          1655.86510	         7.95011e+57
          1656.67140	         8.96945e+57
          1657.47770	         8.54801e+57
          1658.28400	         8.21034e+57
          1659.09030	         8.64885e+57
          1659.89660	         8.39030e+57
          1660.70290	         9.84784e+57
          1661.50920	         9.89638e+57
          1662.31550	         8.55467e+57
          1663.12180	         8.84689e+57
          1663.92810	         9.05347e+57
          1664.73440	         1.07068e+58
          1665.54070	         1.26260e+58
          1666.34700	         1.30873e+58
          1667.15330	         1.13956e+58
          1667.95960	         9.58583e+57
          1668.76590	         7.17010e+57
          1669.57220	         7.08215e+57
          1670.37850	         7.73370e+57
          1671.18480	         8.57033e+57
          1671.99110	         7.48276e+57
          1672.79740	         7.19478e+57
          1673.60370	         7.11811e+57
          1674.41000	         7.49608e+57
          1675.21630	         7.83620e+57
          1676.02260	         6.68854e+57
          1676.82890	         7.17552e+57
          1677.63520	         6.83853e+57
          1678.44150	         7.59796e+57
          1679.24780	         8.55516e+57
          1680.05410	         7.51693e+57
          1680.86040	         6.64430e+57
          1681.66670	         7.56651e+57
          1682.47300	         8.86555e+57
          1683.27930	         8.66724e+57
          1684.08560	         8.36205e+57
          1684.89190	         7.41813e+57
          1685.69820	         5.60810e+57
          1686.50450	         4.42083e+57
          1687.31080	         5.43495e+57
          1688.11710	         7.21149e+57
          1688.92340	         7.34938e+57
          1689.72970	         6.86087e+57
          1690.53600	         6.56719e+57
          1691.34230	         6.47761e+57
          1692.14860	         6.16648e+57
          1692.95490	         8.22196e+57
          1693.76120	         8.08927e+57
          1694.56750	         6.81621e+57
          1695.37380	         8.34594e+57
          1696.18010	         9.30567e+57
          1696.98640	         9.10467e+57
          1697.79270	         9.04255e+57
          1698.59900	         8.67155e+57
          1699.40530	         7.92604e+57
          1700.21160	         9.15917e+57
          1701.01790	         1.00570e+58
          1701.82420	         6.55996e+57
          1702.63050	         6.49447e+57
          1703.43680	         7.76087e+57
          1704.24310	         9.11015e+57
          1705.04940	         8.44673e+57
          1705.85570	         7.95074e+57
          1706.66200	         9.59081e+57
          1707.46830	         9.70064e+57
          1708.27460	         7.76835e+57
          1709.08090	         6.37064e+57
          1709.88720	         6.34821e+57
          1710.69350	         6.63794e+57
          1711.49980	         6.27063e+57
          1712.30610	         7.03127e+57
          1713.11240	         8.79946e+57
          1713.91870	         7.83295e+57
          1714.72500	         7.34530e+57
          1715.53130	         7.94089e+57
          1716.33760	         8.27784e+57
          1717.14390	         6.83529e+57
          1717.95020	         7.43657e+57
          1718.75650	         8.37537e+57
          1719.56280	         8.76873e+57
          1720.36910	         6.94201e+57
          1721.17540	         7.22525e+57
          1721.98170	         6.80931e+57
          1722.78800	         6.35535e+57
          1723.59430	         7.01175e+57
          1724.40060	         7.50794e+57
          1725.20690	         8.15889e+57
          1726.01320	         8.17702e+57
          1726.81950	         8.03348e+57
          1727.62580	         7.63453e+57
          1728.43210	         6.77687e+57
          1729.23840	         6.25518e+57
          1730.04470	         7.47955e+57
          1730.85100	         8.23901e+57
          1731.65730	         7.35262e+57
          1732.46360	         7.18938e+57
          1733.26990	         6.82377e+57
          1734.07620	         7.86134e+57
          1734.88250	         8.64670e+57
          1735.68880	         8.69105e+57
          1736.49510	         8.86989e+57
          1737.30140	         8.48167e+57
          1738.10770	         7.14699e+57
          1738.91400	         6.79689e+57
          1739.72030	         6.69152e+57
          1740.52660	         5.87692e+57
          1741.33290	         6.01905e+57
          1742.13920	         6.37928e+57
          1742.94550	         6.09770e+57
          1743.75180	         6.68989e+57
          1744.55810	         7.80235e+57
          1745.36440	         7.58749e+57
          1746.17070	         6.34055e+57
          1746.97700	         6.19482e+57
          1747.78330	         7.80656e+57
          1748.58960	         7.44915e+57
          1749.39590	         6.75905e+57
          1750.20220	         6.77458e+57
          1751.00850	         5.99611e+57
          1751.81480	         5.92494e+57
          1752.62110	         7.33411e+57
          1753.42740	         8.62607e+57
          1754.23370	         7.19340e+57
          1755.04000	         7.30221e+57
          1755.84630	         7.59568e+57
          1756.65260	         8.26613e+57
          1757.45890	         7.47518e+57
          1758.26520	         6.97676e+57
          1759.07150	         8.61220e+57
          1759.87780	         7.80280e+57
          1760.68410	         8.17300e+57
          1761.49040	         9.23845e+57
          1762.29670	         6.20713e+57
          1763.10300	         6.62682e+57
          1763.90930	         7.73628e+57
          1764.71560	         9.28420e+57
          1765.52190	         7.98395e+57
          1766.32820	         8.16317e+57
          1767.13450	         8.84593e+57
          1767.94080	         7.44327e+57
          1768.74710	         7.35578e+57
          1769.55340	         7.47699e+57
          1770.35970	         5.78345e+57
          1771.16600	         7.34835e+57
          1771.97230	         8.77196e+57
          1772.77860	         8.74441e+57
          1773.58490	         7.34165e+57
          1774.39120	         6.41085e+57
          1775.19750	         6.38970e+57
          1776.00380	         7.36467e+57
          1776.81010	         7.16553e+57
          1777.61640	         6.71752e+57
          1778.42270	         7.22614e+57
          1779.22900	         6.99500e+57
          1780.03530	         7.50062e+57
          1780.84160	         7.92445e+57
          1781.64790	         8.79207e+57
          1782.45420	         7.71601e+57
          1783.26050	         6.67918e+57
          1784.06680	         6.60407e+57
          1784.87310	         6.97840e+57
          1785.67940	         8.02409e+57
          1786.48570	         7.86684e+57
          1787.29200	         7.18440e+57
          1788.09830	         6.08903e+57
          1788.90460	         5.72830e+57
          1789.71090	         5.16448e+57
          1790.51720	         5.77346e+57
          1791.32350	         7.45854e+57
          1792.12980	         8.94977e+57
          1792.93610	         8.17087e+57
          1793.74240	         8.06101e+57
          1794.54870	         8.64305e+57
          1795.35500	         8.43300e+57
          1796.16130	         7.54409e+57
          1796.96760	         6.08556e+57
          1797.77390	         6.18491e+57
          1798.58020	         8.00095e+57
          1799.38650	         6.79848e+57
          1800.19280	         6.42255e+57
          1800.99910	         8.13715e+57
          1801.80540	         8.17376e+57
          1802.61170	         8.56244e+57
          1803.41800	         7.83799e+57
          1804.22430	         6.01185e+57
          1805.03060	         7.00697e+57
          1805.83690	         8.02234e+57
          1806.64320	         8.43627e+57
          1807.44950	         8.81400e+57
          1808.25580	         8.05400e+57
          1809.06210	         8.32212e+57
          1809.86840	         7.44403e+57
          1810.67470	         8.68469e+57
          1811.48100	         9.12568e+57
          1812.28730	         8.32721e+57
          1813.09360	         7.07547e+57
          1813.89990	         7.70081e+57
          1814.70620	         6.97720e+57
          1815.51250	         8.26496e+57
          1816.31880	         7.93660e+57
          1817.12510	         7.80230e+57
          1817.93140	         7.16403e+57
          1818.73770	         7.44026e+57
          1819.54400	         9.66499e+57
          1820.35030	         9.21182e+57
          1821.15660	         6.48705e+57
          1821.96290	         6.10679e+57
          1822.76920	         7.74889e+57
          1823.57550	         8.30372e+57
          1824.38180	         6.85839e+57
          1825.18810	         7.32772e+57
          1825.99440	         8.48612e+57
          1826.80070	         8.01817e+57
          1827.60700	         7.10673e+57
          1828.41330	         5.87770e+57
          1829.21960	         6.30090e+57
          1830.02590	         6.92279e+57
          1830.83220	         7.40165e+57
          1831.63850	         7.83466e+57
          1832.44480	         7.90390e+57
          1833.25110	         8.08265e+57
          1834.05740	         8.48072e+57
          1834.86370	         7.88580e+57
          1835.67000	         7.14183e+57
          1836.47630	         7.81556e+57
          1837.28260	         8.26347e+57
          1838.08890	         8.92672e+57
          1838.89520	         7.93120e+57
          1839.70150	         6.84040e+57
          1840.50780	         6.74432e+57
          1841.31410	         7.20090e+57
          1842.12040	         7.51310e+57
          1842.92670	         6.71836e+57
          1843.73300	         6.25230e+57
          1844.53930	         6.24092e+57
          1845.34560	         6.52615e+57
          1846.15190	         7.99929e+57
          1846.95820	         8.33389e+57
          1847.76450	         8.23869e+57
          1848.57080	         6.89944e+57
          1849.37710	         7.12723e+57
          1850.18340	         8.00073e+57
          1850.98970	         8.33699e+57
          1851.79600	         8.18242e+57
          1852.60230	         7.30276e+57
          1853.40860	         7.50534e+57
          1854.21490	         7.23790e+57
          1855.02120	         6.40970e+57
          1855.82750	         5.51076e+57
          1856.63380	         7.02109e+57
          1857.44010	         7.09208e+57
          1858.24640	         6.60589e+57
          1859.05270	         7.89035e+57
          1859.85900	         6.64496e+57
          1860.66530	         5.78589e+57
          1861.47160	         5.90966e+57
          1862.27790	         5.96235e+57
          1863.08420	         6.66643e+57
          1863.89050	         7.33187e+57
          1864.69680	         6.54240e+57
          1865.50310	         7.45181e+57
          1866.30940	         7.03602e+57
          1867.11570	         6.48436e+57
          1867.92200	         7.19701e+57
          1868.72830	         8.06571e+57
          1869.53460	         7.93966e+57
          1870.34090	         7.58951e+57
          1871.14720	         7.64952e+57
          1871.95350	         6.71551e+57
          1872.75980	         6.97828e+57
          1873.56610	         7.23415e+57
          1874.37240	         6.08838e+57
          1875.17870	         5.66558e+57
          1875.98500	         7.50655e+57
          1876.79130	         8.35012e+57
          1877.59760	         7.40521e+57
          1878.40390	         5.84463e+57
          1879.21020	         6.42675e+57
          1880.01650	         7.31267e+57
          1880.82280	         8.49037e+57
          1881.62910	         8.48464e+57
          1882.43540	         1.00127e+58
          1883.24170	         8.73305e+57
          1884.04800	         6.41651e+57
          1884.85430	         7.21428e+57
          1885.66060	         8.13548e+57
          1886.46690	         8.60261e+57
          1887.27320	         7.01937e+57
          1888.07950	         6.32541e+57
          1888.88580	         7.21022e+57
          1889.69210	         8.43876e+57
          1890.49840	         8.34267e+57
          1891.30470	         7.82649e+57
          1892.11100	         8.62302e+57
          1892.91730	         7.89011e+57
          1893.72360	         7.71507e+57
          1894.52990	         7.65824e+57
          1895.33620	         8.00691e+57
          1896.14250	         7.20194e+57
          1896.94880	         5.81617e+57
          1897.75510	         4.21536e+57
          1898.56140	         5.54382e+57
          1899.36770	         8.16535e+57
          1900.17400	         7.15873e+57
          1900.98030	         5.96190e+57
          1901.78660	         7.26055e+57
          1902.59290	         7.39422e+57
          1903.39920	         8.96106e+57
          1904.20550	         9.47647e+57
          1905.01180	         8.59701e+57
          1905.81810	         9.63793e+57
          1906.62440	         1.20886e+58
          1907.43070	         1.44223e+58
          1908.23700	         1.59258e+58
          1909.04330	         1.30726e+58
          1909.84960	         1.12742e+58
          1910.65590	         1.00737e+58
          1911.46220	         8.91814e+57
          1912.26850	         8.43288e+57
          1913.07480	         6.25846e+57
          1913.88110	         5.83280e+57
          1914.68740	         5.14472e+57
          1915.49370	         5.03969e+57
          1916.30000	         5.41059e+57
          1917.10630	         6.32643e+57
          1917.91260	         6.19825e+57
          1918.71890	         6.15858e+57
          1919.52520	         6.17145e+57
          1920.33150	         4.70470e+57
          1921.13780	         5.52544e+57
          1921.94410	         8.60832e+57
          1922.75040	         8.14348e+57
          1923.55670	         6.19630e+57
          1924.36300	         6.72354e+57
          1925.16930	         6.87498e+57
          1925.97560	         5.61387e+57
          1926.78190	         4.42084e+57
          1927.58820	         6.29613e+57
          1928.39450	         6.42848e+57
          1929.20080	         5.27357e+57
          1930.00710	         7.55673e+57
          1930.81340	         8.56948e+57
          1931.61970	         7.76707e+57
          1932.42600	         8.04666e+57
          1933.23230	         8.59920e+57
          1934.03860	         7.30946e+57
          1934.84490	         5.35790e+57
          1935.65120	         7.08775e+57
          1936.45750	         9.47703e+57
          1937.26380	         7.40206e+57
          1938.07010	         7.03909e+57
          1938.87640	         6.91799e+57
          1939.68270	         6.97637e+57
          1940.48900	         7.57027e+57
          1941.29530	         9.33008e+57
          1942.10160	         8.77123e+57
          1942.90790	         6.74220e+57
          1943.71420	         6.18870e+57
          1944.52050	         6.30000e+57
          1945.32680	         6.88226e+57
          1946.13310	         7.57716e+57
          1946.93940	         8.44926e+57
          1947.74570	         7.16944e+57
          1948.55200	         6.00251e+57
          1949.35830	         6.55811e+57
          1950.16460	         6.27533e+57
          1950.97090	         7.11534e+57
          1951.77720	         8.44460e+57
          1952.58350	         8.59200e+57
          1953.38980	         6.25643e+57
          1954.19610	         4.24824e+57
          1955.00240	         5.17792e+57
          1955.80870	         5.55789e+57
          1956.61500	         5.48542e+57
          1957.42130	         6.64375e+57
          1958.22760	         7.39743e+57
          1959.03390	         8.04303e+57
          1959.84020	         7.86804e+57
          1960.64650	         7.05796e+57
          1961.45280	         6.24982e+57
          1962.25910	         5.86332e+57
          1963.06540	         5.96339e+57
          1963.87170	         5.62809e+57
          1964.67800	         6.04460e+57
          1965.48430	         4.88134e+57
          1966.29060	         5.86361e+57
          1967.09690	         6.59685e+57
          1967.90320	         7.24169e+57
          1968.70950	         7.19434e+57
          1969.51580	         6.72509e+57
          1970.32210	         8.50964e+57
          1971.12840	         8.54581e+57
          1971.93470	         4.29358e+57
          1972.74100	         4.68210e+57
          1973.54730	         7.22087e+57
          1974.35360	         7.63538e+57
          1975.15990	         7.28386e+57
          1975.96620	         6.09526e+57
          1976.77250	         7.19609e+57
          1977.57880	         7.32226e+57
          1978.38510	         7.18349e+57
          1979.19140	         7.22199e+57
          1979.99770	         7.63129e+57
          1980.80400	         7.47204e+57
          1981.61030	         6.93577e+57
          1982.41660	         6.83634e+57
          1983.22290	         6.82818e+57
          1984.02920	         5.93599e+57
          1984.83550	         5.95027e+57
          1985.64180	         7.22066e+57
          1986.44810	         6.46414e+57
          1987.25440	         5.61504e+57
          1988.06070	         6.10108e+57
          1988.86700	         6.28844e+57
          1989.67330	         6.26324e+57
          1990.47960	         5.98099e+57
          1991.28590	         6.67995e+57
          1992.09220	         6.74561e+57
          1992.89850	         5.98718e+57
          1993.70480	         6.10652e+57
          1994.51110	         5.76762e+57
          1995.31740	         6.29333e+57
          1996.12370	         5.97844e+57
          1996.93000	         5.11544e+57
          1997.73630	         7.00831e+57
          1998.54260	         7.72077e+57
          1999.34890	         6.70628e+57
          2000.15520	         7.13003e+57
          2000.96150	         6.80166e+57
          2001.76780	         6.17009e+57
          2002.57410	         4.44259e+57
          2003.38040	         6.27846e+57
          2004.18670	         7.10976e+57
          2004.99300	         6.43279e+57
          2005.79930	         7.07870e+57
          2006.60560	         7.10107e+57
          2007.41190	         7.04476e+57
          2008.21820	         6.21127e+57
          2009.02450	         6.22130e+57
          2009.83080	         7.11275e+57
          2010.63710	         6.46333e+57
          2011.44340	         6.73032e+57
          2012.24970	         7.35839e+57
          2013.05600	         6.95746e+57
          2013.86230	         6.09454e+57
          2014.66860	         4.53852e+57
          2015.47490	         5.63474e+57
          2016.28120	         5.36392e+57
          2017.08750	         5.82948e+57
          2017.89380	         5.75966e+57
          2018.70010	         6.22811e+57
          2019.50640	         5.63815e+57
          2020.31270	         5.24983e+57
          2021.11900	         7.01121e+57
          2021.92530	         6.96239e+57
          2022.73160	         7.21424e+57
          2023.53790	         6.59191e+57
          2024.34420	         6.60091e+57
          2025.15050	         6.35232e+57
          2025.95680	         5.32424e+57
          2026.76310	         5.68243e+57
          2027.56940	         6.48414e+57
          2028.37570	         5.69356e+57
          2029.18200	         5.67410e+57
          2029.98830	         6.01676e+57
          2030.79460	         6.07458e+57
          2031.60090	         6.77612e+57
          2032.40720	         6.99758e+57
          2033.21350	         6.06485e+57
          2034.01980	         6.44169e+57
          2034.82610	         5.81259e+57
          2035.63240	         4.89547e+57
          2036.43870	         6.28743e+57
          2037.24500	         7.04591e+57
          2038.05130	         6.20053e+57
          2038.85760	         6.53266e+57
          2039.66390	         7.51358e+57
          2040.47020	         5.78719e+57
          2041.27650	         6.42126e+57
          2042.08280	         5.27194e+57
          2042.88910	         6.38515e+57
          2043.69540	         5.04050e+57
          2044.50170	         4.47737e+57
          2045.30800	         6.13767e+57
          2046.11430	         4.96093e+57
          2046.92060	         5.30104e+57
          2047.72690	         6.18889e+57
          2048.53320	         7.45272e+57
          2049.33950	         5.10955e+57
          2050.14580	         4.30487e+57
          2050.95210	         6.49617e+57
          2051.75840	         5.97072e+57
          2052.56470	         5.77568e+57
          2053.37100	         4.98565e+57
          2054.17730	         4.57236e+57
          2054.98360	         5.44428e+57
          2055.78990	         4.60851e+57
          2056.59620	         4.00742e+57
          2057.40250	         4.43725e+57
          2058.20880	         5.99832e+57
          2059.01510	         6.20880e+57
          2059.82140	         5.69169e+57
          2060.62770	         9.26756e+57
          2061.43400	         1.37640e+58
          2062.24030	         1.33436e+58
          2063.04660	         3.87089e+57
          2063.85290	         1.60917e+57
          2064.65920	        -1.19785e+57
          2065.46550	        -8.00500e+57
          2066.27180	        -9.40999e+57
          2067.07810	         2.90997e+57
          2067.88440	         4.64378e+57
          2068.69070	         5.90416e+57
          2069.49700	         6.39388e+57
          2070.30330	         2.51104e+57
          2071.10960	         5.19734e+57
          2071.91590	         6.45070e+57
          2072.72220	         4.94643e+57
          2073.52850	         5.53221e+57
          2074.33480	         5.04277e+57
          2075.14110	         4.88694e+57
          2075.94740	         4.63445e+57
          2076.75370	         4.77576e+57
          2077.56000	         3.63336e+57
          2078.36630	         5.02228e+57
          2079.17260	         4.64460e+57
          2079.97890	         5.21195e+57
          2080.78520	         6.40590e+57
          2081.59150	         4.84823e+57
          2082.39780	         5.01640e+57
          2083.20410	         2.81757e+57
          2084.01040	         2.13643e+57
          2084.81670	         2.61317e+57
          2085.62300	         3.29008e+57
          2086.42930	         4.24308e+57
          2087.23560	         3.36018e+57
          2088.04190	         4.18703e+57
          2088.84820	         4.43528e+57
          2089.65450	         2.99033e+57
          2090.46080	         2.05075e+57
          2091.26710	         3.32087e+57
          2092.07340	         3.49277e+57
          2092.87970	         3.13263e+57
          2093.68600	        -1.19779e+55
          2094.49230	        -8.38234e+56
          2095.29860	         3.54780e+57
          2096.10490	         5.09540e+57
          2096.91120	         2.67309e+57
          2097.71750	         3.65638e+56
          2098.52380	        -1.82938e+57
          2099.33010	         1.49007e+56
          2100.13640	         1.13718e+57
          2100.94270	         3.43549e+57
          2101.74900	         4.08310e+57
          2102.55530	         3.02274e+57
          2103.36160	         2.89186e+57
          2104.16790	         4.23625e+57
          2104.97420	         3.15558e+57
          2105.78050	         3.36993e+57
          2106.58680	         2.76512e+57
          2107.39310	        -2.07702e+57
          2108.19940	        -2.04709e+57
          2109.00570	        -3.91244e+56
          2109.81200	         9.52870e+56
          2110.61830	         2.78733e+57
          2111.42460	         2.55023e+57
          2112.23090	        -1.54355e+57
          2113.03720	        -5.49441e+56
          2113.84350	         1.28691e+57
          2114.64980	         5.27401e+57
          2115.45610	        -9.72801e+55
          2116.26240	        -4.33800e+57
          2117.06870	         1.93239e+57
          2117.87500	         1.22739e+57
          2118.68130	         3.08072e+57
          2119.48760	         3.40686e+57
          2120.29390	         3.05297e+57
          2121.10020	        -6.24966e+57
          2121.90650	        -6.38829e+57
          2122.71280	        -1.22005e+57
          2123.51910	        -1.26572e+56
          2124.32540	        -1.73064e+57
          2125.13170	         7.98095e+56
          2125.93800	         6.83552e+57
          2126.74430	         3.68578e+56
          2127.55060	        -4.85093e+57
          2128.35690	        -1.32780e+57
          2129.16320	        -1.42026e+57
          2129.96950	        -2.73565e+57
          2130.77580	        -2.36680e+57
          2131.58210	        -6.41748e+56
          2132.38840	         4.58707e+56
          2133.19470	        -8.74212e+56
          2134.00100	        -2.41478e+55
          2134.80730	        -2.87749e+57
          2135.61360	         3.49045e+56
          2136.41990	         4.95925e+57
          2137.22620	         5.44878e+56
          2138.03250	         1.17714e+57
          2138.83880	        -2.80365e+56
          2139.64510	        -6.62727e+57
          2140.45140	        -5.51336e+57
          2141.25770	        -1.13517e+58
          2142.06400	        -5.83193e+57
          2142.87030	        -1.74180e+57
          2143.67660	         8.34943e+57
          2144.48290	         5.78920e+57
          2145.28920	         6.92470e+56
          2146.09550	        -5.11915e+57
          2146.90180	        -5.68247e+57
          2147.70810	        -3.22752e+57
          2148.51440	        -8.00170e+57
          2149.32070	        -1.03887e+58
          2150.12700	        -8.87826e+57
          2150.93330	        -8.91289e+57
          2151.73960	        -2.37396e+57
          2152.54590	        -7.88807e+57
          2153.35220	        -2.86475e+57
          2154.15850	         2.86635e+57
          2154.96480	        -5.60437e+57
          2155.77110	        -9.13755e+57
          2156.57740	         1.72892e+57
          2157.38370	         4.68445e+57
          2158.19000	        -6.48887e+57
          2158.99630	        -1.27821e+57
          2159.80260	        -1.08686e+58
          2160.60890	        -1.17267e+57
          2161.41520	        -6.53993e+56
          2162.22150	         6.09782e+57
          2163.02780	         1.46919e+57
          2163.83410	        -4.38294e+57
          2164.64040	        -1.27490e+58
          2165.44670	        -6.23413e+57
          2166.25300	        -1.60242e+58
          2167.05930	        -8.69471e+57
          2167.86560	        -2.80033e+57
          2168.67190	        -6.73244e+57
          2169.47820	         1.86087e+57
          2170.28450	         3.09212e+56
          2171.09080	        -6.38380e+57
          2171.89710	         2.18133e+57
          2172.70340	        -2.87179e+56
          2173.50970	        -8.16329e+57
          2174.31600	        -4.69052e+57
          2175.12230	        -2.65949e+57
          2175.92860	        -5.81046e+57
          2176.73490	        -2.29783e+57
          2177.54120	        -7.53416e+57
          2178.34750	        -7.39597e+56
          2179.15380	                 nan
          2179.96010	                 nan
          2180.76640	                 nan
          2181.57270	                 nan
          2182.37900	                 nan
          2183.18530	                 nan
          2183.99160	                 nan
          2184.79790	                 nan
          2185.60420	                 nan
          2186.41050	                 nan
          2187.21680	                 nan
          2188.02310	                 nan
          2188.82940	                 nan
          2189.63570	                 nan
          2190.44200	                 nan
          2191.24830	                 nan
          2192.05460	                 nan
          2192.86090	                 nan
          2193.66720	                 nan
          2194.47350	                 nan
          2195.27980	                 nan
          2196.08610	                 nan
          2196.89240	                 nan
          2197.69870	                 nan
          2198.50500	                 nan
          2199.31130	                 nan
          2200.11760	                 nan
          2200.92390	                 nan
          2201.73020	                 nan
          2202.53650	                 nan
          2203.34280	                 nan
          2204.14910	                 nan
          2204.95540	                 nan
          2205.76170	                 nan
          2206.56800	                 nan
          2207.37430	                 nan
          2208.18060	                 nan
          2208.98690	                 nan
          2209.79320	                 nan
          2210.59950	                 nan
          2211.40580	                 nan
          2212.21210	                 nan
          2213.01840	                 nan
          2213.82470	                 nan
          2214.63100	                 nan
          2215.43730	         0.00000e+00
