#sample_327_stacked_spectrum_rest_UV-bands_median_H-alpha_noDC.txt
#median Lum: 1.70020e+42
#Rest-frame wavelength (A) | Luminosity (erg/s/A)
#
          1110.00000	         0.00000e+00
          1110.80630	        -2.40612e+59
          1111.61260	         3.31867e+59
          1112.41890	         4.00238e+59
          1113.22520	         4.23869e+58
          1114.03150	        -2.15136e+57
          1114.83780	         2.55384e+59
          1115.64410	         7.14073e+58
          1116.45040	        -1.05603e+58
          1117.25670	         9.37825e+58
          1118.06300	         9.93761e+58
          1118.86930	         6.08839e+58
          1119.67560	         9.66958e+58
          1120.48190	         3.06854e+57
          1121.28820	        -2.72220e+58
          1122.09450	         8.20103e+58
          1122.90080	         1.20781e+58
          1123.70710	         6.82491e+58
          1124.51340	         7.49787e+58
          1125.31970	         1.43202e+58
          1126.12600	         3.86752e+58
          1126.93230	         1.34918e+58
          1127.73860	        -1.89727e+57
          1128.54490	         1.27324e+58
          1129.35120	        -1.49615e+58
          1130.15750	        -5.35456e+58
          1130.96380	        -1.03969e+58
          1131.77010	         5.63351e+58
          1132.57640	         2.27214e+58
          1133.38270	         1.94890e+58
          1134.18900	         6.97014e+57
          1134.99530	         1.34775e+58
          1135.80160	         5.69865e+57
          1136.60790	        -3.97410e+57
          1137.41420	        -9.82560e+57
          1138.22050	         3.71221e+58
          1139.02680	         3.42926e+58
          1139.83310	         7.28688e+57
          1140.63940	         3.20266e+58
          1141.44570	        -1.14987e+58
          1142.25200	        -3.55205e+56
          1143.05830	         2.19523e+58
          1143.86460	         2.36159e+58
          1144.67090	         2.35802e+58
          1145.47720	         2.24388e+58
          1146.28350	         1.19030e+57
          1147.08980	         5.36353e+57
          1147.89610	         7.99044e+57
          1148.70240	         1.66623e+58
          1149.50870	         1.78023e+58
          1150.31500	         1.68707e+58
          1151.12130	         1.59902e+58
          1151.92760	         1.35405e+58
          1152.73390	        -7.18742e+57
          1153.54020	         2.68334e+56
          1154.34650	         2.06495e+58
          1155.15280	         2.08558e+58
          1155.95910	         2.66004e+57
          1156.76540	         1.07168e+58
          1157.57170	         8.19427e+57
          1158.37800	        -2.57028e+57
          1159.18430	        -8.28981e+56
          1159.99060	         2.04912e+57
          1160.79690	         1.97621e+57
          1161.60320	         9.73405e+57
          1162.40950	         1.63992e+58
          1163.21580	         8.60504e+57
          1164.02210	         1.00022e+58
          1164.82840	         1.15344e+58
          1165.63470	         2.53386e+58
          1166.44100	         3.58777e+58
          1167.24730	         2.33382e+58
          1168.05360	         9.46581e+57
          1168.85990	         1.15951e+58
          1169.66620	         8.14818e+57
          1170.47250	         1.00285e+58
          1171.27880	         8.33231e+57
          1172.08510	         1.54323e+58
          1172.89140	         1.53415e+58
          1173.69770	         5.75516e+57
          1174.50400	         9.91135e+57
          1175.31030	         8.77500e+57
          1176.11660	         1.02476e+58
          1176.92290	         1.12925e+58
          1177.72920	         8.39181e+57
          1178.53550	         9.86408e+57
          1179.34180	         9.24629e+57
          1180.14810	         4.61480e+57
          1180.95440	         3.68624e+57
          1181.76070	         2.92144e+57
          1182.56700	         6.13477e+57
          1183.37330	         3.90512e+57
          1184.17960	         9.45542e+57
          1184.98590	         1.26469e+58
          1185.79220	         6.30043e+57
          1186.59850	         7.20014e+57
          1187.40480	         8.60390e+57
          1188.21110	         9.12003e+57
          1189.01740	         1.03486e+58
          1189.82370	         8.75718e+57
          1190.63000	         7.65689e+57
          1191.43630	         1.07132e+58
          1192.24260	         6.61935e+57
          1193.04890	         1.33117e+58
          1193.85520	         9.50665e+57
          1194.66150	         7.74987e+57
          1195.46780	         1.27060e+58
          1196.27410	         1.80826e+58
          1197.08040	         1.52880e+58
          1197.88670	         1.55331e+58
          1198.69300	         1.56334e+58
          1199.49930	         1.49783e+58
          1200.30560	         1.33975e+58
          1201.11190	         1.16298e+58
          1201.91820	         9.85098e+57
          1202.72450	         5.59565e+57
          1203.53080	         1.35743e+58
          1204.33710	         1.01130e+58
          1205.14340	         5.82296e+57
          1205.94970	         6.72461e+57
          1206.75600	         9.39713e+57
          1207.56230	         1.04220e+58
          1208.36860	         1.07096e+58
          1209.17490	         7.81329e+57
          1209.98120	         9.83869e+57
          1210.78750	         8.30522e+57
          1211.59380	         1.20699e+58
          1212.40010	         1.45199e+58
          1213.20640	         1.74341e+58
          1214.01270	         1.86216e+58
          1214.81900	         2.55102e+58
          1215.62530	         4.79200e+58
          1216.43160	         8.98146e+58
          1217.23790	         1.51724e+59
          1218.04420	         1.15273e+59
          1218.85050	         8.40241e+58
          1219.65680	         5.61053e+58
          1220.46310	         3.11148e+58
          1221.26940	         2.15936e+58
          1222.07570	         1.32049e+58
          1222.88200	         9.78757e+57
          1223.68830	         1.03447e+58
          1224.49460	         9.32084e+57
          1225.30090	         7.88197e+57
          1226.10720	         7.69616e+57
          1226.91350	         8.03467e+57
          1227.71980	         6.98753e+57
          1228.52610	         1.34011e+58
          1229.33240	         8.70401e+57
          1230.13870	         8.56567e+57
          1230.94500	         6.66168e+57
          1231.75130	         6.52939e+57
          1232.55760	         6.35133e+57
          1233.36390	         8.99006e+57
          1234.17020	         8.17429e+57
          1234.97650	         7.30972e+57
          1235.78280	         6.91697e+57
          1236.58910	         7.61843e+57
          1237.39540	         1.07180e+58
          1238.20170	         1.10019e+58
          1239.00800	         1.16662e+58
          1239.81430	         1.24823e+58
          1240.62060	         9.41052e+57
          1241.42690	         1.06588e+58
          1242.23320	         1.38888e+58
          1243.03950	         1.00386e+58
          1243.84580	         9.63039e+57
          1244.65210	         1.07719e+58
          1245.45840	         7.00967e+57
          1246.26470	         6.71625e+57
          1247.07100	         7.57492e+57
          1247.87730	         6.24674e+57
          1248.68360	         8.97525e+57
          1249.48990	         8.66113e+57
          1250.29620	         7.78388e+57
          1251.10250	         7.49437e+57
          1251.90880	         3.31753e+57
          1252.71510	         5.10935e+57
          1253.52140	         8.02147e+57
          1254.32770	         9.22563e+57
          1255.13400	         1.18207e+58
          1255.94030	         1.07506e+58
          1256.74660	         1.08405e+58
          1257.55290	         1.32660e+58
          1258.35920	         1.06142e+58
          1259.16550	         5.25964e+57
          1259.97180	         5.21624e+57
          1260.77810	         7.56956e+57
          1261.58440	         1.05671e+58
          1262.39070	         9.86910e+57
          1263.19700	         8.65586e+57
          1264.00330	         9.12158e+57
          1264.80960	         1.10562e+58
          1265.61590	         1.18662e+58
          1266.42220	         1.07353e+58
          1267.22850	         1.15803e+58
          1268.03480	         1.52103e+58
          1268.84110	         1.67681e+58
          1269.64740	         1.27128e+58
          1270.45370	         1.21909e+58
          1271.26000	         1.14332e+58
          1272.06630	         1.06616e+58
          1272.87260	         1.33935e+58
          1273.67890	         1.38521e+58
          1274.48520	         1.28963e+58
          1275.29150	         1.13856e+58
          1276.09780	         1.12293e+58
          1276.90410	         1.52216e+58
          1277.71040	         1.39061e+58
          1278.51670	         1.28147e+58
          1279.32300	         1.39644e+58
          1280.12930	         1.19127e+58
          1280.93560	         1.08630e+58
          1281.74190	         1.25855e+58
          1282.54820	         1.26047e+58
          1283.35450	         1.06773e+58
          1284.16080	         1.15044e+58
          1284.96710	         1.37978e+58
          1285.77340	         9.45753e+57
          1286.57970	         9.43360e+57
          1287.38600	         1.62029e+58
          1288.19230	         1.87203e+58
          1288.99860	         1.58941e+58
          1289.80490	         1.22601e+58
          1290.61120	         1.32615e+58
          1291.41750	         1.33911e+58
          1292.22380	         1.06814e+58
          1293.03010	         1.24595e+58
          1293.83640	         1.30534e+58
          1294.64270	         9.28449e+57
          1295.44900	         6.87292e+57
          1296.25530	         7.41049e+57
          1297.06160	         1.12674e+58
          1297.86790	         1.24605e+58
          1298.67420	         9.71324e+57
          1299.48050	         1.04456e+58
          1300.28680	         1.09537e+58
          1301.09310	         7.65998e+57
          1301.89940	         4.83450e+57
          1302.70570	         6.19885e+57
          1303.51200	         6.71970e+57
          1304.31830	         9.60439e+57
          1305.12460	         1.25914e+58
          1305.93090	         1.19046e+58
          1306.73720	         1.26939e+58
          1307.54350	         1.47213e+58
          1308.34980	         1.56752e+58
          1309.15610	         1.79731e+58
          1309.96240	         1.65623e+58
          1310.76870	         1.33654e+58
          1311.57500	         1.29147e+58
          1312.38130	         1.25783e+58
          1313.18760	         1.48425e+58
          1313.99390	         1.41177e+58
          1314.80020	         1.35375e+58
          1315.60650	         1.38723e+58
          1316.41280	         1.39475e+58
          1317.21910	         1.26054e+58
          1318.02540	         1.24451e+58
          1318.83170	         1.25303e+58
          1319.63800	         1.19502e+58
          1320.44430	         1.27088e+58
          1321.25060	         1.19470e+58
          1322.05690	         1.19906e+58
          1322.86320	         1.11490e+58
          1323.66950	         9.73469e+57
          1324.47580	         8.64969e+57
          1325.28210	         9.96885e+57
          1326.08840	         1.24061e+58
          1326.89470	         1.24241e+58
          1327.70100	         9.81438e+57
          1328.50730	         8.64853e+57
          1329.31360	         8.76663e+57
          1330.11990	         9.50104e+57
          1330.92620	         9.36526e+57
          1331.73250	         1.10724e+58
          1332.53880	         1.02221e+58
          1333.34510	         8.99619e+57
          1334.15140	         9.20813e+57
          1334.95770	         9.21404e+57
          1335.76400	         1.07665e+58
          1336.57030	         1.16818e+58
          1337.37660	         1.05370e+58
          1338.18290	         1.03248e+58
          1338.98920	         1.13226e+58
          1339.79550	         1.02226e+58
          1340.60180	         1.16710e+58
          1341.40810	         1.36841e+58
          1342.21440	         1.11772e+58
          1343.02070	         1.32278e+58
          1343.82700	         1.53144e+58
          1344.63330	         1.32301e+58
          1345.43960	         1.48545e+58
          1346.24590	         1.10994e+58
          1347.05220	         9.90485e+57
          1347.85850	         1.13426e+58
          1348.66480	         1.01680e+58
          1349.47110	         1.11263e+58
          1350.27740	         1.10509e+58
          1351.08370	         1.05943e+58
          1351.89000	         1.00112e+58
          1352.69630	         1.11131e+58
          1353.50260	         1.13507e+58
          1354.30890	         1.20630e+58
          1355.11520	         1.17984e+58
          1355.92150	         9.87214e+57
          1356.72780	         8.27006e+57
          1357.53410	         9.41598e+57
          1358.34040	         1.05334e+58
          1359.14670	         1.01128e+58
          1359.95300	         1.07314e+58
          1360.75930	         1.06331e+58
          1361.56560	         1.00199e+58
          1362.37190	         1.06260e+58
          1363.17820	         1.08088e+58
          1363.98450	         1.10787e+58
          1364.79080	         1.18099e+58
          1365.59710	         1.16739e+58
          1366.40340	         9.85371e+57
          1367.20970	         9.03618e+57
          1368.01600	         9.73690e+57
          1368.82230	         9.45982e+57
          1369.62860	         1.02375e+58
          1370.43490	         1.03613e+58
          1371.24120	         9.85827e+57
          1372.04750	         9.27185e+57
          1372.85380	         1.11602e+58
          1373.66010	         1.21150e+58
          1374.46640	         1.12215e+58
          1375.27270	         1.11378e+58
          1376.07900	         9.56873e+57
          1376.88530	         8.45861e+57
          1377.69160	         9.24354e+57
          1378.49790	         8.76235e+57
          1379.30420	         8.33880e+57
          1380.11050	         9.80049e+57
          1380.91680	         8.69058e+57
          1381.72310	         8.91581e+57
          1382.52940	         9.73860e+57
          1383.33570	         7.96592e+57
          1384.14200	         9.24048e+57
          1384.94830	         1.19609e+58
          1385.75460	         1.05569e+58
          1386.56090	         1.17879e+58
          1387.36720	         1.14096e+58
          1388.17350	         1.22902e+58
          1388.97980	         1.06447e+58
          1389.78610	         8.36112e+57
          1390.59240	         7.79069e+57
          1391.39870	         7.69137e+57
          1392.20500	         7.90782e+57
          1393.01130	         7.66801e+57
          1393.81760	         8.08679e+57
          1394.62390	         7.91525e+57
          1395.43020	         6.79708e+57
          1396.23650	         6.53099e+57
          1397.04280	         8.87636e+57
          1397.84910	         8.69388e+57
          1398.65540	         9.04293e+57
          1399.46170	         8.99963e+57
          1400.26800	         7.37492e+57
          1401.07430	         8.05282e+57
          1401.88060	         7.94446e+57
          1402.68690	         8.92317e+57
          1403.49320	         9.51695e+57
          1404.29950	         9.56900e+57
          1405.10580	         1.01299e+58
          1405.91210	         1.14376e+58
          1406.71840	         1.17901e+58
          1407.52470	         9.94630e+57
          1408.33100	         8.93197e+57
          1409.13730	         9.90725e+57
          1409.94360	         1.07191e+58
          1410.74990	         1.09136e+58
          1411.55620	         1.06957e+58
          1412.36250	         9.50768e+57
          1413.16880	         8.56953e+57
          1413.97510	         8.49201e+57
          1414.78140	         8.79950e+57
          1415.58770	         1.00521e+58
          1416.39400	         1.10003e+58
          1417.20030	         1.10553e+58
          1418.00660	         9.83986e+57
          1418.81290	         1.02785e+58
          1419.61920	         1.05706e+58
          1420.42550	         1.20524e+58
          1421.23180	         1.35111e+58
          1422.03810	         1.27683e+58
          1422.84440	         1.15553e+58
          1423.65070	         1.42649e+58
          1424.45700	         1.17227e+58
          1425.26330	         7.68884e+57
          1426.06960	         7.97659e+57
          1426.87590	         1.09468e+58
          1427.68220	         1.06088e+58
          1428.48850	         1.02812e+58
          1429.29480	         1.06480e+58
          1430.10110	         1.00706e+58
          1430.90740	         8.57060e+57
          1431.71370	         8.65806e+57
          1432.52000	         9.18500e+57
          1433.32630	         7.73744e+57
          1434.13260	         7.04656e+57
          1434.93890	         7.86333e+57
          1435.74520	         9.13522e+57
          1436.55150	         8.28971e+57
          1437.35780	         7.79648e+57
          1438.16410	         9.81916e+57
          1438.97040	         9.43100e+57
          1439.77670	         9.27080e+57
          1440.58300	         1.01905e+58
          1441.38930	         9.93291e+57
          1442.19560	         1.04106e+58
          1443.00190	         9.53914e+57
          1443.80820	         1.04636e+58
          1444.61450	         8.75750e+57
          1445.42080	         8.11893e+57
          1446.22710	         1.04912e+58
          1447.03340	         1.04880e+58
          1447.83970	         1.09026e+58
          1448.64600	         1.02808e+58
          1449.45230	         9.39503e+57
          1450.25860	         9.60576e+57
          1451.06490	         8.61753e+57
          1451.87120	         7.80948e+57
          1452.67750	         7.68747e+57
          1453.48380	         9.67906e+57
          1454.29010	         8.25404e+57
          1455.09640	         7.63203e+57
          1455.90270	         8.76604e+57
          1456.70900	         8.57918e+57
          1457.51530	         9.62049e+57
          1458.32160	         1.19309e+58
          1459.12790	         1.21801e+58
          1459.93420	         1.15685e+58
          1460.74050	         9.33076e+57
          1461.54680	         9.31121e+57
          1462.35310	         8.19159e+57
          1463.15940	         9.59236e+57
          1463.96570	         1.18917e+58
          1464.77200	         1.23104e+58
          1465.57830	         1.04196e+58
          1466.38460	         8.59733e+57
          1467.19090	         7.92375e+57
          1467.99720	         8.07569e+57
          1468.80350	         8.47395e+57
          1469.60980	         9.58533e+57
          1470.41610	         1.15409e+58
          1471.22240	         1.08204e+58
          1472.02870	         1.05365e+58
          1472.83500	         1.05562e+58
          1473.64130	         1.05556e+58
          1474.44760	         9.55106e+57
          1475.25390	         9.59113e+57
          1476.06020	         8.57438e+57
          1476.86650	         8.91234e+57
          1477.67280	         9.44012e+57
          1478.47910	         7.84931e+57
          1479.28540	         7.37258e+57
          1480.09170	         8.48040e+57
          1480.89800	         8.82539e+57
          1481.70430	         9.20192e+57
          1482.51060	         8.51250e+57
          1483.31690	         8.18597e+57
          1484.12320	         8.84645e+57
          1484.92950	         7.91573e+57
          1485.73580	         9.40543e+57
          1486.54210	         9.57143e+57
          1487.34840	         8.60931e+57
          1488.15470	         9.14156e+57
          1488.96100	         8.81413e+57
          1489.76730	         8.65632e+57
          1490.57360	         8.96004e+57
          1491.37990	         8.84663e+57
          1492.18620	         7.73978e+57
          1492.99250	         9.05632e+57
          1493.79880	         1.00083e+58
          1494.60510	         8.96715e+57
          1495.41140	         7.60701e+57
          1496.21770	         9.14574e+57
          1497.02400	         1.11391e+58
          1497.83030	         9.69975e+57
          1498.63660	         7.92069e+57
          1499.44290	         6.82193e+57
          1500.24920	         6.91555e+57
          1501.05550	         7.58035e+57
          1501.86180	         7.79862e+57
          1502.66810	         9.19162e+57
          1503.47440	         8.57367e+57
          1504.28070	         7.91908e+57
          1505.08700	         9.70439e+57
          1505.89330	         9.24922e+57
          1506.69960	         8.31211e+57
          1507.50590	         9.13819e+57
          1508.31220	         8.42368e+57
          1509.11850	         9.11251e+57
          1509.92480	         9.48744e+57
          1510.73110	         8.52353e+57
          1511.53740	         6.96721e+57
          1512.34370	         7.69509e+57
          1513.15000	         9.95614e+57
          1513.95630	         1.06466e+58
          1514.76260	         8.84851e+57
          1515.56890	         7.62978e+57
          1516.37520	         8.43290e+57
          1517.18150	         8.67835e+57
          1517.98780	         8.05383e+57
          1518.79410	         8.17640e+57
          1519.60040	         8.47245e+57
          1520.40670	         9.40378e+57
          1521.21300	         9.58956e+57
          1522.01930	         8.31905e+57
          1522.82560	         8.73962e+57
          1523.63190	         9.44769e+57
          1524.43820	         9.04165e+57
          1525.24450	         6.80032e+57
          1526.05080	         5.98483e+57
          1526.85710	         5.78437e+57
          1527.66340	         6.51994e+57
          1528.46970	         7.98939e+57
          1529.27600	         7.99533e+57
          1530.08230	         7.40164e+57
          1530.88860	         8.05255e+57
          1531.69490	         8.88710e+57
          1532.50120	         9.39541e+57
          1533.30750	         9.45070e+57
          1534.11380	         9.74103e+57
          1534.92010	         9.38835e+57
          1535.72640	         8.63117e+57
          1536.53270	         8.14636e+57
          1537.33900	         8.55840e+57
          1538.14530	         1.00747e+58
          1538.95160	         1.03513e+58
          1539.75790	         1.00247e+58
          1540.56420	         9.14880e+57
          1541.37050	         8.21894e+57
          1542.17680	         7.39847e+57
          1542.98310	         7.56264e+57
          1543.78940	         8.18266e+57
          1544.59570	         7.43939e+57
          1545.40200	         8.89894e+57
          1546.20830	         1.01442e+58
          1547.01460	         9.78444e+57
          1547.82090	         1.10208e+58
          1548.62720	         1.17068e+58
          1549.43350	         1.15486e+58
          1550.23980	         1.11243e+58
          1551.04610	         1.22612e+58
          1551.85240	         1.21947e+58
          1552.65870	         1.15466e+58
          1553.46500	         9.95732e+57
          1554.27130	         9.72341e+57
          1555.07760	         1.06043e+58
          1555.88390	         9.78956e+57
          1556.69020	         9.39192e+57
          1557.49650	         9.13540e+57
          1558.30280	         8.52083e+57
          1559.10910	         8.19908e+57
          1559.91540	         9.20271e+57
          1560.72170	         8.73025e+57
          1561.52800	         7.86488e+57
          1562.33430	         8.24666e+57
          1563.14060	         8.43630e+57
          1563.94690	         7.97474e+57
          1564.75320	         8.05041e+57
          1565.55950	         7.29802e+57
          1566.36580	         7.16987e+57
          1567.17210	         8.61726e+57
          1567.97840	         8.44830e+57
          1568.78470	         8.32368e+57
          1569.59100	         9.25344e+57
          1570.39730	         9.24140e+57
          1571.20360	         7.23071e+57
          1572.00990	         6.94916e+57
          1572.81620	         8.48533e+57
          1573.62250	         9.96231e+57
          1574.42880	         9.67616e+57
          1575.23510	         8.15072e+57
          1576.04140	         8.55720e+57
          1576.84770	         8.72939e+57
          1577.65400	         8.46257e+57
          1578.46030	         9.72562e+57
          1579.26660	         1.04666e+58
          1580.07290	         9.29478e+57
          1580.87920	         7.56178e+57
          1581.68550	         7.38626e+57
          1582.49180	         8.59295e+57
          1583.29810	         7.90193e+57
          1584.10440	         7.86645e+57
          1584.91070	         7.56630e+57
          1585.71700	         8.16390e+57
          1586.52330	         8.72370e+57
          1587.32960	         8.19057e+57
          1588.13590	         9.25897e+57
          1588.94220	         9.37678e+57
          1589.74850	         9.28443e+57
          1590.55480	         9.90633e+57
          1591.36110	         9.25226e+57
          1592.16740	         9.13182e+57
          1592.97370	         8.15410e+57
          1593.78000	         8.54443e+57
          1594.58630	         9.90602e+57
          1595.39260	         8.64068e+57
          1596.19890	         8.26053e+57
          1597.00520	         8.93230e+57
          1597.81150	         8.94727e+57
          1598.61780	         8.04782e+57
          1599.42410	         6.87141e+57
          1600.23040	         7.01709e+57
          1601.03670	         8.00712e+57
          1601.84300	         7.79809e+57
          1602.64930	         8.07313e+57
          1603.45560	         9.27191e+57
          1604.26190	         8.39577e+57
          1605.06820	         7.54141e+57
          1605.87450	         7.06367e+57
          1606.68080	         6.78030e+57
          1607.48710	         6.56387e+57
          1608.29340	         6.84424e+57
          1609.09970	         7.19480e+57
          1609.90600	         7.21606e+57
          1610.71230	         7.17602e+57
          1611.51860	         7.05499e+57
          1612.32490	         6.71797e+57
          1613.13120	         7.42623e+57
          1613.93750	         7.87507e+57
          1614.74380	         7.70342e+57
          1615.55010	         8.59624e+57
          1616.35640	         9.85693e+57
          1617.16270	         9.96622e+57
          1617.96900	         1.00725e+58
          1618.77530	         9.22407e+57
          1619.58160	         8.22150e+57
          1620.38790	         7.66962e+57
          1621.19420	         8.59190e+57
          1622.00050	         8.12983e+57
          1622.80680	         8.00285e+57
          1623.61310	         9.47675e+57
          1624.41940	         8.55995e+57
          1625.22570	         8.87398e+57
          1626.03200	         9.39752e+57
          1626.83830	         8.18442e+57
          1627.64460	         8.01785e+57
          1628.45090	         7.76484e+57
          1629.25720	         9.47494e+57
          1630.06350	         9.02919e+57
          1630.86980	         6.47640e+57
          1631.67610	         8.52511e+57
          1632.48240	         1.07494e+58
          1633.28870	         9.54940e+57
          1634.09500	         9.20799e+57
          1634.90130	         1.13695e+58
          1635.70760	         9.17076e+57
          1636.51390	         6.70958e+57
          1637.32020	         6.95163e+57
          1638.12650	         8.52717e+57
          1638.93280	         9.67210e+57
          1639.73910	         1.00258e+58
          1640.54540	         1.05197e+58
          1641.35170	         8.53481e+57
          1642.15800	         8.82792e+57
          1642.96430	         8.88496e+57
          1643.77060	         8.52548e+57
          1644.57690	         8.17722e+57
          1645.38320	         8.44832e+57
          1646.18950	         7.60796e+57
          1646.99580	         8.29062e+57
          1647.80210	         7.16119e+57
          1648.60840	         7.09674e+57
          1649.41470	         7.89374e+57
          1650.22100	         7.22274e+57
          1651.02730	         6.88736e+57
          1651.83360	         7.63476e+57
          1652.63990	         8.52864e+57
          1653.44620	         9.51283e+57
          1654.25250	         8.27247e+57
          1655.05880	         7.26932e+57
          1655.86510	         8.54710e+57
          1656.67140	         8.91047e+57
          1657.47770	         8.24886e+57
          1658.28400	         7.86154e+57
          1659.09030	         7.71414e+57
          1659.89660	         8.15619e+57
          1660.70290	         9.20967e+57
          1661.50920	         9.07042e+57
          1662.31550	         8.04404e+57
          1663.12180	         8.28417e+57
          1663.92810	         1.00074e+58
          1664.73440	         1.17485e+58
          1665.54070	         1.24912e+58
          1666.34700	         1.26198e+58
          1667.15330	         1.22972e+58
          1667.95960	         9.41302e+57
          1668.76590	         7.62009e+57
          1669.57220	         7.39887e+57
          1670.37850	         7.29069e+57
          1671.18480	         8.06504e+57
          1671.99110	         8.42836e+57
          1672.79740	         8.15205e+57
          1673.60370	         6.93162e+57
          1674.41000	         7.16359e+57
          1675.21630	         7.03521e+57
          1676.02260	         5.56987e+57
          1676.82890	         5.88550e+57
          1677.63520	         6.82061e+57
          1678.44150	         7.48081e+57
          1679.24780	         8.67307e+57
          1680.05410	         8.29200e+57
          1680.86040	         6.82846e+57
          1681.66670	         6.34793e+57
          1682.47300	         6.41030e+57
          1683.27930	         7.21174e+57
          1684.08560	         8.08211e+57
          1684.89190	         8.10942e+57
          1685.69820	         5.82692e+57
          1686.50450	         5.06623e+57
          1687.31080	         6.70548e+57
          1688.11710	         7.85894e+57
          1688.92340	         6.89802e+57
          1689.72970	         6.33404e+57
          1690.53600	         6.07962e+57
          1691.34230	         7.73514e+57
          1692.14860	         7.98301e+57
          1692.95490	         7.93844e+57
          1693.76120	         7.82045e+57
          1694.56750	         6.91022e+57
          1695.37380	         7.74363e+57
          1696.18010	         8.76998e+57
          1696.98640	         7.64521e+57
          1697.79270	         6.64244e+57
          1698.59900	         7.55703e+57
          1699.40530	         7.46763e+57
          1700.21160	         6.77131e+57
          1701.01790	         6.89010e+57
          1701.82420	         7.06443e+57
          1702.63050	         8.40731e+57
          1703.43680	         9.67507e+57
          1704.24310	         8.25932e+57
          1705.04940	         7.56242e+57
          1705.85570	         7.93296e+57
          1706.66200	         8.70207e+57
          1707.46830	         8.44537e+57
          1708.27460	         7.13854e+57
          1709.08090	         7.23471e+57
          1709.88720	         8.00637e+57
          1710.69350	         7.11041e+57
          1711.49980	         6.85965e+57
          1712.30610	         6.68417e+57
          1713.11240	         8.64283e+57
          1713.91870	         7.65032e+57
          1714.72500	         7.79266e+57
          1715.53130	         9.29329e+57
          1716.33760	         7.41296e+57
          1717.14390	         7.24619e+57
          1717.95020	         8.88610e+57
          1718.75650	         9.18739e+57
          1719.56280	         8.29342e+57
          1720.36910	         7.31820e+57
          1721.17540	         7.29937e+57
          1721.98170	         5.97970e+57
          1722.78800	         6.55363e+57
          1723.59430	         7.30164e+57
          1724.40060	         7.65973e+57
          1725.20690	         7.56032e+57
          1726.01320	         7.82231e+57
          1726.81950	         7.83424e+57
          1727.62580	         7.78427e+57
          1728.43210	         6.98017e+57
          1729.23840	         7.00360e+57
          1730.04470	         8.01973e+57
          1730.85100	         8.98235e+57
          1731.65730	         8.40362e+57
          1732.46360	         8.10643e+57
          1733.26990	         7.66354e+57
          1734.07620	         7.23287e+57
          1734.88250	         6.75894e+57
          1735.68880	         7.35329e+57
          1736.49510	         7.63812e+57
          1737.30140	         7.92611e+57
          1738.10770	         7.50912e+57
          1738.91400	         7.63896e+57
          1739.72030	         7.61433e+57
          1740.52660	         5.63050e+57
          1741.33290	         6.17005e+57
          1742.13920	         6.76590e+57
          1742.94550	         7.43254e+57
          1743.75180	         8.09370e+57
          1744.55810	         8.72337e+57
          1745.36440	         8.00182e+57
          1746.17070	         6.57319e+57
          1746.97700	         5.97050e+57
          1747.78330	         6.25309e+57
          1748.58960	         6.17409e+57
          1749.39590	         7.34183e+57
          1750.20220	         7.43708e+57
          1751.00850	         6.27234e+57
          1751.81480	         6.19556e+57
          1752.62110	         6.42466e+57
          1753.42740	         7.66546e+57
          1754.23370	         8.49664e+57
          1755.04000	         7.58099e+57
          1755.84630	         7.40843e+57
          1756.65260	         8.32691e+57
          1757.45890	         7.97820e+57
          1758.26520	         6.56467e+57
          1759.07150	         8.06479e+57
          1759.87780	         8.80342e+57
          1760.68410	         8.84688e+57
          1761.49040	         8.75628e+57
          1762.29670	         6.47278e+57
          1763.10300	         7.17461e+57
          1763.90930	         7.49327e+57
          1764.71560	         7.46900e+57
          1765.52190	         7.20356e+57
          1766.32820	         7.30800e+57
          1767.13450	         7.41426e+57
          1767.94080	         6.22708e+57
          1768.74710	         6.72893e+57
          1769.55340	         7.10955e+57
          1770.35970	         6.04953e+57
          1771.16600	         7.68581e+57
          1771.97230	         8.76173e+57
          1772.77860	         9.25627e+57
          1773.58490	         8.55929e+57
          1774.39120	         6.32751e+57
          1775.19750	         6.61021e+57
          1776.00380	         6.42759e+57
          1776.81010	         6.68380e+57
          1777.61640	         6.53724e+57
          1778.42270	         7.49788e+57
          1779.22900	         7.81266e+57
          1780.03530	         7.36024e+57
          1780.84160	         8.68389e+57
          1781.64790	         8.99487e+57
          1782.45420	         7.74612e+57
          1783.26050	         7.02181e+57
          1784.06680	         7.68508e+57
          1784.87310	         7.81688e+57
          1785.67940	         7.42357e+57
          1786.48570	         6.47005e+57
          1787.29200	         6.20542e+57
          1788.09830	         6.43610e+57
          1788.90460	         5.60061e+57
          1789.71090	         5.11223e+57
          1790.51720	         4.58882e+57
          1791.32350	         6.36811e+57
          1792.12980	         9.10460e+57
          1792.93610	         8.45835e+57
          1793.74240	         7.38439e+57
          1794.54870	         7.65099e+57
          1795.35500	         7.95749e+57
          1796.16130	         7.55637e+57
          1796.96760	         7.12623e+57
          1797.77390	         7.48249e+57
          1798.58020	         8.06592e+57
          1799.38650	         7.70662e+57
          1800.19280	         6.78487e+57
          1800.99910	         7.25251e+57
          1801.80540	         7.12853e+57
          1802.61170	         7.40443e+57
          1803.41800	         7.91229e+57
          1804.22430	         6.10259e+57
          1805.03060	         6.27558e+57
          1805.83690	         7.81731e+57
          1806.64320	         8.25536e+57
          1807.44950	         8.16214e+57
          1808.25580	         7.36623e+57
          1809.06210	         8.45247e+57
          1809.86840	         7.58028e+57
          1810.67470	         6.19662e+57
          1811.48100	         6.98374e+57
          1812.28730	         8.09895e+57
          1813.09360	         8.76561e+57
          1813.89990	         8.91918e+57
          1814.70620	         7.74115e+57
          1815.51250	         8.36217e+57
          1816.31880	         8.58723e+57
          1817.12510	         6.78387e+57
          1817.93140	         6.11423e+57
          1818.73770	         6.93995e+57
          1819.54400	         8.52803e+57
          1820.35030	         8.58883e+57
          1821.15660	         6.49143e+57
          1821.96290	         6.01136e+57
          1822.76920	         7.47043e+57
          1823.57550	         8.00266e+57
          1824.38180	         7.57874e+57
          1825.18810	         7.77263e+57
          1825.99440	         8.70969e+57
          1826.80070	         8.12213e+57
          1827.60700	         6.93014e+57
          1828.41330	         5.80668e+57
          1829.21960	         6.29605e+57
          1830.02590	         7.36845e+57
          1830.83220	         7.50990e+57
          1831.63850	         7.25993e+57
          1832.44480	         7.25852e+57
          1833.25110	         8.07126e+57
          1834.05740	         8.19729e+57
          1834.86370	         6.88046e+57
          1835.67000	         5.66322e+57
          1836.47630	         7.18028e+57
          1837.28260	         9.15996e+57
          1838.08890	         9.04889e+57
          1838.89520	         8.91128e+57
          1839.70150	         8.31613e+57
          1840.50780	         7.16587e+57
          1841.31410	         6.69634e+57
          1842.12040	         6.89214e+57
          1842.92670	         7.13542e+57
          1843.73300	         6.20828e+57
          1844.53930	         5.37627e+57
          1845.34560	         6.49148e+57
          1846.15190	         7.19095e+57
          1846.95820	         6.89333e+57
          1847.76450	         8.06087e+57
          1848.57080	         6.58619e+57
          1849.37710	         5.51213e+57
          1850.18340	         7.18737e+57
          1850.98970	         8.15692e+57
          1851.79600	         8.40555e+57
          1852.60230	         7.89361e+57
          1853.40860	         7.57675e+57
          1854.21490	         7.64759e+57
          1855.02120	         6.39479e+57
          1855.82750	         5.13263e+57
          1856.63380	         5.61463e+57
          1857.44010	         6.20491e+57
          1858.24640	         7.77923e+57
          1859.05270	         7.99245e+57
          1859.85900	         6.94011e+57
          1860.66530	         6.10934e+57
          1861.47160	         6.78484e+57
          1862.27790	         7.13484e+57
          1863.08420	         7.66336e+57
          1863.89050	         7.87068e+57
          1864.69680	         7.38109e+57
          1865.50310	         7.16979e+57
          1866.30940	         6.73535e+57
          1867.11570	         7.05632e+57
          1867.92200	         6.98550e+57
          1868.72830	         6.23100e+57
          1869.53460	         7.10567e+57
          1870.34090	         6.83779e+57
          1871.14720	         6.88585e+57
          1871.95350	         6.41564e+57
          1872.75980	         6.79365e+57
          1873.56610	         6.87241e+57
          1874.37240	         6.41782e+57
          1875.17870	         6.24973e+57
          1875.98500	         7.50037e+57
          1876.79130	         7.24867e+57
          1877.59760	         6.85877e+57
          1878.40390	         6.99118e+57
          1879.21020	         7.26988e+57
          1880.01650	         7.22546e+57
          1880.82280	         8.47125e+57
          1881.62910	         9.73827e+57
          1882.43540	         1.01517e+58
          1883.24170	         8.15008e+57
          1884.04800	         6.42563e+57
          1884.85430	         7.59572e+57
          1885.66060	         7.87860e+57
          1886.46690	         7.56880e+57
          1887.27320	         7.50408e+57
          1888.07950	         6.13264e+57
          1888.88580	         7.38318e+57
          1889.69210	         8.62078e+57
          1890.49840	         7.89371e+57
          1891.30470	         7.99836e+57
          1892.11100	         8.41796e+57
          1892.91730	         8.05687e+57
          1893.72360	         6.79320e+57
          1894.52990	         7.61232e+57
          1895.33620	         7.74355e+57
          1896.14250	         7.38348e+57
          1896.94880	         6.46863e+57
          1897.75510	         5.69209e+57
          1898.56140	         6.45107e+57
          1899.36770	         7.73902e+57
          1900.17400	         7.96622e+57
          1900.98030	         7.95492e+57
          1901.78660	         7.36248e+57
          1902.59290	         6.71753e+57
          1903.39920	         8.48504e+57
          1904.20550	         9.92728e+57
          1905.01180	         1.01432e+58
          1905.81810	         9.74174e+57
          1906.62440	         1.17766e+58
          1907.43070	         1.48307e+58
          1908.23700	         1.52184e+58
          1909.04330	         1.32269e+58
          1909.84960	         1.14204e+58
          1910.65590	         1.06838e+58
          1911.46220	         1.02001e+58
          1912.26850	         8.41084e+57
          1913.07480	         6.44995e+57
          1913.88110	         5.88690e+57
          1914.68740	         6.09907e+57
          1915.49370	         5.17426e+57
          1916.30000	         6.60259e+57
          1917.10630	         7.24928e+57
          1917.91260	         6.31135e+57
          1918.71890	         6.11490e+57
          1919.52520	         6.32284e+57
          1920.33150	         5.92700e+57
          1921.13780	         6.90870e+57
          1921.94410	         8.54090e+57
          1922.75040	         8.26632e+57
          1923.55670	         8.11082e+57
          1924.36300	         8.02549e+57
          1925.16930	         5.97774e+57
          1925.97560	         5.07775e+57
          1926.78190	         4.79000e+57
          1927.58820	         5.33475e+57
          1928.39450	         6.96363e+57
          1929.20080	         5.92010e+57
          1930.00710	         6.37336e+57
          1930.81340	         7.36791e+57
          1931.61970	         6.74207e+57
          1932.42600	         7.05375e+57
          1933.23230	         7.60523e+57
          1934.03860	         6.67366e+57
          1934.84490	         4.62846e+57
          1935.65120	         6.10990e+57
          1936.45750	         8.76682e+57
          1937.26380	         7.04200e+57
          1938.07010	         7.38686e+57
          1938.87640	         8.79771e+57
          1939.68270	         8.31528e+57
          1940.48900	         7.66815e+57
          1941.29530	         8.80710e+57
          1942.10160	         7.74712e+57
          1942.90790	         6.55795e+57
          1943.71420	         6.71697e+57
          1944.52050	         6.89204e+57
          1945.32680	         5.86812e+57
          1946.13310	         6.69555e+57
          1946.93940	         7.14980e+57
          1947.74570	         7.51521e+57
          1948.55200	         5.86406e+57
          1949.35830	         5.91285e+57
          1950.16460	         5.75262e+57
          1950.97090	         6.43573e+57
          1951.77720	         7.53001e+57
          1952.58350	         8.20114e+57
          1953.38980	         6.23873e+57
          1954.19610	         4.30553e+57
          1955.00240	         5.37943e+57
          1955.80870	         5.44416e+57
          1956.61500	         5.77768e+57
          1957.42130	         6.80066e+57
          1958.22760	         7.03206e+57
          1959.03390	         7.78370e+57
          1959.84020	         7.99368e+57
          1960.64650	         6.52906e+57
          1961.45280	         5.31787e+57
          1962.25910	         5.92677e+57
          1963.06540	         6.27940e+57
          1963.87170	         6.33860e+57
          1964.67800	         8.00649e+57
          1965.48430	         8.28798e+57
          1966.29060	         6.94592e+57
          1967.09690	         6.95425e+57
          1967.90320	         5.96228e+57
          1968.70950	         7.08522e+57
          1969.51580	         6.30347e+57
          1970.32210	         6.93177e+57
          1971.12840	         6.86977e+57
          1971.93470	         4.41037e+57
          1972.74100	         4.77477e+57
          1973.54730	         6.20412e+57
          1974.35360	         7.50752e+57
          1975.15990	         8.81452e+57
          1975.96620	         8.41634e+57
          1976.77250	         8.05065e+57
          1977.57880	         6.43190e+57
          1978.38510	         6.30555e+57
          1979.19140	         7.60439e+57
          1979.99770	         7.36131e+57
          1980.80400	         7.76972e+57
          1981.61030	         6.38105e+57
          1982.41660	         5.79938e+57
          1983.22290	         5.91275e+57
          1984.02920	         5.62287e+57
          1984.83550	         4.98727e+57
          1985.64180	         6.46299e+57
          1986.44810	         6.95575e+57
          1987.25440	         6.34384e+57
          1988.06070	         5.03221e+57
          1988.86700	         5.64543e+57
          1989.67330	         7.39819e+57
          1990.47960	         6.88944e+57
          1991.28590	         5.18020e+57
          1992.09220	         6.10514e+57
          1992.89850	         6.32351e+57
          1993.70480	         5.40091e+57
          1994.51110	         5.78869e+57
          1995.31740	         4.52122e+57
          1996.12370	         4.94877e+57
          1996.93000	         5.95477e+57
          1997.73630	         7.09950e+57
          1998.54260	         7.66351e+57
          1999.34890	         7.24322e+57
          2000.15520	         5.86124e+57
          2000.96150	         5.93809e+57
          2001.76780	         5.65811e+57
          2002.57410	         4.63677e+57
          2003.38040	         6.98449e+57
          2004.18670	         7.75030e+57
          2004.99300	         6.01689e+57
          2005.79930	         6.57325e+57
          2006.60560	         7.38666e+57
          2007.41190	         7.21813e+57
          2008.21820	         6.45304e+57
          2009.02450	         6.47346e+57
          2009.83080	         5.45391e+57
          2010.63710	         6.59417e+57
          2011.44340	         6.19457e+57
          2012.24970	         6.44238e+57
          2013.05600	         6.01225e+57
          2013.86230	         5.92267e+57
          2014.66860	         5.01217e+57
          2015.47490	         6.00088e+57
          2016.28120	         5.50175e+57
          2017.08750	         5.83108e+57
          2017.89380	         6.86790e+57
          2018.70010	         6.54240e+57
          2019.50640	         6.36169e+57
          2020.31270	         7.71144e+57
          2021.11900	         7.93421e+57
          2021.92530	         6.89119e+57
          2022.73160	         7.97096e+57
          2023.53790	         7.64739e+57
          2024.34420	         7.26177e+57
          2025.15050	         5.99342e+57
          2025.95680	         4.80014e+57
          2026.76310	         5.78238e+57
          2027.56940	         6.71364e+57
          2028.37570	         6.82317e+57
          2029.18200	         5.58187e+57
          2029.98830	         6.54938e+57
          2030.79460	         6.62927e+57
          2031.60090	         5.89448e+57
          2032.40720	         6.69954e+57
          2033.21350	         6.02679e+57
          2034.01980	         4.18043e+57
          2034.82610	         4.49873e+57
          2035.63240	         4.83177e+57
          2036.43870	         5.52835e+57
          2037.24500	         5.43535e+57
          2038.05130	         5.79073e+57
          2038.85760	         5.86953e+57
          2039.66390	         5.87484e+57
          2040.47020	         6.49892e+57
          2041.27650	         6.15650e+57
          2042.08280	         5.79530e+57
          2042.88910	         7.06527e+57
          2043.69540	         6.97035e+57
          2044.50170	         5.82488e+57
          2045.30800	         5.66347e+57
          2046.11430	         4.85158e+57
          2046.92060	         6.53978e+57
          2047.72690	         6.89692e+57
          2048.53320	         5.61294e+57
          2049.33950	         5.44664e+57
          2050.14580	         5.66186e+57
          2050.95210	         7.19934e+57
          2051.75840	         8.57168e+57
          2052.56470	         7.08448e+57
          2053.37100	         4.99641e+57
          2054.17730	         4.69899e+57
          2054.98360	         5.57953e+57
          2055.78990	         5.29852e+57
          2056.59620	         4.03748e+57
          2057.40250	         5.15541e+57
          2058.20880	         7.27596e+57
          2059.01510	         6.90279e+57
          2059.82140	         7.25622e+57
          2060.62770	         9.09046e+57
          2061.43400	         1.77407e+58
          2062.24030	         1.34680e+58
          2063.04660	         5.82629e+57
          2063.85290	         2.67648e+57
          2064.65920	        -4.11324e+57
          2065.46550	        -8.66847e+57
          2066.27180	        -8.46802e+57
          2067.07810	         5.12183e+57
          2067.88440	         5.54636e+57
          2068.69070	         6.34616e+57
          2069.49700	         6.78739e+57
          2070.30330	         5.30517e+57
          2071.10960	         5.77263e+57
          2071.91590	         7.19378e+57
          2072.72220	         5.22229e+57
          2073.52850	         6.08221e+57
          2074.33480	         5.26289e+57
          2075.14110	         6.06497e+57
          2075.94740	         5.70003e+57
          2076.75370	         4.04055e+57
          2077.56000	         4.26041e+57
          2078.36630	         5.51221e+57
          2079.17260	         5.13384e+57
          2079.97890	         5.19902e+57
          2080.78520	         4.50889e+57
          2081.59150	         4.81379e+57
          2082.39780	         3.83595e+57
          2083.20410	         1.86884e+57
          2084.01040	         2.68462e+57
          2084.81670	         4.98467e+57
          2085.62300	         3.90257e+57
          2086.42930	         3.90357e+57
          2087.23560	         3.83970e+57
          2088.04190	         4.66355e+57
          2088.84820	         4.15669e+57
          2089.65450	         2.72391e+57
          2090.46080	         3.16251e+57
          2091.26710	         3.23683e+57
          2092.07340	         2.34661e+57
          2092.87970	         5.14993e+56
          2093.68600	         1.51329e+56
          2094.49230	         3.73921e+55
          2095.29860	         5.78416e+57
          2096.10490	         4.50731e+57
          2096.91120	         2.35472e+57
          2097.71750	         2.37481e+56
          2098.52380	        -1.02516e+57
          2099.33010	         2.14663e+56
          2100.13640	         8.91051e+56
          2100.94270	         2.86383e+57
          2101.74900	         5.26730e+57
          2102.55530	         4.43493e+57
          2103.36160	         3.46650e+57
          2104.16790	         2.81519e+57
          2104.97420	         7.85616e+56
          2105.78050	        -1.74996e+56
          2106.58680	         9.25202e+56
          2107.39310	        -7.51536e+56
          2108.19940	        -6.64927e+55
          2109.00570	         2.17574e+55
          2109.81200	         1.38655e+56
          2110.61830	         3.04388e+57
          2111.42460	         1.30776e+57
          2112.23090	         6.08245e+56
          2113.03720	         1.60288e+57
          2113.84350	        -7.64212e+56
          2114.64980	         3.07445e+57
          2115.45610	         8.35799e+56
          2116.26240	         4.05323e+56
          2117.06870	        -1.13671e+57
          2117.87500	        -3.83882e+57
          2118.68130	        -1.36006e+57
          2119.48760	        -1.06716e+57
          2120.29390	        -2.43539e+57
          2121.10020	        -3.78514e+57
          2121.90650	        -5.43225e+57
          2122.71280	         5.29944e+57
          2123.51910	         4.12259e+57
          2124.32540	         1.74167e+57
          2125.13170	         5.61352e+56
          2125.93800	         1.07523e+55
          2126.74430	        -8.08498e+57
          2127.55060	        -2.25812e+57
          2128.35690	        -4.27498e+57
          2129.16320	        -2.56000e+57
          2129.96950	        -6.63574e+57
          2130.77580	        -3.22656e+57
          2131.58210	         2.38767e+57
          2132.38840	         1.83619e+57
          2133.19470	         6.26238e+56
          2134.00100	         4.90575e+57
          2134.80730	        -3.48245e+57
          2135.61360	         3.13539e+57
          2136.41990	         3.49839e+57
          2137.22620	         5.55272e+57
          2138.03250	         1.97713e+57
          2138.83880	        -2.59763e+57
          2139.64510	         3.58746e+57
          2140.45140	         2.88691e+56
          2141.25770	        -6.90372e+57
          2142.06400	        -6.71451e+57
          2142.87030	         2.40670e+57
          2143.67660	         3.42298e+56
          2144.48290	         7.13660e+57
          2145.28920	         1.87793e+58
          2146.09550	        -9.29461e+57
          2146.90180	        -6.18634e+57
          2147.70810	        -7.67332e+57
          2148.51440	        -4.24412e+57
          2149.32070	        -6.27738e+57
          2150.12700	        -1.31493e+58
          2150.93330	        -1.33498e+58
          2151.73960	        -6.20159e+57
          2152.54590	        -1.42180e+57
          2153.35220	        -3.62846e+57
          2154.15850	        -4.83026e+57
          2154.96480	        -3.60647e+57
          2155.77110	        -1.10335e+58
          2156.57740	        -8.90890e+57
          2157.38370	        -6.39264e+57
          2158.19000	        -7.31995e+56
          2158.99630	        -2.54157e+57
          2159.80260	        -1.69978e+58
          2160.60890	        -6.47181e+57
          2161.41520	        -7.07658e+57
          2162.22150	         3.99948e+56
          2163.02780	        -4.48083e+57
          2163.83410	        -4.00063e+57
          2164.64040	        -8.67676e+57
          2165.44670	        -2.04576e+58
          2166.25300	        -1.42441e+58
          2167.05930	         1.39537e+57
          2167.86560	        -5.77585e+57
          2168.67190	        -1.48095e+57
          2169.47820	        -5.20033e+57
          2170.28450	        -1.15232e+58
          2171.09080	         2.26530e+57
          2171.89710	        -1.17827e+57
          2172.70340	        -8.51417e+56
          2173.50970	        -7.30581e+57
          2174.31600	        -7.02185e+57
          2175.12230	        -1.17641e+58
          2175.92860	        -6.28022e+57
          2176.73490	        -2.98598e+57
          2177.54120	        -8.35306e+57
          2178.34750	        -4.39876e+57
          2179.15380	                 nan
          2179.96010	                 nan
          2180.76640	                 nan
          2181.57270	                 nan
          2182.37900	                 nan
          2183.18530	                 nan
          2183.99160	                 nan
          2184.79790	                 nan
          2185.60420	                 nan
          2186.41050	                 nan
          2187.21680	                 nan
          2188.02310	                 nan
          2188.82940	                 nan
          2189.63570	                 nan
          2190.44200	                 nan
          2191.24830	                 nan
          2192.05460	                 nan
          2192.86090	                 nan
          2193.66720	                 nan
          2194.47350	                 nan
          2195.27980	                 nan
          2196.08610	                 nan
          2196.89240	                 nan
          2197.69870	                 nan
          2198.50500	                 nan
          2199.31130	                 nan
          2200.11760	                 nan
          2200.92390	                 nan
          2201.73020	                 nan
          2202.53650	                 nan
          2203.34280	                 nan
          2204.14910	                 nan
          2204.95540	                 nan
          2205.76170	                 nan
          2206.56800	                 nan
          2207.37430	                 nan
          2208.18060	                 nan
          2208.98690	                 nan
          2209.79320	                 nan
          2210.59950	                 nan
          2211.40580	                 nan
          2212.21210	                 nan
          2213.01840	                 nan
          2213.82470	                 nan
          2214.63100	                 nan
          2215.43730	         0.00000e+00
