#sample_277_stacked_spectrum_rest_UV-bands_median_H-alpha_noDC.txt
#median Lum: 1.68586e+42
#Rest-frame wavelength (A) | Luminosity (erg/s/A)
#
          1110.00000	         0.00000e+00
          1110.80630	         4.57796e+59
          1111.61260	        -4.71565e+58
          1112.41890	         3.69186e+58
          1113.22520	         2.20895e+59
          1114.03150	        -1.90503e+59
          1114.83780	         2.65588e+59
          1115.64410	         1.43021e+59
          1116.45040	        -1.67346e+59
          1117.25670	        -2.26690e+58
          1118.06300	         1.75443e+59
          1118.86930	         3.82141e+58
          1119.67560	         4.17098e+58
          1120.48190	         8.46769e+58
          1121.28820	        -6.67003e+58
          1122.09450	        -7.90246e+58
          1122.90080	        -1.93820e+58
          1123.70710	         1.52134e+59
          1124.51340	         1.50861e+59
          1125.31970	         1.18521e+58
          1126.12600	         4.32865e+58
          1126.93230	        -2.29447e+58
          1127.73860	        -4.07837e+57
          1128.54490	         2.41272e+58
          1129.35120	         6.90678e+57
          1130.15750	        -1.57060e+58
          1130.96380	        -4.34817e+58
          1131.77010	         5.34789e+58
          1132.57640	         4.16186e+58
          1133.38270	         1.67459e+58
          1134.18900	         2.04587e+57
          1134.99530	         3.93528e+57
          1135.80160	         1.55543e+58
          1136.60790	         2.89980e+58
          1137.41420	        -1.12665e+57
          1138.22050	         3.16900e+58
          1139.02680	         1.36743e+58
          1139.83310	         3.72055e+58
          1140.63940	         3.78344e+58
          1141.44570	         9.59466e+57
          1142.25200	        -5.14631e+57
          1143.05830	         1.07581e+58
          1143.86460	         1.33751e+58
          1144.67090	         1.98062e+58
          1145.47720	         1.20512e+58
          1146.28350	         1.21103e+58
          1147.08980	         9.57262e+57
          1147.89610	         2.10688e+58
          1148.70240	         1.36756e+58
          1149.50870	         1.77011e+58
          1150.31500	         1.23028e+58
          1151.12130	         1.23274e+58
          1151.92760	         1.26450e+58
          1152.73390	         1.27508e+58
          1153.54020	         1.24213e+58
          1154.34650	         2.94483e+58
          1155.15280	         2.40125e+58
          1155.95910	         9.08285e+57
          1156.76540	         1.37326e+58
          1157.57170	         2.28058e+57
          1158.37800	        -4.79874e+56
          1159.18430	         5.75483e+56
          1159.99060	         2.08219e+58
          1160.79690	         1.74516e+58
          1161.60320	         1.47028e+58
          1162.40950	         1.42244e+58
          1163.21580	         1.27669e+58
          1164.02210	         9.37072e+57
          1164.82840	         5.70856e+57
          1165.63470	         1.96461e+58
          1166.44100	         2.70336e+58
          1167.24730	         1.43447e+58
          1168.05360	         7.06532e+57
          1168.85990	         4.22572e+57
          1169.66620	        -3.83316e+57
          1170.47250	         1.22318e+58
          1171.27880	         1.23214e+58
          1172.08510	         1.24148e+58
          1172.89140	         1.38632e+58
          1173.69770	         6.75053e+57
          1174.50400	         1.51530e+58
          1175.31030	         1.76545e+58
          1176.11660	         1.32546e+58
          1176.92290	         1.29211e+58
          1177.72920	         6.29603e+57
          1178.53550	         5.71963e+57
          1179.34180	         3.47855e+57
          1180.14810	         6.02175e+57
          1180.95440	         1.29592e+58
          1181.76070	         8.50647e+57
          1182.56700	         5.89357e+57
          1183.37330	         1.05971e+58
          1184.17960	         1.69269e+58
          1184.98590	         1.34570e+58
          1185.79220	         9.71539e+57
          1186.59850	         1.08823e+58
          1187.40480	         1.08733e+58
          1188.21110	         1.16370e+58
          1189.01740	         1.10496e+58
          1189.82370	         9.81987e+57
          1190.63000	         1.11157e+58
          1191.43630	         1.71585e+58
          1192.24260	         1.19107e+58
          1193.04890	         1.09259e+58
          1193.85520	         1.18219e+58
          1194.66150	         5.00956e+57
          1195.46780	         8.69036e+57
          1196.27410	         1.18048e+58
          1197.08040	         1.28746e+58
          1197.88670	         1.70241e+58
          1198.69300	         1.66061e+58
          1199.49930	         1.28549e+58
          1200.30560	         8.40168e+57
          1201.11190	         1.03912e+58
          1201.91820	         9.44546e+57
          1202.72450	         8.36195e+57
          1203.53080	         1.60409e+58
          1204.33710	         4.82635e+57
          1205.14340	         5.80420e+57
          1205.94970	         5.00421e+57
          1206.75600	         3.82472e+57
          1207.56230	         5.09089e+57
          1208.36860	         6.17825e+57
          1209.17490	         6.72154e+57
          1209.98120	         8.82003e+57
          1210.78750	         7.71473e+57
          1211.59380	         1.15635e+58
          1212.40010	         1.74567e+58
          1213.20640	         1.82357e+58
          1214.01270	         1.88326e+58
          1214.81900	         2.46990e+58
          1215.62530	         4.63911e+58
          1216.43160	         9.31178e+58
          1217.23790	         1.50074e+59
          1218.04420	         1.17417e+59
          1218.85050	         8.68381e+58
          1219.65680	         5.90251e+58
          1220.46310	         3.47096e+58
          1221.26940	         1.84974e+58
          1222.07570	         1.05747e+58
          1222.88200	         1.01351e+58
          1223.68830	         1.09209e+58
          1224.49460	         9.33504e+57
          1225.30090	         7.88943e+57
          1226.10720	         8.53859e+57
          1226.91350	         5.96125e+57
          1227.71980	         8.50270e+57
          1228.52610	         9.01798e+57
          1229.33240	         5.82185e+57
          1230.13870	         9.76988e+57
          1230.94500	         9.83364e+57
          1231.75130	         6.99529e+57
          1232.55760	         8.14570e+57
          1233.36390	         6.23025e+57
          1234.17020	         6.10505e+57
          1234.97650	         7.28752e+57
          1235.78280	         1.06547e+58
          1236.58910	         9.61916e+57
          1237.39540	         1.06639e+58
          1238.20170	         1.24963e+58
          1239.00800	         1.12477e+58
          1239.81430	         1.32853e+58
          1240.62060	         1.22806e+58
          1241.42690	         1.07266e+58
          1242.23320	         1.21122e+58
          1243.03950	         8.63094e+57
          1243.84580	         6.82942e+57
          1244.65210	         7.89107e+57
          1245.45840	         9.02577e+57
          1246.26470	         9.12145e+57
          1247.07100	         7.30194e+57
          1247.87730	         5.88354e+57
          1248.68360	         2.50256e+57
          1249.48990	         7.63525e+57
          1250.29620	         1.41737e+58
          1251.10250	         8.85136e+57
          1251.90880	         6.37811e+57
          1252.71510	         4.08349e+57
          1253.52140	         4.29590e+57
          1254.32770	         8.25116e+57
          1255.13400	         1.33212e+58
          1255.94030	         1.26949e+58
          1256.74660	         1.16010e+58
          1257.55290	         1.25445e+58
          1258.35920	         8.83669e+57
          1259.16550	         5.52707e+57
          1259.97180	         4.84501e+57
          1260.77810	         7.84558e+57
          1261.58440	         8.92809e+57
          1262.39070	         7.05289e+57
          1263.19700	         9.38138e+57
          1264.00330	         9.49563e+57
          1264.80960	         1.07641e+58
          1265.61590	         1.36074e+58
          1266.42220	         1.25008e+58
          1267.22850	         9.78535e+57
          1268.03480	         1.33942e+58
          1268.84110	         1.53007e+58
          1269.64740	         1.45384e+58
          1270.45370	         1.48205e+58
          1271.26000	         1.06674e+58
          1272.06630	         8.57298e+57
          1272.87260	         1.04521e+58
          1273.67890	         1.19809e+58
          1274.48520	         1.19538e+58
          1275.29150	         1.20276e+58
          1276.09780	         1.26676e+58
          1276.90410	         1.57032e+58
          1277.71040	         1.51276e+58
          1278.51670	         1.36766e+58
          1279.32300	         1.38596e+58
          1280.12930	         1.11491e+58
          1280.93560	         1.19698e+58
          1281.74190	         1.35940e+58
          1282.54820	         1.39800e+58
          1283.35450	         1.29503e+58
          1284.16080	         1.28547e+58
          1284.96710	         1.22809e+58
          1285.77340	         9.83158e+57
          1286.57970	         1.05786e+58
          1287.38600	         1.38874e+58
          1288.19230	         1.51185e+58
          1288.99860	         1.57761e+58
          1289.80490	         1.18642e+58
          1290.61120	         1.20861e+58
          1291.41750	         1.52467e+58
          1292.22380	         1.16098e+58
          1293.03010	         1.08740e+58
          1293.83640	         1.34889e+58
          1294.64270	         1.24228e+58
          1295.44900	         8.98883e+57
          1296.25530	         7.68811e+57
          1297.06160	         9.08270e+57
          1297.86790	         1.10789e+58
          1298.67420	         9.92254e+57
          1299.48050	         9.59984e+57
          1300.28680	         1.10589e+58
          1301.09310	         8.62157e+57
          1301.89940	         4.64601e+57
          1302.70570	         6.75968e+57
          1303.51200	         7.40314e+57
          1304.31830	         9.15245e+57
          1305.12460	         1.07659e+58
          1305.93090	         1.09287e+58
          1306.73720	         1.16405e+58
          1307.54350	         1.37216e+58
          1308.34980	         1.45894e+58
          1309.15610	         1.37241e+58
          1309.96240	         1.36441e+58
          1310.76870	         1.24852e+58
          1311.57500	         1.14576e+58
          1312.38130	         8.76011e+57
          1313.18760	         1.12970e+58
          1313.99390	         1.59383e+58
          1314.80020	         1.67681e+58
          1315.60650	         1.52448e+58
          1316.41280	         1.32445e+58
          1317.21910	         1.29396e+58
          1318.02540	         1.09479e+58
          1318.83170	         1.22112e+58
          1319.63800	         1.23146e+58
          1320.44430	         1.06160e+58
          1321.25060	         1.26715e+58
          1322.05690	         1.30138e+58
          1322.86320	         1.15937e+58
          1323.66950	         1.11569e+58
          1324.47580	         9.68828e+57
          1325.28210	         1.01872e+58
          1326.08840	         1.14394e+58
          1326.89470	         1.24083e+58
          1327.70100	         1.12630e+58
          1328.50730	         8.80798e+57
          1329.31360	         8.83631e+57
          1330.11990	         9.54973e+57
          1330.92620	         9.00555e+57
          1331.73250	         1.12132e+58
          1332.53880	         1.07396e+58
          1333.34510	         1.00957e+58
          1334.15140	         9.11097e+57
          1334.95770	         8.09536e+57
          1335.76400	         1.02156e+58
          1336.57030	         1.11777e+58
          1337.37660	         1.06560e+58
          1338.18290	         1.18260e+58
          1338.98920	         1.16348e+58
          1339.79550	         1.05771e+58
          1340.60180	         9.68968e+57
          1341.40810	         1.15130e+58
          1342.21440	         1.18003e+58
          1343.02070	         1.14758e+58
          1343.82700	         1.26292e+58
          1344.63330	         1.16663e+58
          1345.43960	         1.19919e+58
          1346.24590	         1.07977e+58
          1347.05220	         1.08497e+58
          1347.85850	         1.13753e+58
          1348.66480	         1.34822e+58
          1349.47110	         1.49825e+58
          1350.27740	         1.24290e+58
          1351.08370	         1.17209e+58
          1351.89000	         1.26595e+58
          1352.69630	         1.35004e+58
          1353.50260	         1.13735e+58
          1354.30890	         1.20555e+58
          1355.11520	         1.23324e+58
          1355.92150	         1.17051e+58
          1356.72780	         1.08797e+58
          1357.53410	         1.04985e+58
          1358.34040	         1.16013e+58
          1359.14670	         1.11937e+58
          1359.95300	         1.16227e+58
          1360.75930	         1.23318e+58
          1361.56560	         1.15316e+58
          1362.37190	         1.21334e+58
          1363.17820	         1.27220e+58
          1363.98450	         1.35931e+58
          1364.79080	         1.37409e+58
          1365.59710	         1.20552e+58
          1366.40340	         1.05845e+58
          1367.20970	         9.95381e+57
          1368.01600	         1.00458e+58
          1368.82230	         1.03876e+58
          1369.62860	         1.11364e+58
          1370.43490	         9.20125e+57
          1371.24120	         8.11442e+57
          1372.04750	         8.90270e+57
          1372.85380	         1.14393e+58
          1373.66010	         1.18074e+58
          1374.46640	         1.10228e+58
          1375.27270	         1.07314e+58
          1376.07900	         9.18338e+57
          1376.88530	         9.49339e+57
          1377.69160	         9.47517e+57
          1378.49790	         7.37461e+57
          1379.30420	         7.58948e+57
          1380.11050	         9.34059e+57
          1380.91680	         7.39186e+57
          1381.72310	         6.98370e+57
          1382.52940	         7.93149e+57
          1383.33570	         7.91017e+57
          1384.14200	         9.51509e+57
          1384.94830	         9.45688e+57
          1385.75460	         9.98620e+57
          1386.56090	         1.14321e+58
          1387.36720	         1.07352e+58
          1388.17350	         1.41899e+58
          1388.97980	         1.25378e+58
          1389.78610	         9.40492e+57
          1390.59240	         9.97849e+57
          1391.39870	         8.82169e+57
          1392.20500	         7.83197e+57
          1393.01130	         7.68543e+57
          1393.81760	         8.41463e+57
          1394.62390	         7.54669e+57
          1395.43020	         6.26584e+57
          1396.23650	         7.06757e+57
          1397.04280	         6.88960e+57
          1397.84910	         9.57634e+57
          1398.65540	         9.74136e+57
          1399.46170	         1.02803e+58
          1400.26800	         8.41427e+57
          1401.07430	         8.09673e+57
          1401.88060	         8.78801e+57
          1402.68690	         9.10887e+57
          1403.49320	         1.00879e+58
          1404.29950	         9.64131e+57
          1405.10580	         9.30362e+57
          1405.91210	         1.06385e+58
          1406.71840	         1.17597e+58
          1407.52470	         1.11527e+58
          1408.33100	         1.03199e+58
          1409.13730	         1.16329e+58
          1409.94360	         1.10705e+58
          1410.74990	         1.03579e+58
          1411.55620	         1.07282e+58
          1412.36250	         8.85323e+57
          1413.16880	         7.96155e+57
          1413.97510	         9.09413e+57
          1414.78140	         1.05015e+58
          1415.58770	         1.16763e+58
          1416.39400	         1.12630e+58
          1417.20030	         1.14600e+58
          1418.00660	         1.04612e+58
          1418.81290	         1.01810e+58
          1419.61920	         1.09783e+58
          1420.42550	         1.17105e+58
          1421.23180	         1.26553e+58
          1422.03810	         1.14462e+58
          1422.84440	         1.02081e+58
          1423.65070	         1.17891e+58
          1424.45700	         1.08624e+58
          1425.26330	         9.24576e+57
          1426.06960	         8.76286e+57
          1426.87590	         9.69211e+57
          1427.68220	         9.98812e+57
          1428.48850	         1.04119e+58
          1429.29480	         1.08840e+58
          1430.10110	         9.77586e+57
          1430.90740	         9.22241e+57
          1431.71370	         8.85249e+57
          1432.52000	         7.88484e+57
          1433.32630	         7.67171e+57
          1434.13260	         8.41579e+57
          1434.93890	         8.87630e+57
          1435.74520	         9.34578e+57
          1436.55150	         9.23610e+57
          1437.35780	         8.20741e+57
          1438.16410	         8.28263e+57
          1438.97040	         8.22029e+57
          1439.77670	         8.30925e+57
          1440.58300	         9.81766e+57
          1441.38930	         1.03158e+58
          1442.19560	         1.02694e+58
          1443.00190	         9.40027e+57
          1443.80820	         9.73704e+57
          1444.61450	         1.07120e+58
          1445.42080	         1.01066e+58
          1446.22710	         1.11067e+58
          1447.03340	         1.07826e+58
          1447.83970	         1.14556e+58
          1448.64600	         1.11845e+58
          1449.45230	         1.10657e+58
          1450.25860	         1.06485e+58
          1451.06490	         9.71423e+57
          1451.87120	         8.01650e+57
          1452.67750	         7.40328e+57
          1453.48380	         9.01028e+57
          1454.29010	         9.60055e+57
          1455.09640	         8.96863e+57
          1455.90270	         8.76322e+57
          1456.70900	         9.36707e+57
          1457.51530	         1.08404e+58
          1458.32160	         1.21748e+58
          1459.12790	         1.16424e+58
          1459.93420	         1.01627e+58
          1460.74050	         8.90130e+57
          1461.54680	         9.16482e+57
          1462.35310	         8.70709e+57
          1463.15940	         8.83480e+57
          1463.96570	         1.10451e+58
          1464.77200	         1.19285e+58
          1465.57830	         1.11436e+58
          1466.38460	         8.76549e+57
          1467.19090	         8.48552e+57
          1467.99720	         9.85444e+57
          1468.80350	         9.67314e+57
          1469.60980	         9.00097e+57
          1470.41610	         1.14982e+58
          1471.22240	         1.11312e+58
          1472.02870	         9.73035e+57
          1472.83500	         1.06283e+58
          1473.64130	         9.94693e+57
          1474.44760	         9.98847e+57
          1475.25390	         9.72336e+57
          1476.06020	         7.71515e+57
          1476.86650	         7.83849e+57
          1477.67280	         8.55291e+57
          1478.47910	         7.84074e+57
          1479.28540	         7.82444e+57
          1480.09170	         9.00163e+57
          1480.89800	         8.75737e+57
          1481.70430	         8.36286e+57
          1482.51060	         8.43019e+57
          1483.31690	         8.62050e+57
          1484.12320	         7.06064e+57
          1484.92950	         7.26464e+57
          1485.73580	         8.30421e+57
          1486.54210	         8.80745e+57
          1487.34840	         8.00556e+57
          1488.15470	         8.26142e+57
          1488.96100	         9.57955e+57
          1489.76730	         8.71622e+57
          1490.57360	         8.57690e+57
          1491.37990	         8.32428e+57
          1492.18620	         8.25630e+57
          1492.99250	         9.84054e+57
          1493.79880	         9.23790e+57
          1494.60510	         7.53662e+57
          1495.41140	         6.60698e+57
          1496.21770	         7.96125e+57
          1497.02400	         1.05748e+58
          1497.83030	         9.40521e+57
          1498.63660	         7.52579e+57
          1499.44290	         7.36890e+57
          1500.24920	         6.88259e+57
          1501.05550	         7.65648e+57
          1501.86180	         9.15155e+57
          1502.66810	         9.72564e+57
          1503.47440	         8.77027e+57
          1504.28070	         8.46720e+57
          1505.08700	         9.59637e+57
          1505.89330	         1.00971e+58
          1506.69960	         8.00956e+57
          1507.50590	         8.27311e+57
          1508.31220	         8.58388e+57
          1509.11850	         7.59811e+57
          1509.92480	         8.42667e+57
          1510.73110	         9.16575e+57
          1511.53740	         7.27314e+57
          1512.34370	         6.19801e+57
          1513.15000	         7.99324e+57
          1513.95630	         9.41243e+57
          1514.76260	         8.52667e+57
          1515.56890	         8.67475e+57
          1516.37520	         9.68900e+57
          1517.18150	         9.09494e+57
          1517.98780	         7.78168e+57
          1518.79410	         7.26617e+57
          1519.60040	         8.56136e+57
          1520.40670	         8.91524e+57
          1521.21300	         8.53230e+57
          1522.01930	         7.82218e+57
          1522.82560	         9.64203e+57
          1523.63190	         1.02113e+58
          1524.43820	         8.02151e+57
          1525.24450	         5.59196e+57
          1526.05080	         5.66702e+57
          1526.85710	         6.28945e+57
          1527.66340	         6.49191e+57
          1528.46970	         7.37460e+57
          1529.27600	         7.09931e+57
          1530.08230	         7.35045e+57
          1530.88860	         8.23007e+57
          1531.69490	         8.71134e+57
          1532.50120	         9.81222e+57
          1533.30750	         9.83270e+57
          1534.11380	         9.99566e+57
          1534.92010	         9.18143e+57
          1535.72640	         8.59301e+57
          1536.53270	         9.67024e+57
          1537.33900	         9.19021e+57
          1538.14530	         9.02967e+57
          1538.95160	         9.49198e+57
          1539.75790	         9.51042e+57
          1540.56420	         8.81152e+57
          1541.37050	         7.93837e+57
          1542.17680	         7.61125e+57
          1542.98310	         7.03814e+57
          1543.78940	         7.88537e+57
          1544.59570	         7.04669e+57
          1545.40200	         7.49032e+57
          1546.20830	         8.43471e+57
          1547.01460	         1.03053e+58
          1547.82090	         1.18683e+58
          1548.62720	         1.17191e+58
          1549.43350	         1.12104e+58
          1550.23980	         1.08822e+58
          1551.04610	         1.16518e+58
          1551.85240	         1.13404e+58
          1552.65870	         1.17246e+58
          1553.46500	         1.13728e+58
          1554.27130	         1.04716e+58
          1555.07760	         1.02352e+58
          1555.88390	         8.93138e+57
          1556.69020	         8.83664e+57
          1557.49650	         8.94097e+57
          1558.30280	         7.92325e+57
          1559.10910	         7.98187e+57
          1559.91540	         8.42037e+57
          1560.72170	         8.66378e+57
          1561.52800	         8.30771e+57
          1562.33430	         8.13857e+57
          1563.14060	         8.39133e+57
          1563.94690	         8.33331e+57
          1564.75320	         8.92616e+57
          1565.55950	         7.34226e+57
          1566.36580	         7.15710e+57
          1567.17210	         9.46915e+57
          1567.97840	         8.88371e+57
          1568.78470	         7.58413e+57
          1569.59100	         8.84474e+57
          1570.39730	         9.09052e+57
          1571.20360	         7.59352e+57
          1572.00990	         7.74546e+57
          1572.81620	         9.04110e+57
          1573.62250	         1.02621e+58
          1574.42880	         8.72255e+57
          1575.23510	         7.41479e+57
          1576.04140	         8.18474e+57
          1576.84770	         8.57575e+57
          1577.65400	         8.72186e+57
          1578.46030	         9.67868e+57
          1579.26660	         9.88572e+57
          1580.07290	         9.21297e+57
          1580.87920	         7.60134e+57
          1581.68550	         7.91750e+57
          1582.49180	         8.27726e+57
          1583.29810	         7.36814e+57
          1584.10440	         8.96521e+57
          1584.91070	         9.14196e+57
          1585.71700	         8.85639e+57
          1586.52330	         8.82724e+57
          1587.32960	         8.70604e+57
          1588.13590	         8.65163e+57
          1588.94220	         8.26616e+57
          1589.74850	         9.26550e+57
          1590.55480	         9.87493e+57
          1591.36110	         8.76449e+57
          1592.16740	         8.14747e+57
          1592.97370	         7.73357e+57
          1593.78000	         8.53213e+57
          1594.58630	         8.76087e+57
          1595.39260	         7.66899e+57
          1596.19890	         8.38952e+57
          1597.00520	         9.65756e+57
          1597.81150	         9.29894e+57
          1598.61780	         8.20335e+57
          1599.42410	         7.55423e+57
          1600.23040	         8.41024e+57
          1601.03670	         8.93049e+57
          1601.84300	         8.21466e+57
          1602.64930	         8.55747e+57
          1603.45560	         9.36680e+57
          1604.26190	         8.74808e+57
          1605.06820	         8.50647e+57
          1605.87450	         7.36901e+57
          1606.68080	         6.67034e+57
          1607.48710	         6.03000e+57
          1608.29340	         6.11744e+57
          1609.09970	         5.93872e+57
          1609.90600	         6.62489e+57
          1610.71230	         6.74344e+57
          1611.51860	         6.81938e+57
          1612.32490	         5.40487e+57
          1613.13120	         6.68493e+57
          1613.93750	         8.50149e+57
          1614.74380	         8.56979e+57
          1615.55010	         8.96267e+57
          1616.35640	         9.28036e+57
          1617.16270	         9.93550e+57
          1617.96900	         9.70597e+57
          1618.77530	         8.14486e+57
          1619.58160	         7.49731e+57
          1620.38790	         8.72046e+57
          1621.19420	         8.73364e+57
          1622.00050	         6.90780e+57
          1622.80680	         9.27423e+57
          1623.61310	         8.33264e+57
          1624.41940	         7.50013e+57
          1625.22570	         8.97263e+57
          1626.03200	         9.37888e+57
          1626.83830	         8.17511e+57
          1627.64460	         6.86143e+57
          1628.45090	         6.67443e+57
          1629.25720	         9.15622e+57
          1630.06350	         9.36193e+57
          1630.86980	         7.12879e+57
          1631.67610	         8.65182e+57
          1632.48240	         9.84988e+57
          1633.28870	         8.59640e+57
          1634.09500	         8.28332e+57
          1634.90130	         1.06141e+58
          1635.70760	         9.06785e+57
          1636.51390	         6.73947e+57
          1637.32020	         7.10274e+57
          1638.12650	         8.74539e+57
          1638.93280	         9.73764e+57
          1639.73910	         1.04524e+58
          1640.54540	         1.00092e+58
          1641.35170	         8.44723e+57
          1642.15800	         9.48927e+57
          1642.96430	         9.62075e+57
          1643.77060	         9.59351e+57
          1644.57690	         8.84724e+57
          1645.38320	         8.36678e+57
          1646.18950	         7.33078e+57
          1646.99580	         8.07435e+57
          1647.80210	         8.37135e+57
          1648.60840	         7.55107e+57
          1649.41470	         8.04895e+57
          1650.22100	         7.63441e+57
          1651.02730	         7.63104e+57
          1651.83360	         7.51479e+57
          1652.63990	         8.32259e+57
          1653.44620	         9.19317e+57
          1654.25250	         8.95550e+57
          1655.05880	         8.18304e+57
          1655.86510	         8.70863e+57
          1656.67140	         8.22139e+57
          1657.47770	         8.18728e+57
          1658.28400	         8.68063e+57
          1659.09030	         8.62266e+57
          1659.89660	         9.29994e+57
          1660.70290	         9.91651e+57
          1661.50920	         9.44896e+57
          1662.31550	         8.60875e+57
          1663.12180	         8.42644e+57
          1663.92810	         9.44527e+57
          1664.73440	         9.94400e+57
          1665.54070	         1.10249e+58
          1666.34700	         1.17482e+58
          1667.15330	         1.17965e+58
          1667.95960	         1.01194e+58
          1668.76590	         7.17808e+57
          1669.57220	         6.54140e+57
          1670.37850	         7.52723e+57
          1671.18480	         8.76174e+57
          1671.99110	         8.15602e+57
          1672.79740	         6.60869e+57
          1673.60370	         7.19241e+57
          1674.41000	         7.61038e+57
          1675.21630	         7.79754e+57
          1676.02260	         7.39239e+57
          1676.82890	         6.65836e+57
          1677.63520	         6.52925e+57
          1678.44150	         7.27286e+57
          1679.24780	         8.11666e+57
          1680.05410	         7.16869e+57
          1680.86040	         5.86069e+57
          1681.66670	         6.88465e+57
          1682.47300	         7.35889e+57
          1683.27930	         8.22299e+57
          1684.08560	         8.69878e+57
          1684.89190	         8.77083e+57
          1685.69820	         6.46177e+57
          1686.50450	         5.55481e+57
          1687.31080	         6.94505e+57
          1688.11710	         7.60525e+57
          1688.92340	         6.98419e+57
          1689.72970	         6.50980e+57
          1690.53600	         6.24671e+57
          1691.34230	         7.41921e+57
          1692.14860	         7.62467e+57
          1692.95490	         7.49876e+57
          1693.76120	         6.85596e+57
          1694.56750	         6.54970e+57
          1695.37380	         7.89355e+57
          1696.18010	         9.37275e+57
          1696.98640	         8.82078e+57
          1697.79270	         8.67044e+57
          1698.59900	         8.95560e+57
          1699.40530	         8.41595e+57
          1700.21160	         6.78037e+57
          1701.01790	         8.02038e+57
          1701.82420	         7.25706e+57
          1702.63050	         7.78035e+57
          1703.43680	         8.39348e+57
          1704.24310	         8.22248e+57
          1705.04940	         8.19394e+57
          1705.85570	         8.13007e+57
          1706.66200	         8.66909e+57
          1707.46830	         7.98248e+57
          1708.27460	         7.61394e+57
          1709.08090	         6.91362e+57
          1709.88720	         6.88347e+57
          1710.69350	         7.83935e+57
          1711.49980	         6.92349e+57
          1712.30610	         6.72233e+57
          1713.11240	         8.61523e+57
          1713.91870	         8.00589e+57
          1714.72500	         8.06598e+57
          1715.53130	         8.78807e+57
          1716.33760	         7.43646e+57
          1717.14390	         6.70735e+57
          1717.95020	         7.95220e+57
          1718.75650	         8.97550e+57
          1719.56280	         8.47084e+57
          1720.36910	         6.91576e+57
          1721.17540	         6.59452e+57
          1721.98170	         5.90638e+57
          1722.78800	         6.61188e+57
          1723.59430	         7.31345e+57
          1724.40060	         7.78968e+57
          1725.20690	         7.78692e+57
          1726.01320	         7.42675e+57
          1726.81950	         7.54539e+57
          1727.62580	         7.75516e+57
          1728.43210	         8.02832e+57
          1729.23840	         7.93443e+57
          1730.04470	         9.07423e+57
          1730.85100	         8.78186e+57
          1731.65730	         7.91200e+57
          1732.46360	         7.55705e+57
          1733.26990	         7.24770e+57
          1734.07620	         7.30178e+57
          1734.88250	         7.43969e+57
          1735.68880	         8.03725e+57
          1736.49510	         8.45147e+57
          1737.30140	         7.97553e+57
          1738.10770	         6.54991e+57
          1738.91400	         6.63379e+57
          1739.72030	         7.18394e+57
          1740.52660	         6.31863e+57
          1741.33290	         5.87550e+57
          1742.13920	         6.49442e+57
          1742.94550	         7.31213e+57
          1743.75180	         6.89319e+57
          1744.55810	         7.68639e+57
          1745.36440	         8.02096e+57
          1746.17070	         5.80822e+57
          1746.97700	         6.09633e+57
          1747.78330	         6.52265e+57
          1748.58960	         6.52523e+57
          1749.39590	         6.46805e+57
          1750.20220	         6.08563e+57
          1751.00850	         5.66706e+57
          1751.81480	         6.97930e+57
          1752.62110	         7.43691e+57
          1753.42740	         7.54521e+57
          1754.23370	         6.63980e+57
          1755.04000	         6.75114e+57
          1755.84630	         7.35463e+57
          1756.65260	         8.40785e+57
          1757.45890	         8.46677e+57
          1758.26520	         7.44824e+57
          1759.07150	         8.80047e+57
          1759.87780	         8.59373e+57
          1760.68410	         9.16074e+57
          1761.49040	         9.21508e+57
          1762.29670	         6.73310e+57
          1763.10300	         6.25371e+57
          1763.90930	         7.36459e+57
          1764.71560	         8.50858e+57
          1765.52190	         7.07063e+57
          1766.32820	         7.76971e+57
          1767.13450	         8.65055e+57
          1767.94080	         7.98239e+57
          1768.74710	         8.00100e+57
          1769.55340	         7.38308e+57
          1770.35970	         6.50249e+57
          1771.16600	         6.67297e+57
          1771.97230	         7.41919e+57
          1772.77860	         8.65038e+57
          1773.58490	         7.58859e+57
          1774.39120	         6.02664e+57
          1775.19750	         6.52568e+57
          1776.00380	         6.23510e+57
          1776.81010	         5.92208e+57
          1777.61640	         5.59594e+57
          1778.42270	         5.98988e+57
          1779.22900	         5.39326e+57
          1780.03530	         6.04252e+57
          1780.84160	         7.63699e+57
          1781.64790	         8.22378e+57
          1782.45420	         7.36997e+57
          1783.26050	         6.74840e+57
          1784.06680	         7.06316e+57
          1784.87310	         7.12931e+57
          1785.67940	         7.22878e+57
          1786.48570	         7.36587e+57
          1787.29200	         7.12305e+57
          1788.09830	         6.75769e+57
          1788.90460	         7.09388e+57
          1789.71090	         6.07766e+57
          1790.51720	         5.65408e+57
          1791.32350	         6.96413e+57
          1792.12980	         8.83212e+57
          1792.93610	         8.99774e+57
          1793.74240	         8.29187e+57
          1794.54870	         8.24227e+57
          1795.35500	         7.64021e+57
          1796.16130	         6.82278e+57
          1796.96760	         7.28793e+57
          1797.77390	         7.82423e+57
          1798.58020	         7.40558e+57
          1799.38650	         7.00876e+57
          1800.19280	         7.88371e+57
          1800.99910	         8.03590e+57
          1801.80540	         7.22843e+57
          1802.61170	         7.68334e+57
          1803.41800	         8.05452e+57
          1804.22430	         6.18021e+57
          1805.03060	         7.00397e+57
          1805.83690	         7.50225e+57
          1806.64320	         7.12224e+57
          1807.44950	         7.61068e+57
          1808.25580	         6.56867e+57
          1809.06210	         8.00383e+57
          1809.86840	         8.23375e+57
          1810.67470	         8.35995e+57
          1811.48100	         8.59966e+57
          1812.28730	         8.29527e+57
          1813.09360	         6.99053e+57
          1813.89990	         8.37180e+57
          1814.70620	         7.57428e+57
          1815.51250	         7.51489e+57
          1816.31880	         7.47172e+57
          1817.12510	         6.71906e+57
          1817.93140	         6.09633e+57
          1818.73770	         7.22322e+57
          1819.54400	         8.72549e+57
          1820.35030	         8.30061e+57
          1821.15660	         6.83821e+57
          1821.96290	         7.37352e+57
          1822.76920	         7.71582e+57
          1823.57550	         6.75688e+57
          1824.38180	         6.98992e+57
          1825.18810	         8.28003e+57
          1825.99440	         9.37506e+57
          1826.80070	         8.66759e+57
          1827.60700	         6.18731e+57
          1828.41330	         5.88596e+57
          1829.21960	         6.03333e+57
          1830.02590	         7.27913e+57
          1830.83220	         8.31908e+57
          1831.63850	         7.59790e+57
          1832.44480	         6.89142e+57
          1833.25110	         8.36935e+57
          1834.05740	         8.20920e+57
          1834.86370	         6.71930e+57
          1835.67000	         6.25643e+57
          1836.47630	         7.64690e+57
          1837.28260	         8.12255e+57
          1838.08890	         8.12528e+57
          1838.89520	         8.55976e+57
          1839.70150	         8.55252e+57
          1840.50780	         7.62883e+57
          1841.31410	         6.45783e+57
          1842.12040	         6.64559e+57
          1842.92670	         7.75440e+57
          1843.73300	         7.80005e+57
          1844.53930	         6.71537e+57
          1845.34560	         6.56472e+57
          1846.15190	         6.73755e+57
          1846.95820	         6.83326e+57
          1847.76450	         7.39394e+57
          1848.57080	         6.51198e+57
          1849.37710	         5.83006e+57
          1850.18340	         7.75957e+57
          1850.98970	         9.01146e+57
          1851.79600	         9.37601e+57
          1852.60230	         8.12342e+57
          1853.40860	         7.56667e+57
          1854.21490	         7.44725e+57
          1855.02120	         6.39823e+57
          1855.82750	         5.15839e+57
          1856.63380	         6.32672e+57
          1857.44010	         7.37908e+57
          1858.24640	         7.17026e+57
          1859.05270	         6.84737e+57
          1859.85900	         5.30343e+57
          1860.66530	         6.51878e+57
          1861.47160	         7.19576e+57
          1862.27790	         7.35302e+57
          1863.08420	         8.28695e+57
          1863.89050	         8.86793e+57
          1864.69680	         7.35721e+57
          1865.50310	         6.98293e+57
          1866.30940	         6.61423e+57
          1867.11570	         6.58990e+57
          1867.92200	         7.43404e+57
          1868.72830	         7.83786e+57
          1869.53460	         6.95257e+57
          1870.34090	         7.31101e+57
          1871.14720	         7.79729e+57
          1871.95350	         6.89670e+57
          1872.75980	         7.24547e+57
          1873.56610	         6.98832e+57
          1874.37240	         5.59543e+57
          1875.17870	         6.19774e+57
          1875.98500	         7.53421e+57
          1876.79130	         7.57009e+57
          1877.59760	         6.62403e+57
          1878.40390	         5.61742e+57
          1879.21020	         5.49485e+57
          1880.01650	         6.40583e+57
          1880.82280	         8.20823e+57
          1881.62910	         8.98874e+57
          1882.43540	         9.55544e+57
          1883.24170	         8.24531e+57
          1884.04800	         6.46603e+57
          1884.85430	         7.53694e+57
          1885.66060	         7.98982e+57
          1886.46690	         8.00516e+57
          1887.27320	         8.06383e+57
          1888.07950	         6.58656e+57
          1888.88580	         6.57843e+57
          1889.69210	         8.06436e+57
          1890.49840	         8.11192e+57
          1891.30470	         8.19593e+57
          1892.11100	         8.67975e+57
          1892.91730	         8.21324e+57
          1893.72360	         8.21101e+57
          1894.52990	         7.74824e+57
          1895.33620	         8.03353e+57
          1896.14250	         7.60595e+57
          1896.94880	         7.17487e+57
          1897.75510	         5.50951e+57
          1898.56140	         6.52088e+57
          1899.36770	         8.00364e+57
          1900.17400	         5.80337e+57
          1900.98030	         6.34313e+57
          1901.78660	         7.33431e+57
          1902.59290	         7.32699e+57
          1903.39920	         9.08360e+57
          1904.20550	         8.90332e+57
          1905.01180	         7.86600e+57
          1905.81810	         9.08807e+57
          1906.62440	         1.21632e+58
          1907.43070	         1.53468e+58
          1908.23700	         1.53823e+58
          1909.04330	         1.31779e+58
          1909.84960	         1.11371e+58
          1910.65590	         1.00371e+58
          1911.46220	         9.81409e+57
          1912.26850	         7.56929e+57
          1913.07480	         5.83134e+57
          1913.88110	         5.76216e+57
          1914.68740	         5.66950e+57
          1915.49370	         5.29968e+57
          1916.30000	         6.46287e+57
          1917.10630	         7.33684e+57
          1917.91260	         7.39861e+57
          1918.71890	         6.45967e+57
          1919.52520	         5.88093e+57
          1920.33150	         5.75970e+57
          1921.13780	         7.00764e+57
          1921.94410	         8.64162e+57
          1922.75040	         8.76542e+57
          1923.55670	         7.68637e+57
          1924.36300	         7.74266e+57
          1925.16930	         5.69826e+57
          1925.97560	         4.99080e+57
          1926.78190	         4.62025e+57
          1927.58820	         5.28981e+57
          1928.39450	         6.03171e+57
          1929.20080	         5.27798e+57
          1930.00710	         7.04604e+57
          1930.81340	         7.87302e+57
          1931.61970	         6.84961e+57
          1932.42600	         7.07178e+57
          1933.23230	         8.14870e+57
          1934.03860	         7.97338e+57
          1934.84490	         5.43712e+57
          1935.65120	         6.75470e+57
          1936.45750	         7.02930e+57
          1937.26380	         6.17274e+57
          1938.07010	         6.99367e+57
          1938.87640	         6.04773e+57
          1939.68270	         6.20754e+57
          1940.48900	         7.61875e+57
          1941.29530	         8.53390e+57
          1942.10160	         7.96003e+57
          1942.90790	         7.03412e+57
          1943.71420	         6.42470e+57
          1944.52050	         5.07140e+57
          1945.32680	         5.27006e+57
          1946.13310	         7.31036e+57
          1946.93940	         8.50121e+57
          1947.74570	         6.94837e+57
          1948.55200	         5.76110e+57
          1949.35830	         6.29687e+57
          1950.16460	         5.93465e+57
          1950.97090	         6.98011e+57
          1951.77720	         8.15125e+57
          1952.58350	         8.70782e+57
          1953.38980	         6.16231e+57
          1954.19610	         4.09939e+57
          1955.00240	         5.21522e+57
          1955.80870	         6.69365e+57
          1956.61500	         6.74426e+57
          1957.42130	         6.30418e+57
          1958.22760	         6.43634e+57
          1959.03390	         7.27049e+57
          1959.84020	         7.17164e+57
          1960.64650	         6.02953e+57
          1961.45280	         5.82073e+57
          1962.25910	         6.02237e+57
          1963.06540	         7.18231e+57
          1963.87170	         7.07302e+57
          1964.67800	         7.33594e+57
          1965.48430	         5.70112e+57
          1966.29060	         5.06995e+57
          1967.09690	         7.72558e+57
          1967.90320	         6.54312e+57
          1968.70950	         7.53486e+57
          1969.51580	         6.84328e+57
          1970.32210	         8.66816e+57
          1971.12840	         7.61057e+57
          1971.93470	         4.81413e+57
          1972.74100	         4.15111e+57
          1973.54730	         6.33609e+57
          1974.35360	         6.86208e+57
          1975.15990	         7.77171e+57
          1975.96620	         6.57345e+57
          1976.77250	         7.55194e+57
          1977.57880	         8.76819e+57
          1978.38510	         7.04115e+57
          1979.19140	         6.72254e+57
          1979.99770	         6.92391e+57
          1980.80400	         7.54372e+57
          1981.61030	         6.12881e+57
          1982.41660	         4.80004e+57
          1983.22290	         5.07074e+57
          1984.02920	         5.41363e+57
          1984.83550	         5.24584e+57
          1985.64180	         6.15751e+57
          1986.44810	         6.01304e+57
          1987.25440	         5.73055e+57
          1988.06070	         5.59588e+57
          1988.86700	         5.62716e+57
          1989.67330	         5.77704e+57
          1990.47960	         6.02221e+57
          1991.28590	         5.65279e+57
          1992.09220	         6.05916e+57
          1992.89850	         5.25683e+57
          1993.70480	         5.08122e+57
          1994.51110	         3.97441e+57
          1995.31740	         4.30530e+57
          1996.12370	         4.21897e+57
          1996.93000	         5.37280e+57
          1997.73630	         7.27810e+57
          1998.54260	         7.78577e+57
          1999.34890	         7.06312e+57
          2000.15520	         6.36563e+57
          2000.96150	         6.22991e+57
          2001.76780	         6.80093e+57
          2002.57410	         6.04138e+57
          2003.38040	         7.48809e+57
          2004.18670	         7.51366e+57
          2004.99300	         6.04758e+57
          2005.79930	         7.55631e+57
          2006.60560	         6.98186e+57
          2007.41190	         6.31296e+57
          2008.21820	         6.79046e+57
          2009.02450	         6.90919e+57
          2009.83080	         6.53622e+57
          2010.63710	         5.83603e+57
          2011.44340	         6.96236e+57
          2012.24970	         7.42111e+57
          2013.05600	         7.51193e+57
          2013.86230	         5.88429e+57
          2014.66860	         5.62871e+57
          2015.47490	         5.93559e+57
          2016.28120	         6.79621e+57
          2017.08750	         7.22515e+57
          2017.89380	         7.22897e+57
          2018.70010	         6.24237e+57
          2019.50640	         4.84376e+57
          2020.31270	         6.51949e+57
          2021.11900	         6.86196e+57
          2021.92530	         7.42412e+57
          2022.73160	         6.86201e+57
          2023.53790	         7.16187e+57
          2024.34420	         7.22076e+57
          2025.15050	         5.69268e+57
          2025.95680	         5.26251e+57
          2026.76310	         6.65299e+57
          2027.56940	         5.64289e+57
          2028.37570	         6.24991e+57
          2029.18200	         6.70921e+57
          2029.98830	         5.66222e+57
          2030.79460	         5.44014e+57
          2031.60090	         6.61760e+57
          2032.40720	         6.66848e+57
          2033.21350	         5.83382e+57
          2034.01980	         5.94591e+57
          2034.82610	         4.69873e+57
          2035.63240	         4.65871e+57
          2036.43870	         5.94116e+57
          2037.24500	         6.50585e+57
          2038.05130	         6.56285e+57
          2038.85760	         6.36046e+57
          2039.66390	         6.51238e+57
          2040.47020	         6.42730e+57
          2041.27650	         6.44703e+57
          2042.08280	         5.73601e+57
          2042.88910	         5.29241e+57
          2043.69540	         4.53090e+57
          2044.50170	         5.32289e+57
          2045.30800	         5.42339e+57
          2046.11430	         4.13661e+57
          2046.92060	         5.36861e+57
          2047.72690	         6.88376e+57
          2048.53320	         5.26420e+57
          2049.33950	         3.23826e+57
          2050.14580	         4.78393e+57
          2050.95210	         7.18315e+57
          2051.75840	         6.79501e+57
          2052.56470	         5.30166e+57
          2053.37100	         3.92701e+57
          2054.17730	         4.08179e+57
          2054.98360	         5.28622e+57
          2055.78990	         4.44353e+57
          2056.59620	         3.55752e+57
          2057.40250	         5.08063e+57
          2058.20880	         6.45126e+57
          2059.01510	         5.84234e+57
          2059.82140	         6.28401e+57
          2060.62770	         8.17545e+57
          2061.43400	         1.57676e+58
          2062.24030	         1.14374e+58
          2063.04660	         6.80993e+57
          2063.85290	         3.22152e+57
          2064.65920	        -2.05402e+57
          2065.46550	        -7.82668e+57
          2066.27180	        -7.96269e+57
          2067.07810	         3.45181e+57
          2067.88440	         5.86808e+57
          2068.69070	         6.95449e+57
          2069.49700	         5.71576e+57
          2070.30330	         4.19739e+57
          2071.10960	         7.21257e+57
          2071.91590	         7.46674e+57
          2072.72220	         4.33167e+57
          2073.52850	         4.39431e+57
          2074.33480	         4.12004e+57
          2075.14110	         5.47544e+57
          2075.94740	         5.88978e+57
          2076.75370	         5.52250e+57
          2077.56000	         5.38826e+57
          2078.36630	         5.34819e+57
          2079.17260	         4.26702e+57
          2079.97890	         5.29885e+57
          2080.78520	         5.52004e+57
          2081.59150	         5.19450e+57
          2082.39780	         4.24533e+57
          2083.20410	         2.64628e+57
          2084.01040	         1.45568e+57
          2084.81670	         4.67011e+57
          2085.62300	         3.41474e+57
          2086.42930	         3.02899e+57
          2087.23560	         3.90842e+57
          2088.04190	         2.61705e+57
          2088.84820	         2.73442e+57
          2089.65450	         2.09641e+57
          2090.46080	         2.14774e+57
          2091.26710	         2.46584e+57
          2092.07340	         2.17214e+57
          2092.87970	         3.25678e+57
          2093.68600	         1.56265e+56
          2094.49230	        -2.67656e+56
          2095.29860	         5.66250e+57
          2096.10490	         3.39250e+57
          2096.91120	         3.88790e+57
          2097.71750	         1.64972e+57
          2098.52380	         1.76758e+57
          2099.33010	         3.48736e+55
          2100.13640	         1.26048e+57
          2100.94270	         1.52673e+57
          2101.74900	         3.09711e+57
          2102.55530	         6.96521e+57
          2103.36160	         3.49362e+57
          2104.16790	         5.30843e+56
          2104.97420	         2.08829e+57
          2105.78050	         2.09422e+57
          2106.58680	         9.88293e+56
          2107.39310	        -3.47252e+57
          2108.19940	        -4.82641e+56
          2109.00570	         2.14040e+57
          2109.81200	         2.15591e+57
          2110.61830	         4.32428e+57
          2111.42460	        -1.92213e+57
          2112.23090	        -1.96563e+57
          2113.03720	         5.43185e+56
          2113.84350	        -5.04269e+56
          2114.64980	         5.05063e+57
          2115.45610	         2.50149e+57
          2116.26240	        -2.90947e+57
          2117.06870	        -2.16135e+57
          2117.87500	        -2.85349e+57
          2118.68130	        -2.54780e+56
          2119.48760	         1.26446e+57
          2120.29390	         5.43959e+56
          2121.10020	        -7.19911e+57
          2121.90650	        -4.82903e+57
          2122.71280	        -5.31198e+56
          2123.51910	         5.46172e+57
          2124.32540	         5.01362e+55
          2125.13170	         2.39362e+57
          2125.93800	         7.64351e+57
          2126.74430	        -6.95123e+56
          2127.55060	        -5.78610e+57
          2128.35690	        -2.05808e+57
          2129.16320	        -1.34181e+57
          2129.96950	        -3.55847e+57
          2130.77580	        -9.96907e+57
          2131.58210	        -5.84466e+57
          2132.38840	         1.46739e+57
          2133.19470	         2.88469e+57
          2134.00100	         2.32982e+57
          2134.80730	        -9.60064e+57
          2135.61360	         1.45218e+57
          2136.41990	         8.14634e+57
          2137.22620	         9.15800e+57
          2138.03250	         4.70315e+57
          2138.83880	        -7.42376e+57
          2139.64510	         3.70680e+56
          2140.45140	         2.12415e+56
          2141.25770	        -7.39940e+57
          2142.06400	        -9.16442e+57
          2142.87030	         1.67816e+57
          2143.67660	         1.10486e+58
          2144.48290	         7.18570e+57
          2145.28920	         9.49212e+57
          2146.09550	        -1.40615e+58
          2146.90180	        -1.41532e+58
          2147.70810	        -4.75303e+57
          2148.51440	        -4.48874e+57
          2149.32070	        -6.81120e+57
          2150.12700	        -1.03693e+58
          2150.93330	        -4.23909e+57
          2151.73960	        -3.83159e+57
          2152.54590	        -6.07648e+57
          2153.35220	        -3.39329e+57
          2154.15850	        -9.60618e+56
          2154.96480	        -4.09042e+55
          2155.77110	        -3.46235e+56
          2156.57740	        -1.11436e+58
          2157.38370	        -5.65545e+57
          2158.19000	        -1.47801e+57
          2158.99630	        -3.52725e+55
          2159.80260	        -3.66345e+57
          2160.60890	        -1.18413e+58
          2161.41520	        -1.68573e+57
          2162.22150	        -2.82465e+57
          2163.02780	        -7.85244e+57
          2163.83410	        -1.06842e+58
          2164.64040	        -7.22577e+57
          2165.44670	        -1.50740e+58
          2166.25300	        -2.42472e+57
          2167.05930	        -1.25097e+58
          2167.86560	        -1.08882e+58
          2168.67190	        -1.59916e+57
          2169.47820	        -2.70495e+57
          2170.28450	        -8.03726e+56
          2171.09080	        -5.76329e+56
          2171.89710	        -2.61690e+57
          2172.70340	        -8.51870e+56
          2173.50970	        -5.24976e+57
          2174.31600	        -1.72760e+57
          2175.12230	         8.69199e+56
          2175.92860	        -4.80308e+57
          2176.73490	        -4.87680e+57
          2177.54120	        -7.66325e+57
          2178.34750	        -4.63968e+57
          2179.15380	                 nan
          2179.96010	                 nan
          2180.76640	                 nan
          2181.57270	                 nan
          2182.37900	                 nan
          2183.18530	                 nan
          2183.99160	                 nan
          2184.79790	                 nan
          2185.60420	                 nan
          2186.41050	                 nan
          2187.21680	                 nan
          2188.02310	                 nan
          2188.82940	                 nan
          2189.63570	                 nan
          2190.44200	                 nan
          2191.24830	                 nan
          2192.05460	                 nan
          2192.86090	                 nan
          2193.66720	                 nan
          2194.47350	                 nan
          2195.27980	                 nan
          2196.08610	                 nan
          2196.89240	                 nan
          2197.69870	                 nan
          2198.50500	                 nan
          2199.31130	                 nan
          2200.11760	                 nan
          2200.92390	                 nan
          2201.73020	                 nan
          2202.53650	                 nan
          2203.34280	                 nan
          2204.14910	                 nan
          2204.95540	                 nan
          2205.76170	                 nan
          2206.56800	                 nan
          2207.37430	                 nan
          2208.18060	                 nan
          2208.98690	                 nan
          2209.79320	                 nan
          2210.59950	                 nan
          2211.40580	                 nan
          2212.21210	                 nan
          2213.01840	                 nan
          2213.82470	                 nan
          2214.63100	                 nan
          2215.43730	         0.00000e+00
