#sample_62_stacked_spectrum_rest_UV-bands_median_H-alpha_noDC.txt
#median Lum: 1.69844e+42
#Rest-frame wavelength (A) | Luminosity (erg/s/A)
#
          1110.00000	         0.00000e+00
          1110.80630	        -7.01693e+58
          1111.61260	         2.77335e+59
          1112.41890	         1.25908e+59
          1113.22520	         1.18969e+59
          1114.03150	        -9.00846e+58
          1114.83780	        -3.85505e+58
          1115.64410	         2.50225e+58
          1116.45040	         1.62933e+59
          1117.25670	         6.30105e+58
          1118.06300	         2.09130e+58
          1118.86930	        -3.99146e+58
          1119.67560	         4.32524e+58
          1120.48190	         1.37385e+58
          1121.28820	        -1.86045e+59
          1122.09450	         2.86678e+58
          1122.90080	        -7.40896e+57
          1123.70710	         6.85739e+58
          1124.51340	         5.87322e+58
          1125.31970	         1.81224e+58
          1126.12600	        -5.47707e+57
          1126.93230	        -4.68494e+58
          1127.73860	        -7.24848e+58
          1128.54490	        -2.78084e+58
          1129.35120	         2.37676e+58
          1130.15750	         2.84441e+57
          1130.96380	        -1.37974e+58
          1131.77010	         7.90584e+58
          1132.57640	         4.41859e+58
          1133.38270	        -5.15940e+57
          1134.18900	         1.00302e+58
          1134.99530	        -8.60498e+57
          1135.80160	         4.99514e+57
          1136.60790	         1.87392e+58
          1137.41420	        -3.00558e+57
          1138.22050	         4.34086e+58
          1139.02680	         4.19473e+58
          1139.83310	         7.42343e+57
          1140.63940	         3.54838e+57
          1141.44570	        -2.34512e+58
          1142.25200	        -1.89918e+58
          1143.05830	         1.75846e+58
          1143.86460	         1.82612e+58
          1144.67090	         3.13776e+58
          1145.47720	         6.21976e+57
          1146.28350	         9.78735e+57
          1147.08980	         9.33528e+57
          1147.89610	         2.00609e+58
          1148.70240	         3.21901e+58
          1149.50870	         3.15604e+58
          1150.31500	         2.75326e+57
          1151.12130	        -5.42096e+57
          1151.92760	         1.62529e+57
          1152.73390	        -3.74307e+57
          1153.54020	        -1.01145e+58
          1154.34650	         2.00563e+58
          1155.15280	         1.61355e+58
          1155.95910	         1.02106e+58
          1156.76540	         3.76179e+57
          1157.57170	        -8.46023e+57
          1158.37800	        -9.84646e+57
          1159.18430	        -3.95979e+57
          1159.99060	         1.22974e+58
          1160.79690	         8.20617e+57
          1161.60320	         6.66138e+57
          1162.40950	         1.39376e+58
          1163.21580	         1.82988e+58
          1164.02210	         1.88181e+58
          1164.82840	         6.61337e+57
          1165.63470	         1.76332e+58
          1166.44100	         2.49691e+58
          1167.24730	         1.41347e+58
          1168.05360	         8.87845e+57
          1168.85990	         2.10097e+56
          1169.66620	         1.52083e+57
          1170.47250	         1.43481e+58
          1171.27880	         1.51422e+58
          1172.08510	         1.31208e+58
          1172.89140	         1.54369e+58
          1173.69770	         5.38959e+57
          1174.50400	         3.44260e+57
          1175.31030	         1.23774e+58
          1176.11660	         1.47168e+58
          1176.92290	         1.22682e+58
          1177.72920	         1.14586e+58
          1178.53550	         9.65458e+57
          1179.34180	         7.61839e+57
          1180.14810	         6.75215e+57
          1180.95440	         6.09994e+57
          1181.76070	         5.20897e+57
          1182.56700	         5.25679e+57
          1183.37330	         4.57830e+57
          1184.17960	         1.13635e+58
          1184.98590	         1.15686e+58
          1185.79220	         8.78474e+57
          1186.59850	         1.29625e+58
          1187.40480	         1.16256e+58
          1188.21110	         1.49721e+58
          1189.01740	         1.08196e+58
          1189.82370	         1.33030e+58
          1190.63000	         1.54300e+58
          1191.43630	         1.43154e+58
          1192.24260	         8.66620e+57
          1193.04890	         7.60705e+57
          1193.85520	         1.12282e+58
          1194.66150	         1.46356e+57
          1195.46780	         1.15763e+58
          1196.27410	         1.39719e+58
          1197.08040	         1.06850e+58
          1197.88670	         1.39561e+58
          1198.69300	         1.58484e+58
          1199.49930	         1.96345e+58
          1200.30560	         1.36497e+58
          1201.11190	         7.85859e+57
          1201.91820	         9.36951e+57
          1202.72450	         6.84869e+57
          1203.53080	         1.34170e+58
          1204.33710	         8.46070e+57
          1205.14340	         5.50264e+57
          1205.94970	         8.82349e+57
          1206.75600	         7.03890e+57
          1207.56230	         7.93319e+57
          1208.36860	         7.48079e+57
          1209.17490	         3.90526e+57
          1209.98120	         5.83836e+57
          1210.78750	         7.84421e+57
          1211.59380	         7.90245e+57
          1212.40010	         1.78841e+58
          1213.20640	         1.85353e+58
          1214.01270	         1.96168e+58
          1214.81900	         2.33902e+58
          1215.62530	         4.09816e+58
          1216.43160	         8.80823e+58
          1217.23790	         1.51431e+59
          1218.04420	         1.13879e+59
          1218.85050	         8.76418e+58
          1219.65680	         5.89173e+58
          1220.46310	         3.32026e+58
          1221.26940	         2.57387e+58
          1222.07570	         1.57641e+58
          1222.88200	         1.10069e+58
          1223.68830	         1.09818e+58
          1224.49460	         6.86978e+57
          1225.30090	         6.09407e+57
          1226.10720	         7.42429e+57
          1226.91350	         5.84271e+57
          1227.71980	         8.34893e+57
          1228.52610	         1.28681e+58
          1229.33240	         1.19053e+58
          1230.13870	         1.04028e+58
          1230.94500	         1.00707e+58
          1231.75130	         7.69964e+57
          1232.55760	         7.54223e+57
          1233.36390	         8.46142e+57
          1234.17020	         8.24364e+57
          1234.97650	         7.18745e+57
          1235.78280	         8.40069e+57
          1236.58910	         1.06119e+58
          1237.39540	         1.11114e+58
          1238.20170	         1.27418e+58
          1239.00800	         1.43114e+58
          1239.81430	         1.47964e+58
          1240.62060	         1.12492e+58
          1241.42690	         1.18806e+58
          1242.23320	         1.15759e+58
          1243.03950	         6.38482e+57
          1243.84580	         6.46493e+57
          1244.65210	         9.21877e+57
          1245.45840	         9.60456e+57
          1246.26470	         8.53757e+57
          1247.07100	         5.70708e+57
          1247.87730	         6.74108e+57
          1248.68360	         6.79777e+57
          1249.48990	         1.13682e+58
          1250.29620	         1.31468e+58
          1251.10250	         6.56329e+57
          1251.90880	         1.34484e+57
          1252.71510	         4.01434e+57
          1253.52140	         6.70283e+57
          1254.32770	         1.01861e+58
          1255.13400	         1.31627e+58
          1255.94030	         1.15398e+58
          1256.74660	         8.89399e+57
          1257.55290	         1.08221e+58
          1258.35920	         8.75913e+57
          1259.16550	         6.34755e+57
          1259.97180	         5.13480e+57
          1260.77810	         6.76840e+57
          1261.58440	         1.00905e+58
          1262.39070	         7.18376e+57
          1263.19700	         8.67239e+57
          1264.00330	         1.03294e+58
          1264.80960	         1.09677e+58
          1265.61590	         1.06747e+58
          1266.42220	         1.07088e+58
          1267.22850	         1.05048e+58
          1268.03480	         1.32230e+58
          1268.84110	         1.43026e+58
          1269.64740	         1.16647e+58
          1270.45370	         1.37551e+58
          1271.26000	         1.39842e+58
          1272.06630	         1.24100e+58
          1272.87260	         1.32851e+58
          1273.67890	         1.41127e+58
          1274.48520	         1.32425e+58
          1275.29150	         1.35826e+58
          1276.09780	         1.16968e+58
          1276.90410	         1.27697e+58
          1277.71040	         1.09521e+58
          1278.51670	         1.19300e+58
          1279.32300	         1.30680e+58
          1280.12930	         1.21479e+58
          1280.93560	         1.14586e+58
          1281.74190	         1.00859e+58
          1282.54820	         1.15110e+58
          1283.35450	         1.15972e+58
          1284.16080	         1.09149e+58
          1284.96710	         1.55455e+58
          1285.77340	         1.41740e+58
          1286.57970	         1.05302e+58
          1287.38600	         1.60981e+58
          1288.19230	         1.75097e+58
          1288.99860	         1.41707e+58
          1289.80490	         1.08537e+58
          1290.61120	         1.53085e+58
          1291.41750	         1.54607e+58
          1292.22380	         1.10404e+58
          1293.03010	         1.14596e+58
          1293.83640	         1.17934e+58
          1294.64270	         9.33345e+57
          1295.44900	         7.46741e+57
          1296.25530	         7.76411e+57
          1297.06160	         9.40536e+57
          1297.86790	         1.10219e+58
          1298.67420	         8.48690e+57
          1299.48050	         8.14474e+57
          1300.28680	         1.05378e+58
          1301.09310	         8.94392e+57
          1301.89940	         4.23508e+57
          1302.70570	         6.06602e+57
          1303.51200	         8.51626e+57
          1304.31830	         1.06974e+58
          1305.12460	         1.14960e+58
          1305.93090	         1.19501e+58
          1306.73720	         1.27027e+58
          1307.54350	         1.44239e+58
          1308.34980	         1.42913e+58
          1309.15610	         1.54998e+58
          1309.96240	         1.67974e+58
          1310.76870	         1.49096e+58
          1311.57500	         1.13310e+58
          1312.38130	         1.17224e+58
          1313.18760	         1.28253e+58
          1313.99390	         1.47942e+58
          1314.80020	         1.43054e+58
          1315.60650	         1.25099e+58
          1316.41280	         1.20569e+58
          1317.21910	         1.09807e+58
          1318.02540	         1.12356e+58
          1318.83170	         1.21680e+58
          1319.63800	         1.19668e+58
          1320.44430	         1.15588e+58
          1321.25060	         1.27801e+58
          1322.05690	         1.26912e+58
          1322.86320	         1.23181e+58
          1323.66950	         9.26730e+57
          1324.47580	         7.17338e+57
          1325.28210	         1.00133e+58
          1326.08840	         1.20029e+58
          1326.89470	         1.36226e+58
          1327.70100	         1.12633e+58
          1328.50730	         8.50303e+57
          1329.31360	         9.77709e+57
          1330.11990	         1.09136e+58
          1330.92620	         1.04543e+58
          1331.73250	         1.14045e+58
          1332.53880	         1.09937e+58
          1333.34510	         9.21635e+57
          1334.15140	         9.94163e+57
          1334.95770	         9.46642e+57
          1335.76400	         9.11106e+57
          1336.57030	         1.04813e+58
          1337.37660	         1.03331e+58
          1338.18290	         1.12462e+58
          1338.98920	         1.23710e+58
          1339.79550	         1.34040e+58
          1340.60180	         1.32183e+58
          1341.40810	         1.29771e+58
          1342.21440	         1.13979e+58
          1343.02070	         1.20793e+58
          1343.82700	         1.35834e+58
          1344.63330	         1.35814e+58
          1345.43960	         1.40064e+58
          1346.24590	         1.21435e+58
          1347.05220	         1.22986e+58
          1347.85850	         1.12727e+58
          1348.66480	         1.30761e+58
          1349.47110	         1.30064e+58
          1350.27740	         1.17391e+58
          1351.08370	         1.15559e+58
          1351.89000	         1.21560e+58
          1352.69630	         1.27878e+58
          1353.50260	         1.22887e+58
          1354.30890	         1.17843e+58
          1355.11520	         1.10449e+58
          1355.92150	         1.09762e+58
          1356.72780	         1.04149e+58
          1357.53410	         1.07070e+58
          1358.34040	         1.22498e+58
          1359.14670	         1.06924e+58
          1359.95300	         9.68525e+57
          1360.75930	         1.07071e+58
          1361.56560	         1.01588e+58
          1362.37190	         1.09801e+58
          1363.17820	         1.13454e+58
          1363.98450	         1.07355e+58
          1364.79080	         1.12119e+58
          1365.59710	         1.17045e+58
          1366.40340	         1.16408e+58
          1367.20970	         9.19543e+57
          1368.01600	         7.85840e+57
          1368.82230	         8.06615e+57
          1369.62860	         9.93036e+57
          1370.43490	         8.18903e+57
          1371.24120	         9.51731e+57
          1372.04750	         9.00988e+57
          1372.85380	         1.02821e+58
          1373.66010	         1.10777e+58
          1374.46640	         9.36395e+57
          1375.27270	         1.05740e+58
          1376.07900	         1.00831e+58
          1376.88530	         8.34899e+57
          1377.69160	         7.22202e+57
          1378.49790	         7.28447e+57
          1379.30420	         8.68425e+57
          1380.11050	         1.05705e+58
          1380.91680	         9.69622e+57
          1381.72310	         9.09565e+57
          1382.52940	         8.71310e+57
          1383.33570	         7.92283e+57
          1384.14200	         1.05353e+58
          1384.94830	         9.10312e+57
          1385.75460	         8.51591e+57
          1386.56090	         1.01901e+58
          1387.36720	         1.07213e+58
          1388.17350	         1.16266e+58
          1388.97980	         1.03542e+58
          1389.78610	         9.23175e+57
          1390.59240	         9.21920e+57
          1391.39870	         7.74587e+57
          1392.20500	         8.47364e+57
          1393.01130	         7.77922e+57
          1393.81760	         7.19792e+57
          1394.62390	         7.82019e+57
          1395.43020	         6.45130e+57
          1396.23650	         4.95356e+57
          1397.04280	         5.67721e+57
          1397.84910	         7.42104e+57
          1398.65540	         9.37790e+57
          1399.46170	         1.10818e+58
          1400.26800	         9.53837e+57
          1401.07430	         7.26981e+57
          1401.88060	         8.40462e+57
          1402.68690	         9.33117e+57
          1403.49320	         9.42841e+57
          1404.29950	         9.60892e+57
          1405.10580	         1.07897e+58
          1405.91210	         1.14939e+58
          1406.71840	         1.09258e+58
          1407.52470	         1.05479e+58
          1408.33100	         1.04789e+58
          1409.13730	         1.05399e+58
          1409.94360	         1.16506e+58
          1410.74990	         1.22628e+58
          1411.55620	         1.07001e+58
          1412.36250	         9.31692e+57
          1413.16880	         8.13397e+57
          1413.97510	         7.75919e+57
          1414.78140	         9.57712e+57
          1415.58770	         1.04753e+58
          1416.39400	         1.14490e+58
          1417.20030	         1.16490e+58
          1418.00660	         9.19386e+57
          1418.81290	         1.07307e+58
          1419.61920	         1.26553e+58
          1420.42550	         1.20116e+58
          1421.23180	         1.19935e+58
          1422.03810	         1.21885e+58
          1422.84440	         1.15433e+58
          1423.65070	         1.29837e+58
          1424.45700	         1.23008e+58
          1425.26330	         8.74014e+57
          1426.06960	         9.11196e+57
          1426.87590	         1.07135e+58
          1427.68220	         9.68508e+57
          1428.48850	         9.81858e+57
          1429.29480	         1.14542e+58
          1430.10110	         1.05179e+58
          1430.90740	         8.97229e+57
          1431.71370	         9.53138e+57
          1432.52000	         8.54305e+57
          1433.32630	         7.95987e+57
          1434.13260	         7.86691e+57
          1434.93890	         7.99452e+57
          1435.74520	         8.99772e+57
          1436.55150	         1.00205e+58
          1437.35780	         8.99769e+57
          1438.16410	         9.44802e+57
          1438.97040	         9.91544e+57
          1439.77670	         1.02239e+58
          1440.58300	         9.64271e+57
          1441.38930	         9.47668e+57
          1442.19560	         9.46346e+57
          1443.00190	         9.20701e+57
          1443.80820	         1.02996e+58
          1444.61450	         1.08969e+58
          1445.42080	         9.31231e+57
          1446.22710	         9.25716e+57
          1447.03340	         9.27694e+57
          1447.83970	         1.06330e+58
          1448.64600	         1.10352e+58
          1449.45230	         1.17529e+58
          1450.25860	         1.17542e+58
          1451.06490	         8.81491e+57
          1451.87120	         7.58913e+57
          1452.67750	         8.00827e+57
          1453.48380	         9.01023e+57
          1454.29010	         8.06871e+57
          1455.09640	         7.07229e+57
          1455.90270	         9.48115e+57
          1456.70900	         9.87019e+57
          1457.51530	         9.86543e+57
          1458.32160	         1.21430e+58
          1459.12790	         1.13938e+58
          1459.93420	         9.91059e+57
          1460.74050	         7.65614e+57
          1461.54680	         8.32848e+57
          1462.35310	         8.00942e+57
          1463.15940	         8.91002e+57
          1463.96570	         1.07642e+58
          1464.77200	         1.11784e+58
          1465.57830	         1.15150e+58
          1466.38460	         1.02224e+58
          1467.19090	         9.25220e+57
          1467.99720	         8.94456e+57
          1468.80350	         8.88206e+57
          1469.60980	         9.26953e+57
          1470.41610	         1.06558e+58
          1471.22240	         1.04381e+58
          1472.02870	         9.35550e+57
          1472.83500	         9.12090e+57
          1473.64130	         1.01569e+58
          1474.44760	         1.07281e+58
          1475.25390	         9.64677e+57
          1476.06020	         8.66631e+57
          1476.86650	         7.69683e+57
          1477.67280	         7.69133e+57
          1478.47910	         7.99354e+57
          1479.28540	         7.84616e+57
          1480.09170	         8.62809e+57
          1480.89800	         8.94156e+57
          1481.70430	         7.89300e+57
          1482.51060	         6.46886e+57
          1483.31690	         7.42030e+57
          1484.12320	         8.55715e+57
          1484.92950	         8.11514e+57
          1485.73580	         8.13666e+57
          1486.54210	         8.49526e+57
          1487.34840	         8.53976e+57
          1488.15470	         7.46862e+57
          1488.96100	         8.18136e+57
          1489.76730	         9.09553e+57
          1490.57360	         9.88089e+57
          1491.37990	         8.25012e+57
          1492.18620	         7.43132e+57
          1492.99250	         7.97891e+57
          1493.79880	         8.70705e+57
          1494.60510	         7.81564e+57
          1495.41140	         7.88565e+57
          1496.21770	         9.36313e+57
          1497.02400	         1.05912e+58
          1497.83030	         9.25169e+57
          1498.63660	         7.18874e+57
          1499.44290	         6.20514e+57
          1500.24920	         5.98960e+57
          1501.05550	         7.84793e+57
          1501.86180	         8.70607e+57
          1502.66810	         9.47367e+57
          1503.47440	         1.03917e+58
          1504.28070	         9.54677e+57
          1505.08700	         1.02523e+58
          1505.89330	         9.25993e+57
          1506.69960	         8.18899e+57
          1507.50590	         8.62016e+57
          1508.31220	         8.84758e+57
          1509.11850	         8.76977e+57
          1509.92480	         9.27445e+57
          1510.73110	         8.90510e+57
          1511.53740	         7.86094e+57
          1512.34370	         7.04814e+57
          1513.15000	         8.12491e+57
          1513.95630	         1.04437e+58
          1514.76260	         9.07983e+57
          1515.56890	         7.63373e+57
          1516.37520	         8.65702e+57
          1517.18150	         8.74331e+57
          1517.98780	         7.60087e+57
          1518.79410	         7.15483e+57
          1519.60040	         8.63718e+57
          1520.40670	         9.85885e+57
          1521.21300	         9.50586e+57
          1522.01930	         8.50695e+57
          1522.82560	         8.94959e+57
          1523.63190	         9.66826e+57
          1524.43820	         7.99789e+57
          1525.24450	         6.49571e+57
          1526.05080	         6.88151e+57
          1526.85710	         6.22269e+57
          1527.66340	         6.42309e+57
          1528.46970	         8.78388e+57
          1529.27600	         8.40379e+57
          1530.08230	         6.82327e+57
          1530.88860	         7.37826e+57
          1531.69490	         8.83877e+57
          1532.50120	         9.02117e+57
          1533.30750	         8.65831e+57
          1534.11380	         8.99925e+57
          1534.92010	         9.49382e+57
          1535.72640	         9.50119e+57
          1536.53270	         9.45436e+57
          1537.33900	         9.41042e+57
          1538.14530	         9.33657e+57
          1538.95160	         1.00423e+58
          1539.75790	         1.00830e+58
          1540.56420	         9.43683e+57
          1541.37050	         8.31980e+57
          1542.17680	         7.96228e+57
          1542.98310	         6.47345e+57
          1543.78940	         7.32212e+57
          1544.59570	         6.57695e+57
          1545.40200	         7.65149e+57
          1546.20830	         9.69884e+57
          1547.01460	         1.10230e+58
          1547.82090	         1.14467e+58
          1548.62720	         1.19964e+58
          1549.43350	         1.15292e+58
          1550.23980	         1.07626e+58
          1551.04610	         1.22986e+58
          1551.85240	         1.20068e+58
          1552.65870	         1.13194e+58
          1553.46500	         1.01220e+58
          1554.27130	         8.96378e+57
          1555.07760	         8.71654e+57
          1555.88390	         8.76767e+57
          1556.69020	         9.20979e+57
          1557.49650	         8.65000e+57
          1558.30280	         8.19852e+57
          1559.10910	         9.22876e+57
          1559.91540	         9.32317e+57
          1560.72170	         8.44732e+57
          1561.52800	         8.64920e+57
          1562.33430	         9.83909e+57
          1563.14060	         8.90324e+57
          1563.94690	         8.24424e+57
          1564.75320	         8.90156e+57
          1565.55950	         6.99073e+57
          1566.36580	         7.16654e+57
          1567.17210	         9.63381e+57
          1567.97840	         9.77037e+57
          1568.78470	         9.36309e+57
          1569.59100	         1.01128e+58
          1570.39730	         9.58145e+57
          1571.20360	         7.56004e+57
          1572.00990	         7.64824e+57
          1572.81620	         8.66524e+57
          1573.62250	         1.02465e+58
          1574.42880	         1.00236e+58
          1575.23510	         7.73489e+57
          1576.04140	         8.44307e+57
          1576.84770	         9.25029e+57
          1577.65400	         8.76171e+57
          1578.46030	         9.50539e+57
          1579.26660	         9.77250e+57
          1580.07290	         8.98118e+57
          1580.87920	         6.88952e+57
          1581.68550	         6.90855e+57
          1582.49180	         8.03435e+57
          1583.29810	         8.05231e+57
          1584.10440	         8.70974e+57
          1584.91070	         8.64872e+57
          1585.71700	         8.27234e+57
          1586.52330	         8.59215e+57
          1587.32960	         8.66207e+57
          1588.13590	         8.69116e+57
          1588.94220	         8.34838e+57
          1589.74850	         8.70544e+57
          1590.55480	         9.39910e+57
          1591.36110	         9.57900e+57
          1592.16740	         8.58562e+57
          1592.97370	         8.35423e+57
          1593.78000	         8.76082e+57
          1594.58630	         9.46220e+57
          1595.39260	         9.16792e+57
          1596.19890	         9.58288e+57
          1597.00520	         9.61408e+57
          1597.81150	         9.05791e+57
          1598.61780	         7.31297e+57
          1599.42410	         6.81958e+57
          1600.23040	         7.18878e+57
          1601.03670	         8.35472e+57
          1601.84300	         7.08313e+57
          1602.64930	         7.82090e+57
          1603.45560	         8.75280e+57
          1604.26190	         8.19332e+57
          1605.06820	         8.58427e+57
          1605.87450	         8.19512e+57
          1606.68080	         6.41941e+57
          1607.48710	         5.71390e+57
          1608.29340	         7.46035e+57
          1609.09970	         7.97430e+57
          1609.90600	         6.83148e+57
          1610.71230	         7.30476e+57
          1611.51860	         7.74223e+57
          1612.32490	         6.53810e+57
          1613.13120	         7.62367e+57
          1613.93750	         8.40688e+57
          1614.74380	         8.33204e+57
          1615.55010	         8.08146e+57
          1616.35640	         8.53486e+57
          1617.16270	         9.12005e+57
          1617.96900	         9.84971e+57
          1618.77530	         9.73492e+57
          1619.58160	         8.64716e+57
          1620.38790	         7.91274e+57
          1621.19420	         8.55779e+57
          1622.00050	         9.25727e+57
          1622.80680	         9.71127e+57
          1623.61310	         9.31994e+57
          1624.41940	         8.04938e+57
          1625.22570	         9.04626e+57
          1626.03200	         9.72703e+57
          1626.83830	         8.29826e+57
          1627.64460	         7.05579e+57
          1628.45090	         7.22725e+57
          1629.25720	         9.94607e+57
          1630.06350	         9.22457e+57
          1630.86980	         6.58546e+57
          1631.67610	         8.08191e+57
          1632.48240	         8.93655e+57
          1633.28870	         8.50908e+57
          1634.09500	         9.86055e+57
          1634.90130	         1.11855e+58
          1635.70760	         1.01454e+58
          1636.51390	         7.68996e+57
          1637.32020	         8.07996e+57
          1638.12650	         9.01051e+57
          1638.93280	         8.76474e+57
          1639.73910	         9.62990e+57
          1640.54540	         1.06259e+58
          1641.35170	         9.45722e+57
          1642.15800	         8.91542e+57
          1642.96430	         8.67394e+57
          1643.77060	         9.52831e+57
          1644.57690	         8.85346e+57
          1645.38320	         8.37441e+57
          1646.18950	         7.88767e+57
          1646.99580	         8.80872e+57
          1647.80210	         8.79743e+57
          1648.60840	         7.80031e+57
          1649.41470	         8.87108e+57
          1650.22100	         8.78429e+57
          1651.02730	         8.35475e+57
          1651.83360	         7.51347e+57
          1652.63990	         8.16623e+57
          1653.44620	         8.86163e+57
          1654.25250	         7.84763e+57
          1655.05880	         7.23883e+57
          1655.86510	         8.05816e+57
          1656.67140	         8.46038e+57
          1657.47770	         8.64267e+57
          1658.28400	         8.57353e+57
          1659.09030	         9.01026e+57
          1659.89660	         9.51643e+57
          1660.70290	         1.05908e+58
          1661.50920	         1.05528e+58
          1662.31550	         9.08320e+57
          1663.12180	         7.89857e+57
          1663.92810	         8.82799e+57
          1664.73440	         1.03874e+58
          1665.54070	         1.21174e+58
          1666.34700	         1.27990e+58
          1667.15330	         1.07484e+58
          1667.95960	         8.72100e+57
          1668.76590	         7.83311e+57
          1669.57220	         7.52222e+57
          1670.37850	         7.23486e+57
          1671.18480	         7.86824e+57
          1671.99110	         7.98636e+57
          1672.79740	         6.76814e+57
          1673.60370	         7.04577e+57
          1674.41000	         7.82872e+57
          1675.21630	         7.53444e+57
          1676.02260	         7.04971e+57
          1676.82890	         7.41826e+57
          1677.63520	         6.97791e+57
          1678.44150	         6.93979e+57
          1679.24780	         8.60527e+57
          1680.05410	         7.62038e+57
          1680.86040	         5.55306e+57
          1681.66670	         7.10744e+57
          1682.47300	         8.67180e+57
          1683.27930	         9.33111e+57
          1684.08560	         8.90686e+57
          1684.89190	         7.81948e+57
          1685.69820	         5.72507e+57
          1686.50450	         4.70847e+57
          1687.31080	         6.75537e+57
          1688.11710	         8.12530e+57
          1688.92340	         7.16322e+57
          1689.72970	         6.33497e+57
          1690.53600	         7.04975e+57
          1691.34230	         7.73257e+57
          1692.14860	         7.89384e+57
          1692.95490	         7.17652e+57
          1693.76120	         6.78972e+57
          1694.56750	         6.85233e+57
          1695.37380	         8.72006e+57
          1696.18010	         8.46149e+57
          1696.98640	         7.89171e+57
          1697.79270	         7.44531e+57
          1698.59900	         7.52651e+57
          1699.40530	         7.10212e+57
          1700.21160	         7.28130e+57
          1701.01790	         7.38945e+57
          1701.82420	         7.21025e+57
          1702.63050	         7.81288e+57
          1703.43680	         7.82513e+57
          1704.24310	         8.89561e+57
          1705.04940	         8.45332e+57
          1705.85570	         7.79608e+57
          1706.66200	         9.39730e+57
          1707.46830	         8.20463e+57
          1708.27460	         6.63069e+57
          1709.08090	         5.65512e+57
          1709.88720	         6.89850e+57
          1710.69350	         7.21201e+57
          1711.49980	         6.39345e+57
          1712.30610	         6.64495e+57
          1713.11240	         8.32917e+57
          1713.91870	         6.83954e+57
          1714.72500	         7.13366e+57
          1715.53130	         8.54096e+57
          1716.33760	         8.18095e+57
          1717.14390	         7.20524e+57
          1717.95020	         8.09128e+57
          1718.75650	         9.06054e+57
          1719.56280	         8.73130e+57
          1720.36910	         7.71686e+57
          1721.17540	         7.43121e+57
          1721.98170	         6.37810e+57
          1722.78800	         6.30354e+57
          1723.59430	         7.35582e+57
          1724.40060	         7.95861e+57
          1725.20690	         9.18595e+57
          1726.01320	         8.27618e+57
          1726.81950	         7.33562e+57
          1727.62580	         6.98630e+57
          1728.43210	         7.20585e+57
          1729.23840	         8.02223e+57
          1730.04470	         8.04853e+57
          1730.85100	         8.19261e+57
          1731.65730	         7.33783e+57
          1732.46360	         7.19470e+57
          1733.26990	         6.71557e+57
          1734.07620	         7.24111e+57
          1734.88250	         7.59184e+57
          1735.68880	         7.46157e+57
          1736.49510	         7.70897e+57
          1737.30140	         7.43031e+57
          1738.10770	         6.78312e+57
          1738.91400	         7.28370e+57
          1739.72030	         6.83885e+57
          1740.52660	         5.59235e+57
          1741.33290	         5.19101e+57
          1742.13920	         5.37775e+57
          1742.94550	         7.10356e+57
          1743.75180	         7.66776e+57
          1744.55810	         7.38979e+57
          1745.36440	         7.09370e+57
          1746.17070	         5.57097e+57
          1746.97700	         4.61926e+57
          1747.78330	         6.25831e+57
          1748.58960	         6.90345e+57
          1749.39590	         7.14072e+57
          1750.20220	         6.75106e+57
          1751.00850	         4.52619e+57
          1751.81480	         5.30820e+57
          1752.62110	         8.15504e+57
          1753.42740	         8.93341e+57
          1754.23370	         7.12169e+57
          1755.04000	         7.06608e+57
          1755.84630	         9.18033e+57
          1756.65260	         9.91685e+57
          1757.45890	         9.45202e+57
          1758.26520	         6.46453e+57
          1759.07150	         7.34378e+57
          1759.87780	         8.22364e+57
          1760.68410	         7.39859e+57
          1761.49040	         8.19790e+57
          1762.29670	         7.06278e+57
          1763.10300	         6.03263e+57
          1763.90930	         6.57806e+57
          1764.71560	         6.92986e+57
          1765.52190	         7.05216e+57
          1766.32820	         8.48937e+57
          1767.13450	         8.35932e+57
          1767.94080	         6.51064e+57
          1768.74710	         5.90605e+57
          1769.55340	         6.66183e+57
          1770.35970	         6.77040e+57
          1771.16600	         6.84608e+57
          1771.97230	         7.50165e+57
          1772.77860	         8.53764e+57
          1773.58490	         8.21909e+57
          1774.39120	         6.30116e+57
          1775.19750	         6.05338e+57
          1776.00380	         6.24467e+57
          1776.81010	         6.16178e+57
          1777.61640	         6.34510e+57
          1778.42270	         6.85312e+57
          1779.22900	         6.05899e+57
          1780.03530	         5.83220e+57
          1780.84160	         6.96700e+57
          1781.64790	         8.28844e+57
          1782.45420	         6.95393e+57
          1783.26050	         6.35662e+57
          1784.06680	         6.88936e+57
          1784.87310	         7.84039e+57
          1785.67940	         7.26732e+57
          1786.48570	         7.12213e+57
          1787.29200	         6.57071e+57
          1788.09830	         6.28923e+57
          1788.90460	         5.07906e+57
          1789.71090	         5.52787e+57
          1790.51720	         6.20334e+57
          1791.32350	         6.92433e+57
          1792.12980	         8.49508e+57
          1792.93610	         7.44810e+57
          1793.74240	         7.10792e+57
          1794.54870	         7.28426e+57
          1795.35500	         8.01946e+57
          1796.16130	         8.23575e+57
          1796.96760	         7.45672e+57
          1797.77390	         7.69704e+57
          1798.58020	         7.76376e+57
          1799.38650	         7.56302e+57
          1800.19280	         7.64444e+57
          1800.99910	         7.38811e+57
          1801.80540	         7.48840e+57
          1802.61170	         7.59472e+57
          1803.41800	         7.95545e+57
          1804.22430	         9.06558e+57
          1805.03060	         8.42157e+57
          1805.83690	         7.09175e+57
          1806.64320	         7.94972e+57
          1807.44950	         7.39658e+57
          1808.25580	         7.68136e+57
          1809.06210	         8.93276e+57
          1809.86840	         8.58232e+57
          1810.67470	         7.35270e+57
          1811.48100	         8.14664e+57
          1812.28730	         8.41645e+57
          1813.09360	         8.25512e+57
          1813.89990	         8.37569e+57
          1814.70620	         7.93252e+57
          1815.51250	         7.72714e+57
          1816.31880	         8.14419e+57
          1817.12510	         7.87089e+57
          1817.93140	         7.41786e+57
          1818.73770	         7.30047e+57
          1819.54400	         8.33434e+57
          1820.35030	         8.40217e+57
          1821.15660	         7.24302e+57
          1821.96290	         6.36512e+57
          1822.76920	         6.25502e+57
          1823.57550	         6.99116e+57
          1824.38180	         8.04991e+57
          1825.18810	         8.45935e+57
          1825.99440	         8.85085e+57
          1826.80070	         7.25998e+57
          1827.60700	         6.31645e+57
          1828.41330	         6.49951e+57
          1829.21960	         7.02535e+57
          1830.02590	         6.90664e+57
          1830.83220	         7.98156e+57
          1831.63850	         7.70926e+57
          1832.44480	         7.84664e+57
          1833.25110	         8.49372e+57
          1834.05740	         8.81341e+57
          1834.86370	         7.77052e+57
          1835.67000	         6.37798e+57
          1836.47630	         7.54911e+57
          1837.28260	         8.75327e+57
          1838.08890	         8.62833e+57
          1838.89520	         8.31764e+57
          1839.70150	         7.48600e+57
          1840.50780	         7.90519e+57
          1841.31410	         7.58876e+57
          1842.12040	         6.96537e+57
          1842.92670	         7.08821e+57
          1843.73300	         6.98813e+57
          1844.53930	         6.63844e+57
          1845.34560	         7.49173e+57
          1846.15190	         8.64058e+57
          1846.95820	         7.87878e+57
          1847.76450	         6.61622e+57
          1848.57080	         5.45844e+57
          1849.37710	         6.05559e+57
          1850.18340	         6.01470e+57
          1850.98970	         7.15721e+57
          1851.79600	         8.65214e+57
          1852.60230	         6.13247e+57
          1853.40860	         5.80059e+57
          1854.21490	         6.67608e+57
          1855.02120	         5.97582e+57
          1855.82750	         4.90371e+57
          1856.63380	         5.99035e+57
          1857.44010	         6.87891e+57
          1858.24640	         6.98034e+57
          1859.05270	         6.79401e+57
          1859.85900	         6.38949e+57
          1860.66530	         6.12570e+57
          1861.47160	         6.07437e+57
          1862.27790	         6.86412e+57
          1863.08420	         6.88444e+57
          1863.89050	         7.12939e+57
          1864.69680	         6.82625e+57
          1865.50310	         6.72714e+57
          1866.30940	         5.85444e+57
          1867.11570	         6.04241e+57
          1867.92200	         7.22216e+57
          1868.72830	         7.15483e+57
          1869.53460	         6.84450e+57
          1870.34090	         7.64031e+57
          1871.14720	         7.70217e+57
          1871.95350	         6.92189e+57
          1872.75980	         6.89542e+57
          1873.56610	         6.32769e+57
          1874.37240	         5.70333e+57
          1875.17870	         6.11510e+57
          1875.98500	         6.92234e+57
          1876.79130	         7.31467e+57
          1877.59760	         7.32854e+57
          1878.40390	         6.29912e+57
          1879.21020	         6.68645e+57
          1880.01650	         7.72630e+57
          1880.82280	         8.48772e+57
          1881.62910	         9.52802e+57
          1882.43540	         9.67397e+57
          1883.24170	         8.82611e+57
          1884.04800	         7.54098e+57
          1884.85430	         7.77209e+57
          1885.66060	         7.98081e+57
          1886.46690	         7.99220e+57
          1887.27320	         8.04026e+57
          1888.07950	         6.47357e+57
          1888.88580	         6.48574e+57
          1889.69210	         8.49473e+57
          1890.49840	         9.03397e+57
          1891.30470	         7.38725e+57
          1892.11100	         7.85766e+57
          1892.91730	         7.80069e+57
          1893.72360	         7.92187e+57
          1894.52990	         7.45579e+57
          1895.33620	         7.68737e+57
          1896.14250	         6.80412e+57
          1896.94880	         5.30819e+57
          1897.75510	         4.53969e+57
          1898.56140	         6.70137e+57
          1899.36770	         8.16183e+57
          1900.17400	         6.98905e+57
          1900.98030	         6.51260e+57
          1901.78660	         6.86001e+57
          1902.59290	         6.53899e+57
          1903.39920	         8.19857e+57
          1904.20550	         8.75407e+57
          1905.01180	         8.58858e+57
          1905.81810	         9.83106e+57
          1906.62440	         1.21396e+58
          1907.43070	         1.44706e+58
          1908.23700	         1.54615e+58
          1909.04330	         1.38025e+58
          1909.84960	         1.15162e+58
          1910.65590	         9.67634e+57
          1911.46220	         8.58899e+57
          1912.26850	         7.13902e+57
          1913.07480	         5.90218e+57
          1913.88110	         5.53349e+57
          1914.68740	         5.92791e+57
          1915.49370	         5.83721e+57
          1916.30000	         6.70879e+57
          1917.10630	         7.37769e+57
          1917.91260	         6.28485e+57
          1918.71890	         6.00825e+57
          1919.52520	         5.75159e+57
          1920.33150	         6.16648e+57
          1921.13780	         6.29633e+57
          1921.94410	         7.76275e+57
          1922.75040	         7.43843e+57
          1923.55670	         7.78851e+57
          1924.36300	         8.26547e+57
          1925.16930	         6.10181e+57
          1925.97560	         5.58072e+57
          1926.78190	         4.92180e+57
          1927.58820	         5.07939e+57
          1928.39450	         6.33379e+57
          1929.20080	         5.53331e+57
          1930.00710	         6.01819e+57
          1930.81340	         6.40925e+57
          1931.61970	         6.15095e+57
          1932.42600	         7.02917e+57
          1933.23230	         7.93594e+57
          1934.03860	         7.11199e+57
          1934.84490	         6.45279e+57
          1935.65120	         7.96764e+57
          1936.45750	         8.45697e+57
          1937.26380	         7.13083e+57
          1938.07010	         7.44895e+57
          1938.87640	         6.89574e+57
          1939.68270	         7.81380e+57
          1940.48900	         8.05571e+57
          1941.29530	         8.40035e+57
          1942.10160	         7.73358e+57
          1942.90790	         6.02356e+57
          1943.71420	         5.88244e+57
          1944.52050	         6.78922e+57
          1945.32680	         6.20671e+57
          1946.13310	         7.01385e+57
          1946.93940	         8.28303e+57
          1947.74570	         7.24135e+57
          1948.55200	         6.19069e+57
          1949.35830	         7.17677e+57
          1950.16460	         6.46772e+57
          1950.97090	         6.34565e+57
          1951.77720	         7.02271e+57
          1952.58350	         7.67035e+57
          1953.38980	         6.03598e+57
          1954.19610	         4.75885e+57
          1955.00240	         4.77417e+57
          1955.80870	         5.79634e+57
          1956.61500	         6.02803e+57
          1957.42130	         6.73773e+57
          1958.22760	         6.75052e+57
          1959.03390	         7.52284e+57
          1959.84020	         7.18733e+57
          1960.64650	         8.17548e+57
          1961.45280	         7.74351e+57
          1962.25910	         7.19773e+57
          1963.06540	         6.35607e+57
          1963.87170	         6.62061e+57
          1964.67800	         7.28348e+57
          1965.48430	         6.82267e+57
          1966.29060	         7.09406e+57
          1967.09690	         7.30491e+57
          1967.90320	         5.74985e+57
          1968.70950	         7.50740e+57
          1969.51580	         6.34038e+57
          1970.32210	         7.03374e+57
          1971.12840	         6.93838e+57
          1971.93470	         5.52951e+57
          1972.74100	         6.00224e+57
          1973.54730	         7.36638e+57
          1974.35360	         7.72222e+57
          1975.15990	         6.91668e+57
          1975.96620	         7.27373e+57
          1976.77250	         8.29768e+57
          1977.57880	         8.34493e+57
          1978.38510	         6.33378e+57
          1979.19140	         6.47557e+57
          1979.99770	         7.30373e+57
          1980.80400	         6.78128e+57
          1981.61030	         7.28865e+57
          1982.41660	         5.85567e+57
          1983.22290	         6.33632e+57
          1984.02920	         6.04074e+57
          1984.83550	         6.29652e+57
          1985.64180	         7.15053e+57
          1986.44810	         6.62687e+57
          1987.25440	         5.03786e+57
          1988.06070	         5.69498e+57
          1988.86700	         6.59893e+57
          1989.67330	         6.77078e+57
          1990.47960	         7.02951e+57
          1991.28590	         7.42783e+57
          1992.09220	         6.52802e+57
          1992.89850	         5.39890e+57
          1993.70480	         4.97677e+57
          1994.51110	         5.12252e+57
          1995.31740	         5.17890e+57
          1996.12370	         5.54576e+57
          1996.93000	         5.58483e+57
          1997.73630	         6.98866e+57
          1998.54260	         8.13083e+57
          1999.34890	         7.22832e+57
          2000.15520	         6.46945e+57
          2000.96150	         7.49008e+57
          2001.76780	         5.73875e+57
          2002.57410	         4.80386e+57
          2003.38040	         6.04229e+57
          2004.18670	         6.70290e+57
          2004.99300	         5.93948e+57
          2005.79930	         7.48534e+57
          2006.60560	         7.29586e+57
          2007.41190	         6.42326e+57
          2008.21820	         6.46580e+57
          2009.02450	         6.24733e+57
          2009.83080	         6.91017e+57
          2010.63710	         5.99007e+57
          2011.44340	         6.59973e+57
          2012.24970	         7.31847e+57
          2013.05600	         7.04880e+57
          2013.86230	         6.62054e+57
          2014.66860	         6.26232e+57
          2015.47490	         6.34649e+57
          2016.28120	         6.38278e+57
          2017.08750	         4.77885e+57
          2017.89380	         6.54683e+57
          2018.70010	         6.29138e+57
          2019.50640	         5.94238e+57
          2020.31270	         5.99565e+57
          2021.11900	         7.45538e+57
          2021.92530	         7.29127e+57
          2022.73160	         8.40412e+57
          2023.53790	         7.38829e+57
          2024.34420	         6.91563e+57
          2025.15050	         4.07287e+57
          2025.95680	         5.28211e+57
          2026.76310	         5.83412e+57
          2027.56940	         7.04102e+57
          2028.37570	         7.46881e+57
          2029.18200	         6.46335e+57
          2029.98830	         6.19460e+57
          2030.79460	         6.75071e+57
          2031.60090	         6.01807e+57
          2032.40720	         5.91766e+57
          2033.21350	         5.20615e+57
          2034.01980	         5.26380e+57
          2034.82610	         5.00778e+57
          2035.63240	         5.29755e+57
          2036.43870	         5.59157e+57
          2037.24500	         6.30051e+57
          2038.05130	         7.42396e+57
          2038.85760	         6.49169e+57
          2039.66390	         5.85125e+57
          2040.47020	         5.69126e+57
          2041.27650	         6.41558e+57
          2042.08280	         5.88552e+57
          2042.88910	         5.60262e+57
          2043.69540	         5.60539e+57
          2044.50170	         6.58156e+57
          2045.30800	         5.05829e+57
          2046.11430	         4.61772e+57
          2046.92060	         4.80604e+57
          2047.72690	         6.27024e+57
          2048.53320	         5.87318e+57
          2049.33950	         5.43791e+57
          2050.14580	         5.32317e+57
          2050.95210	         6.36592e+57
          2051.75840	         7.97252e+57
          2052.56470	         6.41531e+57
          2053.37100	         5.47616e+57
          2054.17730	         4.53573e+57
          2054.98360	         4.38257e+57
          2055.78990	         3.20552e+57
          2056.59620	         3.19665e+57
          2057.40250	         5.66323e+57
          2058.20880	         7.41754e+57
          2059.01510	         6.30847e+57
          2059.82140	         5.41650e+57
          2060.62770	         9.68635e+57
          2061.43400	         1.67997e+58
          2062.24030	         1.02758e+58
          2063.04660	         4.97778e+57
          2063.85290	         3.30516e+57
          2064.65920	        -4.53203e+57
          2065.46550	        -9.75588e+57
          2066.27180	        -8.56346e+57
          2067.07810	         5.71539e+57
          2067.88440	         6.02774e+57
          2068.69070	         6.62637e+57
          2069.49700	         5.75537e+57
          2070.30330	         4.33487e+57
          2071.10960	         6.92261e+57
          2071.91590	         5.86166e+57
          2072.72220	         4.21909e+57
          2073.52850	         5.08369e+57
          2074.33480	         4.21900e+57
          2075.14110	         4.98800e+57
          2075.94740	         5.81752e+57
          2076.75370	         5.02718e+57
          2077.56000	         3.96607e+57
          2078.36630	         4.39807e+57
          2079.17260	         4.13865e+57
          2079.97890	         5.99604e+57
          2080.78520	         6.15706e+57
          2081.59150	         5.88578e+57
          2082.39780	         4.73089e+57
          2083.20410	         3.12933e+57
          2084.01040	         2.42219e+57
          2084.81670	         2.74658e+57
          2085.62300	         3.24060e+57
          2086.42930	         2.99850e+57
          2087.23560	         4.24047e+57
          2088.04190	         3.20006e+57
          2088.84820	         2.49615e+57
          2089.65450	         1.85870e+57
          2090.46080	         1.68370e+57
          2091.26710	         2.76570e+57
          2092.07340	         3.56466e+57
          2092.87970	         3.65311e+57
          2093.68600	        -7.13058e+56
          2094.49230	         1.82660e+57
          2095.29860	         3.83673e+57
          2096.10490	         3.53663e+57
          2096.91120	         1.50328e+57
          2097.71750	        -1.03943e+56
          2098.52380	         1.83601e+57
          2099.33010	         1.90313e+57
          2100.13640	         1.63877e+57
          2100.94270	         1.24526e+57
          2101.74900	         2.78697e+57
          2102.55530	         3.97791e+57
          2103.36160	         3.19979e+57
          2104.16790	         3.23522e+57
          2104.97420	         3.22068e+57
          2105.78050	         4.08557e+56
          2106.58680	         1.30790e+57
          2107.39310	        -1.02621e+57
          2108.19940	         5.33446e+56
          2109.00570	        -2.16968e+56
          2109.81200	         8.41527e+56
          2110.61830	         2.71164e+57
          2111.42460	         1.97526e+57
          2112.23090	         3.12606e+57
          2113.03720	         5.63483e+56
          2113.84350	         4.76437e+56
          2114.64980	         3.73422e+57
          2115.45610	         5.99922e+56
          2116.26240	        -5.57362e+57
          2117.06870	        -3.98683e+56
          2117.87500	         1.34751e+56
          2118.68130	         3.14388e+57
          2119.48760	         1.12006e+57
          2120.29390	        -1.44258e+57
          2121.10020	        -6.51667e+57
          2121.90650	         1.50917e+57
          2122.71280	         4.76157e+57
          2123.51910	         9.00188e+57
          2124.32540	        -1.06967e+57
          2125.13170	         7.85263e+56
          2125.93800	         4.53739e+57
          2126.74430	        -4.04766e+57
          2127.55060	        -8.41662e+57
          2128.35690	        -1.29527e+57
          2129.16320	         1.12613e+57
          2129.96950	        -2.24270e+57
          2130.77580	         6.90822e+57
          2131.58210	         2.81204e+57
          2132.38840	        -1.13186e+57
          2133.19470	        -2.30475e+57
          2134.00100	         6.15478e+56
          2134.80730	        -7.35042e+57
          2135.61360	         2.95815e+57
          2136.41990	         5.97817e+57
          2137.22620	         1.23473e+57
          2138.03250	         4.11647e+57
          2138.83880	        -9.08016e+57
          2139.64510	        -2.10556e+57
          2140.45140	        -4.65597e+57
          2141.25770	        -3.77664e+57
          2142.06400	        -2.46873e+57
          2142.87030	        -1.52617e+57
          2143.67660	         1.20510e+58
          2144.48290	         7.49516e+57
          2145.28920	         1.03378e+58
          2146.09550	        -2.72268e+57
          2146.90180	        -8.87630e+57
          2147.70810	        -4.59077e+57
          2148.51440	        -6.08475e+57
          2149.32070	        -1.32405e+58
          2150.12700	        -1.51966e+58
          2150.93330	        -1.33328e+57
          2151.73960	         8.00666e+55
          2152.54590	        -1.28977e+57
          2153.35220	        -8.89507e+57
          2154.15850	        -9.15616e+57
          2154.96480	         1.41716e+56
          2155.77110	        -9.55527e+56
          2156.57740	         2.50153e+57
          2157.38370	         1.59193e+57
          2158.19000	        -6.39760e+56
          2158.99630	         3.97845e+57
          2159.80260	        -1.00353e+58
          2160.60890	        -2.10532e+58
          2161.41520	        -1.54979e+57
          2162.22150	        -7.16318e+56
          2163.02780	        -6.03266e+57
          2163.83410	        -4.95502e+57
          2164.64040	        -3.80232e+57
          2165.44670	        -1.30109e+58
          2166.25300	        -1.27148e+58
          2167.05930	        -5.39796e+57
          2167.86560	        -1.62017e+57
          2168.67190	         7.42001e+56
          2169.47820	        -2.64794e+57
          2170.28450	        -9.20082e+57
          2171.09080	        -4.11743e+57
          2171.89710	        -4.13013e+57
          2172.70340	        -5.16631e+56
          2173.50970	        -8.79985e+57
          2174.31600	        -7.57415e+57
          2175.12230	        -7.87420e+57
          2175.92860	        -3.32397e+57
          2176.73490	        -1.19785e+58
          2177.54120	        -1.02362e+58
          2178.34750	        -4.37055e+57
          2179.15380	                 nan
          2179.96010	                 nan
          2180.76640	                 nan
          2181.57270	                 nan
          2182.37900	                 nan
          2183.18530	                 nan
          2183.99160	                 nan
          2184.79790	                 nan
          2185.60420	                 nan
          2186.41050	                 nan
          2187.21680	                 nan
          2188.02310	                 nan
          2188.82940	                 nan
          2189.63570	                 nan
          2190.44200	                 nan
          2191.24830	                 nan
          2192.05460	                 nan
          2192.86090	                 nan
          2193.66720	                 nan
          2194.47350	                 nan
          2195.27980	                 nan
          2196.08610	                 nan
          2196.89240	                 nan
          2197.69870	                 nan
          2198.50500	                 nan
          2199.31130	                 nan
          2200.11760	                 nan
          2200.92390	                 nan
          2201.73020	                 nan
          2202.53650	                 nan
          2203.34280	                 nan
          2204.14910	                 nan
          2204.95540	                 nan
          2205.76170	                 nan
          2206.56800	                 nan
          2207.37430	                 nan
          2208.18060	                 nan
          2208.98690	                 nan
          2209.79320	                 nan
          2210.59950	                 nan
          2211.40580	                 nan
          2212.21210	                 nan
          2213.01840	                 nan
          2213.82470	                 nan
          2214.63100	                 nan
          2215.43730	         0.00000e+00
