#sample_11_stacked_spectrum_rest_UV-bands_median_H-alpha_noDC.txt
#median Lum: 1.72919e+42
#Rest-frame wavelength (A) | Luminosity (erg/s/A)
#
          1110.00000	         0.00000e+00
          1110.80630	        -5.55248e+58
          1111.61260	         1.14706e+59
          1112.41890	         1.07255e+59
          1113.22520	        -1.00128e+59
          1114.03150	         9.37598e+58
          1114.83780	         2.33002e+59
          1115.64410	         8.29337e+58
          1116.45040	         1.94001e+59
          1117.25670	         6.00679e+58
          1118.06300	         8.54444e+58
          1118.86930	        -2.23115e+57
          1119.67560	         1.15710e+59
          1120.48190	        -2.71135e+58
          1121.28820	        -1.23793e+59
          1122.09450	         6.24483e+57
          1122.90080	         9.08499e+58
          1123.70710	         1.08739e+59
          1124.51340	         5.33003e+58
          1125.31970	         2.36138e+58
          1126.12600	        -3.13130e+58
          1126.93230	        -4.20257e+58
          1127.73860	        -6.28388e+58
          1128.54490	         2.69986e+58
          1129.35120	         4.57179e+58
          1130.15750	         5.24973e+57
          1130.96380	         2.40860e+58
          1131.77010	         8.75821e+58
          1132.57640	         1.93307e+58
          1133.38270	         2.45710e+57
          1134.18900	         1.81977e+58
          1134.99530	         4.70667e+58
          1135.80160	         5.18053e+58
          1136.60790	         1.27287e+58
          1137.41420	        -8.44272e+56
          1138.22050	         4.50548e+58
          1139.02680	         3.33669e+57
          1139.83310	         2.06053e+58
          1140.63940	         1.20563e+58
          1141.44570	        -1.19194e+58
          1142.25200	        -1.14219e+58
          1143.05830	         2.05107e+58
          1143.86460	         3.88055e+58
          1144.67090	         2.88933e+58
          1145.47720	         1.96732e+58
          1146.28350	         1.25817e+58
          1147.08980	         5.32446e+57
          1147.89610	         2.40034e+58
          1148.70240	         2.97366e+58
          1149.50870	         2.15651e+58
          1150.31500	         2.32905e+58
          1151.12130	         1.11131e+58
          1151.92760	         8.30465e+57
          1152.73390	         7.64956e+57
          1153.54020	         9.76710e+57
          1154.34650	         1.88989e+58
          1155.15280	         1.32411e+58
          1155.95910	         5.45432e+57
          1156.76540	         9.82969e+57
          1157.57170	         6.42307e+57
          1158.37800	        -1.78499e+57
          1159.18430	        -4.41159e+57
          1159.99060	         4.64718e+57
          1160.79690	         6.31635e+57
          1161.60320	         1.32672e+58
          1162.40950	         1.60903e+58
          1163.21580	         1.74477e+58
          1164.02210	         1.29375e+58
          1164.82840	         4.72406e+57
          1165.63470	         2.04155e+58
          1166.44100	         2.49381e+58
          1167.24730	         1.58413e+58
          1168.05360	         1.11846e+58
          1168.85990	         1.12683e+58
          1169.66620	         7.89755e+57
          1170.47250	         7.78485e+57
          1171.27880	         8.40684e+57
          1172.08510	         1.33665e+58
          1172.89140	         6.10516e+57
          1173.69770	         5.25700e+57
          1174.50400	         1.12913e+58
          1175.31030	         2.26235e+58
          1176.11660	         1.78949e+58
          1176.92290	         1.76931e+58
          1177.72920	         1.23923e+58
          1178.53550	         7.08333e+57
          1179.34180	         6.09582e+57
          1180.14810	         9.07026e+57
          1180.95440	         6.74946e+57
          1181.76070	         5.26758e+57
          1182.56700	         7.82845e+57
          1183.37330	         6.34542e+57
          1184.17960	         9.50310e+57
          1184.98590	         1.14528e+58
          1185.79220	         8.04841e+57
          1186.59850	         1.22568e+58
          1187.40480	         1.10675e+58
          1188.21110	         1.54580e+58
          1189.01740	         7.73803e+57
          1189.82370	         7.46139e+57
          1190.63000	         1.41845e+58
          1191.43630	         1.83181e+58
          1192.24260	         1.04660e+58
          1193.04890	         1.29534e+58
          1193.85520	         1.22881e+58
          1194.66150	         8.00706e+57
          1195.46780	         9.44967e+57
          1196.27410	         1.28935e+58
          1197.08040	         1.02566e+58
          1197.88670	         1.44915e+58
          1198.69300	         1.60955e+58
          1199.49930	         1.50728e+58
          1200.30560	         8.86744e+57
          1201.11190	         8.92455e+57
          1201.91820	         1.02268e+58
          1202.72450	         8.42183e+57
          1203.53080	         1.38376e+58
          1204.33710	         9.23426e+57
          1205.14340	         5.54351e+57
          1205.94970	         6.30283e+57
          1206.75600	         4.29201e+57
          1207.56230	         7.91966e+57
          1208.36860	         1.40178e+58
          1209.17490	         5.66738e+57
          1209.98120	         8.21854e+57
          1210.78750	         1.15792e+58
          1211.59380	         1.13365e+58
          1212.40010	         2.03994e+58
          1213.20640	         1.98575e+58
          1214.01270	         2.16587e+58
          1214.81900	         2.62276e+58
          1215.62530	         4.40607e+58
          1216.43160	         8.91611e+58
          1217.23790	         1.51547e+59
          1218.04420	         1.23042e+59
          1218.85050	         9.09567e+58
          1219.65680	         5.72776e+58
          1220.46310	         2.94070e+58
          1221.26940	         2.13170e+58
          1222.07570	         1.75333e+58
          1222.88200	         1.09955e+58
          1223.68830	         8.09483e+57
          1224.49460	         7.31158e+57
          1225.30090	         3.97311e+57
          1226.10720	         5.30189e+57
          1226.91350	         7.02185e+57
          1227.71980	         7.42728e+57
          1228.52610	         1.18346e+58
          1229.33240	         7.65550e+57
          1230.13870	         7.74578e+57
          1230.94500	         6.20760e+57
          1231.75130	         6.41999e+57
          1232.55760	         7.04288e+57
          1233.36390	         7.78955e+57
          1234.17020	         6.08985e+57
          1234.97650	         4.53918e+57
          1235.78280	         8.07792e+57
          1236.58910	         1.30979e+58
          1237.39540	         1.50926e+58
          1238.20170	         1.04614e+58
          1239.00800	         1.09674e+58
          1239.81430	         1.26760e+58
          1240.62060	         1.14177e+58
          1241.42690	         1.04955e+58
          1242.23320	         1.07413e+58
          1243.03950	         7.71503e+57
          1243.84580	         9.34292e+57
          1244.65210	         1.14945e+58
          1245.45840	         1.00102e+58
          1246.26470	         1.16901e+58
          1247.07100	         1.14483e+58
          1247.87730	         4.52541e+57
          1248.68360	         2.97747e+57
          1249.48990	         8.76449e+57
          1250.29620	         1.12335e+58
          1251.10250	         9.73055e+57
          1251.90880	         6.96463e+57
          1252.71510	         7.37116e+57
          1253.52140	         7.08196e+57
          1254.32770	         9.53030e+57
          1255.13400	         1.18268e+58
          1255.94030	         1.11285e+58
          1256.74660	         1.12108e+58
          1257.55290	         1.17506e+58
          1258.35920	         9.09981e+57
          1259.16550	         4.71301e+57
          1259.97180	         4.32982e+57
          1260.77810	         9.02506e+57
          1261.58440	         1.17754e+58
          1262.39070	         1.04801e+58
          1263.19700	         8.18300e+57
          1264.00330	         6.90358e+57
          1264.80960	         9.68687e+57
          1265.61590	         1.40307e+58
          1266.42220	         1.43459e+58
          1267.22850	         1.30405e+58
          1268.03480	         1.38300e+58
          1268.84110	         1.36766e+58
          1269.64740	         1.24171e+58
          1270.45370	         1.27504e+58
          1271.26000	         1.47880e+58
          1272.06630	         1.47427e+58
          1272.87260	         1.37659e+58
          1273.67890	         1.37975e+58
          1274.48520	         1.34980e+58
          1275.29150	         1.24720e+58
          1276.09780	         1.12590e+58
          1276.90410	         1.56167e+58
          1277.71040	         1.32423e+58
          1278.51670	         1.17237e+58
          1279.32300	         1.57617e+58
          1280.12930	         1.39845e+58
          1280.93560	         1.01214e+58
          1281.74190	         1.14001e+58
          1282.54820	         1.19427e+58
          1283.35450	         9.76952e+57
          1284.16080	         9.26995e+57
          1284.96710	         1.11400e+58
          1285.77340	         1.04751e+58
          1286.57970	         8.91144e+57
          1287.38600	         1.66514e+58
          1288.19230	         2.16238e+58
          1288.99860	         1.58807e+58
          1289.80490	         1.13531e+58
          1290.61120	         1.44152e+58
          1291.41750	         1.55816e+58
          1292.22380	         1.35335e+58
          1293.03010	         1.18566e+58
          1293.83640	         1.13571e+58
          1294.64270	         9.93016e+57
          1295.44900	         7.47537e+57
          1296.25530	         6.08964e+57
          1297.06160	         1.09902e+58
          1297.86790	         1.16007e+58
          1298.67420	         6.89213e+57
          1299.48050	         1.03776e+58
          1300.28680	         1.08081e+58
          1301.09310	         8.07662e+57
          1301.89940	         4.96658e+57
          1302.70570	         7.19866e+57
          1303.51200	         8.04547e+57
          1304.31830	         9.39488e+57
          1305.12460	         1.14989e+58
          1305.93090	         1.11205e+58
          1306.73720	         1.19074e+58
          1307.54350	         1.31936e+58
          1308.34980	         1.47421e+58
          1309.15610	         1.59794e+58
          1309.96240	         1.58672e+58
          1310.76870	         1.27935e+58
          1311.57500	         1.15527e+58
          1312.38130	         1.13321e+58
          1313.18760	         1.41918e+58
          1313.99390	         1.79237e+58
          1314.80020	         1.67843e+58
          1315.60650	         1.74955e+58
          1316.41280	         1.42166e+58
          1317.21910	         1.06498e+58
          1318.02540	         1.14256e+58
          1318.83170	         1.47725e+58
          1319.63800	         1.30194e+58
          1320.44430	         1.09532e+58
          1321.25060	         1.10298e+58
          1322.05690	         1.37880e+58
          1322.86320	         1.43486e+58
          1323.66950	         1.24227e+58
          1324.47580	         1.03023e+58
          1325.28210	         1.10321e+58
          1326.08840	         1.29421e+58
          1326.89470	         1.27959e+58
          1327.70100	         1.16767e+58
          1328.50730	         7.64238e+57
          1329.31360	         8.12907e+57
          1330.11990	         1.06574e+58
          1330.92620	         9.66826e+57
          1331.73250	         1.06822e+58
          1332.53880	         1.08272e+58
          1333.34510	         9.71165e+57
          1334.15140	         9.74405e+57
          1334.95770	         1.02403e+58
          1335.76400	         1.16549e+58
          1336.57030	         1.12940e+58
          1337.37660	         1.07878e+58
          1338.18290	         1.23659e+58
          1338.98920	         1.30393e+58
          1339.79550	         1.14884e+58
          1340.60180	         1.25840e+58
          1341.40810	         1.40185e+58
          1342.21440	         1.27448e+58
          1343.02070	         1.18931e+58
          1343.82700	         1.22961e+58
          1344.63330	         1.15080e+58
          1345.43960	         1.39662e+58
          1346.24590	         1.24147e+58
          1347.05220	         1.04837e+58
          1347.85850	         1.03069e+58
          1348.66480	         1.25566e+58
          1349.47110	         1.13113e+58
          1350.27740	         9.95432e+57
          1351.08370	         1.17370e+58
          1351.89000	         1.21498e+58
          1352.69630	         1.26527e+58
          1353.50260	         1.32970e+58
          1354.30890	         1.27197e+58
          1355.11520	         1.22768e+58
          1355.92150	         1.17463e+58
          1356.72780	         1.05366e+58
          1357.53410	         9.97282e+57
          1358.34040	         1.02718e+58
          1359.14670	         9.91058e+57
          1359.95300	         1.05615e+58
          1360.75930	         1.18847e+58
          1361.56560	         1.09847e+58
          1362.37190	         1.14007e+58
          1363.17820	         1.10347e+58
          1363.98450	         1.05419e+58
          1364.79080	         1.31815e+58
          1365.59710	         1.52629e+58
          1366.40340	         1.33061e+58
          1367.20970	         1.10728e+58
          1368.01600	         1.06505e+58
          1368.82230	         1.00356e+58
          1369.62860	         9.65332e+57
          1370.43490	         8.91572e+57
          1371.24120	         1.01477e+58
          1372.04750	         9.13058e+57
          1372.85380	         1.18358e+58
          1373.66010	         1.25359e+58
          1374.46640	         1.20912e+58
          1375.27270	         1.17175e+58
          1376.07900	         9.53715e+57
          1376.88530	         8.65054e+57
          1377.69160	         8.57602e+57
          1378.49790	         8.30079e+57
          1379.30420	         9.67675e+57
          1380.11050	         9.86747e+57
          1380.91680	         9.14556e+57
          1381.72310	         7.46370e+57
          1382.52940	         9.90443e+57
          1383.33570	         1.21965e+58
          1384.14200	         1.15495e+58
          1384.94830	         1.04817e+58
          1385.75460	         1.16982e+58
          1386.56090	         1.21973e+58
          1387.36720	         1.07862e+58
          1388.17350	         1.08970e+58
          1388.97980	         1.06671e+58
          1389.78610	         9.44580e+57
          1390.59240	         8.00820e+57
          1391.39870	         8.41365e+57
          1392.20500	         9.36369e+57
          1393.01130	         8.31751e+57
          1393.81760	         7.22459e+57
          1394.62390	         6.79453e+57
          1395.43020	         6.75987e+57
          1396.23650	         7.79449e+57
          1397.04280	         6.72546e+57
          1397.84910	         7.34487e+57
          1398.65540	         8.94295e+57
          1399.46170	         9.46688e+57
          1400.26800	         7.33922e+57
          1401.07430	         7.42282e+57
          1401.88060	         8.76267e+57
          1402.68690	         9.32300e+57
          1403.49320	         9.14280e+57
          1404.29950	         8.14227e+57
          1405.10580	         1.04300e+58
          1405.91210	         1.22464e+58
          1406.71840	         1.07367e+58
          1407.52470	         9.56128e+57
          1408.33100	         9.62553e+57
          1409.13730	         1.21143e+58
          1409.94360	         1.19947e+58
          1410.74990	         1.16378e+58
          1411.55620	         1.09321e+58
          1412.36250	         9.47787e+57
          1413.16880	         9.93606e+57
          1413.97510	         9.54449e+57
          1414.78140	         9.97708e+57
          1415.58770	         1.12322e+58
          1416.39400	         1.06105e+58
          1417.20030	         9.35941e+57
          1418.00660	         9.48917e+57
          1418.81290	         1.01894e+58
          1419.61920	         1.05978e+58
          1420.42550	         1.34387e+58
          1421.23180	         1.49318e+58
          1422.03810	         1.38866e+58
          1422.84440	         1.09505e+58
          1423.65070	         1.18097e+58
          1424.45700	         1.19736e+58
          1425.26330	         1.07256e+58
          1426.06960	         1.06871e+58
          1426.87590	         1.08827e+58
          1427.68220	         1.00086e+58
          1428.48850	         1.00740e+58
          1429.29480	         1.10732e+58
          1430.10110	         1.08710e+58
          1430.90740	         9.53913e+57
          1431.71370	         1.07979e+58
          1432.52000	         1.07778e+58
          1433.32630	         8.25603e+57
          1434.13260	         8.35718e+57
          1434.93890	         7.64169e+57
          1435.74520	         8.48423e+57
          1436.55150	         9.47340e+57
          1437.35780	         8.99202e+57
          1438.16410	         9.17573e+57
          1438.97040	         8.75094e+57
          1439.77670	         8.41705e+57
          1440.58300	         9.12412e+57
          1441.38930	         1.00214e+58
          1442.19560	         1.05138e+58
          1443.00190	         1.03401e+58
          1443.80820	         1.03018e+58
          1444.61450	         8.92403e+57
          1445.42080	         8.59690e+57
          1446.22710	         1.05660e+58
          1447.03340	         1.05320e+58
          1447.83970	         1.07201e+58
          1448.64600	         1.10749e+58
          1449.45230	         1.06584e+58
          1450.25860	         1.01454e+58
          1451.06490	         8.93279e+57
          1451.87120	         8.31619e+57
          1452.67750	         8.42123e+57
          1453.48380	         8.86120e+57
          1454.29010	         8.79910e+57
          1455.09640	         8.93324e+57
          1455.90270	         1.03378e+58
          1456.70900	         8.69445e+57
          1457.51530	         9.44523e+57
          1458.32160	         1.24420e+58
          1459.12790	         1.18604e+58
          1459.93420	         1.04539e+58
          1460.74050	         7.60046e+57
          1461.54680	         7.87939e+57
          1462.35310	         8.60346e+57
          1463.15940	         9.68165e+57
          1463.96570	         1.19643e+58
          1464.77200	         1.30506e+58
          1465.57830	         1.18850e+58
          1466.38460	         9.93601e+57
          1467.19090	         8.69696e+57
          1467.99720	         8.92735e+57
          1468.80350	         1.01227e+58
          1469.60980	         1.07761e+58
          1470.41610	         1.21292e+58
          1471.22240	         1.01623e+58
          1472.02870	         9.41661e+57
          1472.83500	         1.07881e+58
          1473.64130	         1.13050e+58
          1474.44760	         1.03225e+58
          1475.25390	         9.37534e+57
          1476.06020	         1.01203e+58
          1476.86650	         9.19661e+57
          1477.67280	         8.10466e+57
          1478.47910	         7.33621e+57
          1479.28540	         7.53375e+57
          1480.09170	         9.50786e+57
          1480.89800	         9.97072e+57
          1481.70430	         9.44265e+57
          1482.51060	         8.15103e+57
          1483.31690	         7.78965e+57
          1484.12320	         8.16479e+57
          1484.92950	         8.32900e+57
          1485.73580	         8.70099e+57
          1486.54210	         8.81586e+57
          1487.34840	         9.91995e+57
          1488.15470	         9.13280e+57
          1488.96100	         8.22755e+57
          1489.76730	         8.95614e+57
          1490.57360	         8.73221e+57
          1491.37990	         7.15850e+57
          1492.18620	         7.40637e+57
          1492.99250	         7.65823e+57
          1493.79880	         8.10940e+57
          1494.60510	         8.70176e+57
          1495.41140	         7.57114e+57
          1496.21770	         7.98462e+57
          1497.02400	         9.67456e+57
          1497.83030	         8.78917e+57
          1498.63660	         6.38545e+57
          1499.44290	         5.75898e+57
          1500.24920	         7.19753e+57
          1501.05550	         8.61314e+57
          1501.86180	         7.59053e+57
          1502.66810	         8.80353e+57
          1503.47440	         9.48897e+57
          1504.28070	         7.45774e+57
          1505.08700	         8.56163e+57
          1505.89330	         9.96370e+57
          1506.69960	         8.66631e+57
          1507.50590	         8.05098e+57
          1508.31220	         8.71849e+57
          1509.11850	         8.82222e+57
          1509.92480	         9.93124e+57
          1510.73110	         9.28013e+57
          1511.53740	         7.34873e+57
          1512.34370	         7.19741e+57
          1513.15000	         8.77310e+57
          1513.95630	         1.04443e+58
          1514.76260	         9.21039e+57
          1515.56890	         8.28651e+57
          1516.37520	         8.01445e+57
          1517.18150	         7.63030e+57
          1517.98780	         7.85819e+57
          1518.79410	         7.27735e+57
          1519.60040	         7.27759e+57
          1520.40670	         9.18163e+57
          1521.21300	         1.06330e+58
          1522.01930	         8.72877e+57
          1522.82560	         9.11393e+57
          1523.63190	         1.06250e+58
          1524.43820	         9.82395e+57
          1525.24450	         7.05836e+57
          1526.05080	         6.16884e+57
          1526.85710	         6.16931e+57
          1527.66340	         6.53782e+57
          1528.46970	         8.23816e+57
          1529.27600	         9.02894e+57
          1530.08230	         8.19399e+57
          1530.88860	         8.27333e+57
          1531.69490	         9.45604e+57
          1532.50120	         9.72819e+57
          1533.30750	         9.87803e+57
          1534.11380	         1.05335e+58
          1534.92010	         1.04990e+58
          1535.72640	         9.77984e+57
          1536.53270	         9.71159e+57
          1537.33900	         9.53209e+57
          1538.14530	         9.21409e+57
          1538.95160	         9.66913e+57
          1539.75790	         9.48302e+57
          1540.56420	         8.95880e+57
          1541.37050	         9.42123e+57
          1542.17680	         7.72510e+57
          1542.98310	         7.96922e+57
          1543.78940	         8.26663e+57
          1544.59570	         7.63783e+57
          1545.40200	         8.28351e+57
          1546.20830	         9.55623e+57
          1547.01460	         1.17203e+58
          1547.82090	         1.11484e+58
          1548.62720	         1.17620e+58
          1549.43350	         1.16255e+58
          1550.23980	         1.01334e+58
          1551.04610	         1.24891e+58
          1551.85240	         1.28719e+58
          1552.65870	         1.27129e+58
          1553.46500	         1.10935e+58
          1554.27130	         1.04263e+58
          1555.07760	         1.09227e+58
          1555.88390	         9.66365e+57
          1556.69020	         9.73026e+57
          1557.49650	         9.86009e+57
          1558.30280	         9.23127e+57
          1559.10910	         9.39497e+57
          1559.91540	         8.90452e+57
          1560.72170	         9.26239e+57
          1561.52800	         8.77538e+57
          1562.33430	         9.35591e+57
          1563.14060	         9.13973e+57
          1563.94690	         8.74597e+57
          1564.75320	         8.69548e+57
          1565.55950	         7.72957e+57
          1566.36580	         8.12970e+57
          1567.17210	         1.04014e+58
          1567.97840	         9.78802e+57
          1568.78470	         8.80502e+57
          1569.59100	         9.45874e+57
          1570.39730	         8.64464e+57
          1571.20360	         7.58396e+57
          1572.00990	         7.45799e+57
          1572.81620	         8.77904e+57
          1573.62250	         1.04720e+58
          1574.42880	         9.01194e+57
          1575.23510	         6.74304e+57
          1576.04140	         8.84116e+57
          1576.84770	         1.05426e+58
          1577.65400	         9.76978e+57
          1578.46030	         1.04828e+58
          1579.26660	         1.08036e+58
          1580.07290	         8.86503e+57
          1580.87920	         6.86506e+57
          1581.68550	         7.60793e+57
          1582.49180	         8.73037e+57
          1583.29810	         7.92741e+57
          1584.10440	         8.21359e+57
          1584.91070	         8.50378e+57
          1585.71700	         8.34780e+57
          1586.52330	         9.26174e+57
          1587.32960	         9.11028e+57
          1588.13590	         8.59179e+57
          1588.94220	         8.64678e+57
          1589.74850	         9.69611e+57
          1590.55480	         1.04353e+58
          1591.36110	         9.14290e+57
          1592.16740	         9.12221e+57
          1592.97370	         9.20012e+57
          1593.78000	         9.04528e+57
          1594.58630	         8.71906e+57
          1595.39260	         7.95363e+57
          1596.19890	         8.68519e+57
          1597.00520	         9.98230e+57
          1597.81150	         8.67284e+57
          1598.61780	         7.01834e+57
          1599.42410	         6.90264e+57
          1600.23040	         7.10461e+57
          1601.03670	         8.02563e+57
          1601.84300	         7.57375e+57
          1602.64930	         9.18428e+57
          1603.45560	         9.65972e+57
          1604.26190	         8.82964e+57
          1605.06820	         8.91294e+57
          1605.87450	         7.81380e+57
          1606.68080	         7.23722e+57
          1607.48710	         6.28297e+57
          1608.29340	         6.57503e+57
          1609.09970	         7.68068e+57
          1609.90600	         8.72021e+57
          1610.71230	         7.67668e+57
          1611.51860	         7.09101e+57
          1612.32490	         6.12890e+57
          1613.13120	         8.26296e+57
          1613.93750	         9.72628e+57
          1614.74380	         9.51724e+57
          1615.55010	         8.74729e+57
          1616.35640	         9.12043e+57
          1617.16270	         9.12167e+57
          1617.96900	         1.01181e+58
          1618.77530	         9.45870e+57
          1619.58160	         8.62066e+57
          1620.38790	         8.07592e+57
          1621.19420	         8.16022e+57
          1622.00050	         8.07376e+57
          1622.80680	         8.94533e+57
          1623.61310	         9.06350e+57
          1624.41940	         8.70617e+57
          1625.22570	         1.00005e+58
          1626.03200	         1.00272e+58
          1626.83830	         7.92951e+57
          1627.64460	         7.44633e+57
          1628.45090	         7.50275e+57
          1629.25720	         9.24387e+57
          1630.06350	         9.93305e+57
          1630.86980	         7.13725e+57
          1631.67610	         8.53863e+57
          1632.48240	         9.44280e+57
          1633.28870	         7.77240e+57
          1634.09500	         9.84343e+57
          1634.90130	         1.16353e+58
          1635.70760	         9.08566e+57
          1636.51390	         8.02309e+57
          1637.32020	         8.86575e+57
          1638.12650	         9.74320e+57
          1638.93280	         1.02392e+58
          1639.73910	         1.16818e+58
          1640.54540	         1.19634e+58
          1641.35170	         1.03567e+58
          1642.15800	         1.09827e+58
          1642.96430	         9.73116e+57
          1643.77060	         8.47589e+57
          1644.57690	         9.24560e+57
          1645.38320	         8.58803e+57
          1646.18950	         7.16218e+57
          1646.99580	         8.81952e+57
          1647.80210	         8.95897e+57
          1648.60840	         8.82833e+57
          1649.41470	         8.77442e+57
          1650.22100	         6.81606e+57
          1651.02730	         6.98432e+57
          1651.83360	         7.14251e+57
          1652.63990	         8.04206e+57
          1653.44620	         9.09825e+57
          1654.25250	         8.36486e+57
          1655.05880	         7.59874e+57
          1655.86510	         8.09113e+57
          1656.67140	         8.77182e+57
          1657.47770	         8.52362e+57
          1658.28400	         8.24272e+57
          1659.09030	         8.97250e+57
          1659.89660	         9.86791e+57
          1660.70290	         1.03417e+58
          1661.50920	         9.40102e+57
          1662.31550	         8.90380e+57
          1663.12180	         8.98911e+57
          1663.92810	         9.53753e+57
          1664.73440	         1.13603e+58
          1665.54070	         1.24569e+58
          1666.34700	         1.34450e+58
          1667.15330	         1.22227e+58
          1667.95960	         1.00202e+58
          1668.76590	         7.50719e+57
          1669.57220	         6.73894e+57
          1670.37850	         7.00485e+57
          1671.18480	         7.58051e+57
          1671.99110	         7.65815e+57
          1672.79740	         6.56459e+57
          1673.60370	         6.22660e+57
          1674.41000	         6.58816e+57
          1675.21630	         6.83314e+57
          1676.02260	         6.64783e+57
          1676.82890	         6.25229e+57
          1677.63520	         7.16292e+57
          1678.44150	         7.31474e+57
          1679.24780	         8.63918e+57
          1680.05410	         7.59922e+57
          1680.86040	         5.63782e+57
          1681.66670	         6.19188e+57
          1682.47300	         8.06135e+57
          1683.27930	         8.62255e+57
          1684.08560	         8.90456e+57
          1684.89190	         7.80064e+57
          1685.69820	         5.58572e+57
          1686.50450	         6.09774e+57
          1687.31080	         7.65877e+57
          1688.11710	         7.38085e+57
          1688.92340	         5.92895e+57
          1689.72970	         7.11866e+57
          1690.53600	         7.78392e+57
          1691.34230	         7.75618e+57
          1692.14860	         8.12141e+57
          1692.95490	         7.75707e+57
          1693.76120	         8.08990e+57
          1694.56750	         7.82503e+57
          1695.37380	         8.79714e+57
          1696.18010	         8.88313e+57
          1696.98640	         8.81907e+57
          1697.79270	         8.65147e+57
          1698.59900	         8.35364e+57
          1699.40530	         6.77492e+57
          1700.21160	         7.13106e+57
          1701.01790	         8.35155e+57
          1701.82420	         7.80029e+57
          1702.63050	         7.96604e+57
          1703.43680	         8.32442e+57
          1704.24310	         8.33810e+57
          1705.04940	         8.63261e+57
          1705.85570	         8.29703e+57
          1706.66200	         8.39472e+57
          1707.46830	         7.91171e+57
          1708.27460	         7.33914e+57
          1709.08090	         6.81990e+57
          1709.88720	         6.99589e+57
          1710.69350	         7.36866e+57
          1711.49980	         7.20814e+57
          1712.30610	         7.52141e+57
          1713.11240	         8.80777e+57
          1713.91870	         8.70375e+57
          1714.72500	         9.28897e+57
          1715.53130	         9.52950e+57
          1716.33760	         7.57311e+57
          1717.14390	         6.53515e+57
          1717.95020	         8.42598e+57
          1718.75650	         8.93814e+57
          1719.56280	         9.14973e+57
          1720.36910	         8.75227e+57
          1721.17540	         8.42693e+57
          1721.98170	         6.95903e+57
          1722.78800	         6.63072e+57
          1723.59430	         8.01661e+57
          1724.40060	         9.54912e+57
          1725.20690	         8.71289e+57
          1726.01320	         8.03648e+57
          1726.81950	         8.24440e+57
          1727.62580	         7.60092e+57
          1728.43210	         7.34797e+57
          1729.23840	         8.31534e+57
          1730.04470	         9.12543e+57
          1730.85100	         8.60700e+57
          1731.65730	         7.67278e+57
          1732.46360	         8.36141e+57
          1733.26990	         8.25112e+57
          1734.07620	         7.94502e+57
          1734.88250	         7.84299e+57
          1735.68880	         8.86005e+57
          1736.49510	         8.30950e+57
          1737.30140	         7.40406e+57
          1738.10770	         6.42019e+57
          1738.91400	         7.24489e+57
          1739.72030	         8.07034e+57
          1740.52660	         6.77896e+57
          1741.33290	         6.19353e+57
          1742.13920	         6.83798e+57
          1742.94550	         7.01865e+57
          1743.75180	         7.57700e+57
          1744.55810	         8.02000e+57
          1745.36440	         7.02575e+57
          1746.17070	         6.34083e+57
          1746.97700	         5.78762e+57
          1747.78330	         7.63398e+57
          1748.58960	         7.63190e+57
          1749.39590	         6.46114e+57
          1750.20220	         6.25076e+57
          1751.00850	         5.64945e+57
          1751.81480	         6.67350e+57
          1752.62110	         7.61239e+57
          1753.42740	         8.71982e+57
          1754.23370	         7.21650e+57
          1755.04000	         5.79845e+57
          1755.84630	         6.70622e+57
          1756.65260	         8.34441e+57
          1757.45890	         8.54343e+57
          1758.26520	         7.30353e+57
          1759.07150	         8.50919e+57
          1759.87780	         8.73709e+57
          1760.68410	         9.05411e+57
          1761.49040	         9.95832e+57
          1762.29670	         7.42239e+57
          1763.10300	         7.86057e+57
          1763.90930	         9.21335e+57
          1764.71560	         9.02767e+57
          1765.52190	         8.26701e+57
          1766.32820	         9.36355e+57
          1767.13450	         7.84176e+57
          1767.94080	         7.09146e+57
          1768.74710	         8.35791e+57
          1769.55340	         7.77335e+57
          1770.35970	         6.43390e+57
          1771.16600	         7.89146e+57
          1771.97230	         8.79913e+57
          1772.77860	         8.57894e+57
          1773.58490	         7.61911e+57
          1774.39120	         6.09711e+57
          1775.19750	         5.98315e+57
          1776.00380	         6.08248e+57
          1776.81010	         7.26758e+57
          1777.61640	         7.43547e+57
          1778.42270	         6.97764e+57
          1779.22900	         6.50951e+57
          1780.03530	         6.94525e+57
          1780.84160	         7.76875e+57
          1781.64790	         8.55677e+57
          1782.45420	         7.40993e+57
          1783.26050	         6.77317e+57
          1784.06680	         7.07966e+57
          1784.87310	         7.62600e+57
          1785.67940	         7.83597e+57
          1786.48570	         6.80692e+57
          1787.29200	         5.85920e+57
          1788.09830	         6.90696e+57
          1788.90460	         6.46431e+57
          1789.71090	         4.96552e+57
          1790.51720	         4.60943e+57
          1791.32350	         5.91592e+57
          1792.12980	         8.11132e+57
          1792.93610	         7.90576e+57
          1793.74240	         7.79726e+57
          1794.54870	         8.63042e+57
          1795.35500	         8.73344e+57
          1796.16130	         8.13464e+57
          1796.96760	         7.32056e+57
          1797.77390	         6.80323e+57
          1798.58020	         7.32558e+57
          1799.38650	         6.12449e+57
          1800.19280	         7.24214e+57
          1800.99910	         8.62669e+57
          1801.80540	         8.31661e+57
          1802.61170	         8.79523e+57
          1803.41800	         7.76251e+57
          1804.22430	         7.11475e+57
          1805.03060	         6.95236e+57
          1805.83690	         7.60151e+57
          1806.64320	         8.91829e+57
          1807.44950	         9.91127e+57
          1808.25580	         8.17380e+57
          1809.06210	         8.89731e+57
          1809.86840	         7.36250e+57
          1810.67470	         7.76310e+57
          1811.48100	         9.17947e+57
          1812.28730	         9.21096e+57
          1813.09360	         8.05743e+57
          1813.89990	         8.03224e+57
          1814.70620	         8.17020e+57
          1815.51250	         9.25018e+57
          1816.31880	         8.75169e+57
          1817.12510	         8.03684e+57
          1817.93140	         6.12062e+57
          1818.73770	         7.11243e+57
          1819.54400	         8.28600e+57
          1820.35030	         8.40959e+57
          1821.15660	         7.47059e+57
          1821.96290	         6.42982e+57
          1822.76920	         7.11833e+57
          1823.57550	         7.99570e+57
          1824.38180	         8.17710e+57
          1825.18810	         8.57685e+57
          1825.99440	         8.99884e+57
          1826.80070	         8.18869e+57
          1827.60700	         6.53989e+57
          1828.41330	         5.85754e+57
          1829.21960	         5.98386e+57
          1830.02590	         7.04178e+57
          1830.83220	         7.87953e+57
          1831.63850	         7.64028e+57
          1832.44480	         7.96194e+57
          1833.25110	         8.45850e+57
          1834.05740	         8.52490e+57
          1834.86370	         7.50450e+57
          1835.67000	         6.58131e+57
          1836.47630	         7.05660e+57
          1837.28260	         8.36951e+57
          1838.08890	         9.49937e+57
          1838.89520	         8.51857e+57
          1839.70150	         6.97578e+57
          1840.50780	         7.30664e+57
          1841.31410	         6.71732e+57
          1842.12040	         7.03387e+57
          1842.92670	         7.75151e+57
          1843.73300	         6.40913e+57
          1844.53930	         6.38532e+57
          1845.34560	         6.55028e+57
          1846.15190	         6.58869e+57
          1846.95820	         7.86629e+57
          1847.76450	         8.45941e+57
          1848.57080	         6.39529e+57
          1849.37710	         6.02133e+57
          1850.18340	         6.95744e+57
          1850.98970	         8.10520e+57
          1851.79600	         7.94898e+57
          1852.60230	         7.65467e+57
          1853.40860	         7.06460e+57
          1854.21490	         6.30634e+57
          1855.02120	         5.72177e+57
          1855.82750	         5.08188e+57
          1856.63380	         5.56273e+57
          1857.44010	         7.31390e+57
          1858.24640	         6.64654e+57
          1859.05270	         7.77713e+57
          1859.85900	         5.98932e+57
          1860.66530	         6.54791e+57
          1861.47160	         7.63655e+57
          1862.27790	         7.99483e+57
          1863.08420	         7.41423e+57
          1863.89050	         7.93359e+57
          1864.69680	         7.83584e+57
          1865.50310	         6.76903e+57
          1866.30940	         6.96117e+57
          1867.11570	         7.00753e+57
          1867.92200	         8.16882e+57
          1868.72830	         8.01734e+57
          1869.53460	         7.42896e+57
          1870.34090	         7.94895e+57
          1871.14720	         7.99584e+57
          1871.95350	         6.98066e+57
          1872.75980	         7.74623e+57
          1873.56610	         8.00557e+57
          1874.37240	         6.74966e+57
          1875.17870	         6.37418e+57
          1875.98500	         7.55337e+57
          1876.79130	         8.50274e+57
          1877.59760	         7.63385e+57
          1878.40390	         6.23044e+57
          1879.21020	         6.37748e+57
          1880.01650	         7.30995e+57
          1880.82280	         8.65895e+57
          1881.62910	         9.17256e+57
          1882.43540	         9.42379e+57
          1883.24170	         8.05261e+57
          1884.04800	         6.58293e+57
          1884.85430	         7.79964e+57
          1885.66060	         8.86203e+57
          1886.46690	         8.56273e+57
          1887.27320	         8.15194e+57
          1888.07950	         6.06817e+57
          1888.88580	         6.59094e+57
          1889.69210	         8.05322e+57
          1890.49840	         8.93123e+57
          1891.30470	         8.67513e+57
          1892.11100	         8.42018e+57
          1892.91730	         7.86009e+57
          1893.72360	         7.92951e+57
          1894.52990	         8.05249e+57
          1895.33620	         7.79361e+57
          1896.14250	         7.04452e+57
          1896.94880	         6.68417e+57
          1897.75510	         4.63049e+57
          1898.56140	         6.14660e+57
          1899.36770	         8.13402e+57
          1900.17400	         6.79172e+57
          1900.98030	         6.24946e+57
          1901.78660	         7.11720e+57
          1902.59290	         7.77978e+57
          1903.39920	         8.22260e+57
          1904.20550	         8.94591e+57
          1905.01180	         8.52789e+57
          1905.81810	         9.11489e+57
          1906.62440	         1.19893e+58
          1907.43070	         1.48970e+58
          1908.23700	         1.68109e+58
          1909.04330	         1.34864e+58
          1909.84960	         1.14283e+58
          1910.65590	         1.08160e+58
          1911.46220	         1.03288e+58
          1912.26850	         8.93288e+57
          1913.07480	         6.47172e+57
          1913.88110	         5.78029e+57
          1914.68740	         5.72329e+57
          1915.49370	         5.14298e+57
          1916.30000	         6.45690e+57
          1917.10630	         7.54886e+57
          1917.91260	         7.04516e+57
          1918.71890	         6.57108e+57
          1919.52520	         6.20736e+57
          1920.33150	         5.78651e+57
          1921.13780	         7.20405e+57
          1921.94410	         7.84255e+57
          1922.75040	         7.39869e+57
          1923.55670	         8.24111e+57
          1924.36300	         7.80793e+57
          1925.16930	         6.57780e+57
          1925.97560	         6.32437e+57
          1926.78190	         5.54260e+57
          1927.58820	         6.26616e+57
          1928.39450	         6.84280e+57
          1929.20080	         5.71191e+57
          1930.00710	         6.81123e+57
          1930.81340	         7.81334e+57
          1931.61970	         6.12834e+57
          1932.42600	         7.05322e+57
          1933.23230	         9.34139e+57
          1934.03860	         7.40541e+57
          1934.84490	         6.97979e+57
          1935.65120	         8.13865e+57
          1936.45750	         8.82866e+57
          1937.26380	         7.22391e+57
          1938.07010	         6.79466e+57
          1938.87640	         7.05175e+57
          1939.68270	         8.15123e+57
          1940.48900	         7.85296e+57
          1941.29530	         9.05760e+57
          1942.10160	         8.52874e+57
          1942.90790	         7.17808e+57
          1943.71420	         6.96369e+57
          1944.52050	         7.64347e+57
          1945.32680	         5.92477e+57
          1946.13310	         6.35586e+57
          1946.93940	         8.52910e+57
          1947.74570	         7.26880e+57
          1948.55200	         6.16702e+57
          1949.35830	         5.95678e+57
          1950.16460	         6.79340e+57
          1950.97090	         7.41139e+57
          1951.77720	         8.48637e+57
          1952.58350	         8.36893e+57
          1953.38980	         6.45025e+57
          1954.19610	         4.55598e+57
          1955.00240	         5.00694e+57
          1955.80870	         6.19686e+57
          1956.61500	         6.42115e+57
          1957.42130	         6.58408e+57
          1958.22760	         6.91481e+57
          1959.03390	         7.36968e+57
          1959.84020	         7.05613e+57
          1960.64650	         7.04885e+57
          1961.45280	         6.97277e+57
          1962.25910	         5.69111e+57
          1963.06540	         6.01419e+57
          1963.87170	         6.84962e+57
          1964.67800	         7.97334e+57
          1965.48430	         5.74681e+57
          1966.29060	         5.06858e+57
          1967.09690	         7.98011e+57
          1967.90320	         8.05082e+57
          1968.70950	         8.57070e+57
          1969.51580	         6.87178e+57
          1970.32210	         7.00148e+57
          1971.12840	         7.91868e+57
          1971.93470	         6.38986e+57
          1972.74100	         5.35716e+57
          1973.54730	         7.47903e+57
          1974.35360	         8.19281e+57
          1975.15990	         7.42268e+57
          1975.96620	         5.57252e+57
          1976.77250	         7.62320e+57
          1977.57880	         8.36352e+57
          1978.38510	         6.08160e+57
          1979.19140	         7.23847e+57
          1979.99770	         8.09865e+57
          1980.80400	         7.68219e+57
          1981.61030	         7.08503e+57
          1982.41660	         6.39665e+57
          1983.22290	         6.47105e+57
          1984.02920	         4.83143e+57
          1984.83550	         5.45365e+57
          1985.64180	         6.89234e+57
          1986.44810	         6.51705e+57
          1987.25440	         5.96973e+57
          1988.06070	         5.93634e+57
          1988.86700	         6.72206e+57
          1989.67330	         7.88764e+57
          1990.47960	         6.50245e+57
          1991.28590	         6.63949e+57
          1992.09220	         6.74670e+57
          1992.89850	         6.22827e+57
          1993.70480	         6.64064e+57
          1994.51110	         5.44873e+57
          1995.31740	         4.37012e+57
          1996.12370	         4.77203e+57
          1996.93000	         5.33488e+57
          1997.73630	         7.02907e+57
          1998.54260	         8.11152e+57
          1999.34890	         7.89055e+57
          2000.15520	         7.76074e+57
          2000.96150	         7.28442e+57
          2001.76780	         6.16840e+57
          2002.57410	         4.29344e+57
          2003.38040	         6.22640e+57
          2004.18670	         6.81187e+57
          2004.99300	         6.39152e+57
          2005.79930	         7.05035e+57
          2006.60560	         6.93833e+57
          2007.41190	         6.08658e+57
          2008.21820	         6.47011e+57
          2009.02450	         6.41174e+57
          2009.83080	         6.35803e+57
          2010.63710	         7.12820e+57
          2011.44340	         7.05304e+57
          2012.24970	         6.34153e+57
          2013.05600	         6.40702e+57
          2013.86230	         6.19538e+57
          2014.66860	         5.97444e+57
          2015.47490	         6.15126e+57
          2016.28120	         5.78187e+57
          2017.08750	         6.83546e+57
          2017.89380	         6.16700e+57
          2018.70010	         5.77088e+57
          2019.50640	         5.91534e+57
          2020.31270	         7.35319e+57
          2021.11900	         7.21941e+57
          2021.92530	         5.98301e+57
          2022.73160	         7.37927e+57
          2023.53790	         7.98215e+57
          2024.34420	         6.03249e+57
          2025.15050	         6.29307e+57
          2025.95680	         6.21631e+57
          2026.76310	         6.63528e+57
          2027.56940	         7.00087e+57
          2028.37570	         6.03532e+57
          2029.18200	         6.50934e+57
          2029.98830	         8.31608e+57
          2030.79460	         7.70027e+57
          2031.60090	         6.75805e+57
          2032.40720	         5.59663e+57
          2033.21350	         6.10188e+57
          2034.01980	         5.39608e+57
          2034.82610	         5.08579e+57
          2035.63240	         5.97539e+57
          2036.43870	         7.19990e+57
          2037.24500	         6.98604e+57
          2038.05130	         7.74576e+57
          2038.85760	         6.91698e+57
          2039.66390	         6.93313e+57
          2040.47020	         6.24181e+57
          2041.27650	         6.64764e+57
          2042.08280	         5.04963e+57
          2042.88910	         6.36407e+57
          2043.69540	         7.68101e+57
          2044.50170	         7.59018e+57
          2045.30800	         5.92029e+57
          2046.11430	         3.77959e+57
          2046.92060	         4.67939e+57
          2047.72690	         7.23018e+57
          2048.53320	         7.49381e+57
          2049.33950	         4.39142e+57
          2050.14580	         5.05283e+57
          2050.95210	         7.78185e+57
          2051.75840	         7.81110e+57
          2052.56470	         6.23821e+57
          2053.37100	         4.25400e+57
          2054.17730	         4.19281e+57
          2054.98360	         5.03574e+57
          2055.78990	         4.13017e+57
          2056.59620	         3.17576e+57
          2057.40250	         5.28547e+57
          2058.20880	         6.50067e+57
          2059.01510	         6.01248e+57
          2059.82140	         6.87369e+57
          2060.62770	         1.05707e+58
          2061.43400	         1.59395e+58
          2062.24030	         1.17327e+58
          2063.04660	         1.67700e+57
          2063.85290	        -4.67832e+56
          2064.65920	        -2.84848e+57
          2065.46550	        -9.98104e+57
          2066.27180	        -7.10123e+57
          2067.07810	         5.15780e+56
          2067.88440	         4.23697e+57
          2068.69070	         5.19316e+57
          2069.49700	         5.67177e+57
          2070.30330	         5.78224e+57
          2071.10960	         7.75424e+57
          2071.91590	         6.26294e+57
          2072.72220	         3.85940e+57
          2073.52850	         3.79886e+57
          2074.33480	         4.17136e+57
          2075.14110	         5.11324e+57
          2075.94740	         4.89979e+57
          2076.75370	         5.18406e+57
          2077.56000	         4.98370e+57
          2078.36630	         5.28375e+57
          2079.17260	         5.90544e+57
          2079.97890	         6.12413e+57
          2080.78520	         4.99957e+57
          2081.59150	         4.20023e+57
          2082.39780	         4.57003e+57
          2083.20410	         2.66783e+57
          2084.01040	         2.78856e+57
          2084.81670	         3.46414e+57
          2085.62300	         2.36433e+57
          2086.42930	         2.14605e+57
          2087.23560	         4.16387e+57
          2088.04190	         5.00822e+57
          2088.84820	         1.98770e+57
          2089.65450	         3.83666e+57
          2090.46080	         2.45510e+57
          2091.26710	         3.98459e+57
          2092.07340	         4.73661e+57
          2092.87970	         2.75846e+57
          2093.68600	        -2.05330e+57
          2094.49230	         8.94397e+56
          2095.29860	         4.42434e+57
          2096.10490	         1.89745e+57
          2096.91120	         1.85013e+57
          2097.71750	         1.38021e+57
          2098.52380	        -4.05942e+56
          2099.33010	         7.55844e+56
          2100.13640	         1.87113e+57
          2100.94270	         2.48071e+57
          2101.74900	         3.01326e+57
          2102.55530	         4.21078e+57
          2103.36160	         4.22128e+57
          2104.16790	         3.36048e+57
          2104.97420	         1.11785e+57
          2105.78050	         1.06461e+57
          2106.58680	        -1.14901e+57
          2107.39310	        -2.08544e+57
          2108.19940	        -7.76219e+56
          2109.00570	        -2.12554e+57
          2109.81200	        -3.25747e+57
          2110.61830	        -3.06588e+57
          2111.42460	         1.51553e+57
          2112.23090	         3.24259e+57
          2113.03720	        -1.44389e+56
          2113.84350	        -1.27220e+57
          2114.64980	         3.10849e+57
          2115.45610	        -1.19348e+57
          2116.26240	        -3.51150e+57
          2117.06870	        -2.55271e+57
          2117.87500	        -1.12645e+57
          2118.68130	         4.25650e+57
          2119.48760	         3.58916e+57
          2120.29390	         4.42969e+57
          2121.10020	        -4.54146e+56
          2121.90650	         4.27498e+56
          2122.71280	        -9.24306e+56
          2123.51910	         3.54782e+57
          2124.32540	         1.58371e+56
          2125.13170	        -1.91397e+57
          2125.93800	         2.93864e+57
          2126.74430	         7.54944e+56
          2127.55060	        -6.37514e+57
          2128.35690	        -2.26878e+57
          2129.16320	        -4.59157e+57
          2129.96950	        -1.80427e+57
          2130.77580	         2.75960e+57
          2131.58210	        -3.20476e+57
          2132.38840	        -2.47058e+57
          2133.19470	        -3.28565e+57
          2134.00100	        -3.34024e+57
          2134.80730	        -8.43844e+57
          2135.61360	        -1.36890e+57
          2136.41990	         2.06629e+57
          2137.22620	         5.67568e+57
          2138.03250	         1.97191e+57
          2138.83880	        -1.38295e+57
          2139.64510	         5.08432e+56
          2140.45140	         1.90246e+57
          2141.25770	        -7.64088e+57
          2142.06400	        -6.41107e+57
          2142.87030	         7.03642e+57
          2143.67660	         1.12601e+58
          2144.48290	         3.71044e+57
          2145.28920	         3.22526e+57
          2146.09550	        -8.55068e+57
          2146.90180	        -1.19431e+58
          2147.70810	        -5.48493e+57
          2148.51440	        -6.76458e+56
          2149.32070	        -1.05535e+58
          2150.12700	        -1.55192e+58
          2150.93330	        -6.65378e+57
          2151.73960	        -3.45000e+56
          2152.54590	        -4.00689e+57
          2153.35220	         4.73937e+56
          2154.15850	        -2.68326e+56
          2154.96480	        -4.40889e+57
          2155.77110	        -1.37435e+58
          2156.57740	        -1.06848e+58
          2157.38370	        -1.27250e+57
          2158.19000	         3.30204e+56
          2158.99630	        -1.60413e+57
          2159.80260	        -1.26949e+58
          2160.60890	        -1.58572e+58
          2161.41520	         4.21712e+57
          2162.22150	        -1.37624e+58
          2163.02780	        -7.21429e+57
          2163.83410	        -2.44899e+57
          2164.64040	        -9.92141e+57
          2165.44670	        -1.46763e+58
          2166.25300	        -9.40305e+57
          2167.05930	         4.87054e+55
          2167.86560	        -2.94128e+57
          2168.67190	        -7.64931e+57
          2169.47820	        -8.56592e+57
          2170.28450	        -1.03842e+58
          2171.09080	         2.29866e+57
          2171.89710	        -2.85603e+57
          2172.70340	         1.32806e+57
          2173.50970	        -5.47158e+57
          2174.31600	        -1.75158e+57
          2175.12230	        -1.50390e+57
          2175.92860	        -4.89448e+57
          2176.73490	        -3.82687e+57
          2177.54120	        -8.04030e+57
          2178.34750	        -5.41209e+57
          2179.15380	                 nan
          2179.96010	                 nan
          2180.76640	                 nan
          2181.57270	                 nan
          2182.37900	                 nan
          2183.18530	                 nan
          2183.99160	                 nan
          2184.79790	                 nan
          2185.60420	                 nan
          2186.41050	                 nan
          2187.21680	                 nan
          2188.02310	                 nan
          2188.82940	                 nan
          2189.63570	                 nan
          2190.44200	                 nan
          2191.24830	                 nan
          2192.05460	                 nan
          2192.86090	                 nan
          2193.66720	                 nan
          2194.47350	                 nan
          2195.27980	                 nan
          2196.08610	                 nan
          2196.89240	                 nan
          2197.69870	                 nan
          2198.50500	                 nan
          2199.31130	                 nan
          2200.11760	                 nan
          2200.92390	                 nan
          2201.73020	                 nan
          2202.53650	                 nan
          2203.34280	                 nan
          2204.14910	                 nan
          2204.95540	                 nan
          2205.76170	                 nan
          2206.56800	                 nan
          2207.37430	                 nan
          2208.18060	                 nan
          2208.98690	                 nan
          2209.79320	                 nan
          2210.59950	                 nan
          2211.40580	                 nan
          2212.21210	                 nan
          2213.01840	                 nan
          2213.82470	                 nan
          2214.63100	                 nan
          2215.43730	         0.00000e+00
