#sample_154_stacked_spectrum_rest_UV-bands_median_H-alpha_noDC.txt
#median Lum: 1.73466e+42
#Rest-frame wavelength (A) | Luminosity (erg/s/A)
#
          1110.00000	         0.00000e+00
          1110.80630	         3.62553e+59
          1111.61260	        -4.15699e+58
          1112.41890	         6.54674e+58
          1113.22520	        -9.22545e+57
          1114.03150	        -7.65487e+58
          1114.83780	         3.07859e+58
          1115.64410	         9.47385e+58
          1116.45040	         3.00993e+59
          1117.25670	        -2.86004e+58
          1118.06300	         5.50688e+58
          1118.86930	        -1.27955e+58
          1119.67560	         7.60096e+58
          1120.48190	         1.16317e+59
          1121.28820	        -1.12273e+59
          1122.09450	        -1.21721e+58
          1122.90080	        -1.48280e+58
          1123.70710	         3.53327e+58
          1124.51340	         6.41386e+58
          1125.31970	         1.85651e+58
          1126.12600	         1.73129e+58
          1126.93230	        -2.02920e+58
          1127.73860	        -1.51924e+58
          1128.54490	         9.94674e+57
          1129.35120	         1.33942e+57
          1130.15750	        -3.79777e+58
          1130.96380	        -2.30360e+58
          1131.77010	         5.08219e+58
          1132.57640	         5.47150e+58
          1133.38270	         4.64789e+58
          1134.18900	         3.43310e+58
          1134.99530	         2.07257e+58
          1135.80160	        -6.73478e+57
          1136.60790	         1.53887e+58
          1137.41420	        -4.30372e+57
          1138.22050	         3.85895e+58
          1139.02680	         3.69453e+58
          1139.83310	         2.54514e+58
          1140.63940	         2.57070e+58
          1141.44570	         8.56920e+57
          1142.25200	         2.16823e+58
          1143.05830	         2.06197e+58
          1143.86460	         1.45100e+58
          1144.67090	         2.98561e+58
          1145.47720	         2.53219e+58
          1146.28350	         1.26103e+58
          1147.08980	         1.78556e+58
          1147.89610	         1.09717e+58
          1148.70240	         2.85424e+58
          1149.50870	         2.96851e+58
          1150.31500	         4.23427e+57
          1151.12130	        -1.68732e+56
          1151.92760	        -6.27282e+57
          1152.73390	         1.52093e+57
          1153.54020	         3.47386e+57
          1154.34650	         2.97637e+58
          1155.15280	         3.03305e+58
          1155.95910	         1.75891e+58
          1156.76540	         9.44188e+57
          1157.57170	         2.94540e+57
          1158.37800	         1.52578e+57
          1159.18430	        -2.73902e+57
          1159.99060	         3.12469e+57
          1160.79690	         2.56798e+57
          1161.60320	         6.27021e+57
          1162.40950	         1.89456e+58
          1163.21580	         2.04219e+58
          1164.02210	         1.40120e+58
          1164.82840	         5.67819e+57
          1165.63470	         2.04999e+58
          1166.44100	         3.32349e+58
          1167.24730	         2.42253e+58
          1168.05360	         7.50520e+57
          1168.85990	         4.79778e+57
          1169.66620	         5.17449e+57
          1170.47250	         1.31173e+58
          1171.27880	         1.26876e+58
          1172.08510	         1.59836e+58
          1172.89140	         1.74708e+58
          1173.69770	         1.02294e+58
          1174.50400	         1.26447e+58
          1175.31030	         1.19072e+58
          1176.11660	         1.82502e+58
          1176.92290	         1.42847e+58
          1177.72920	         1.33671e+58
          1178.53550	         8.58703e+57
          1179.34180	         6.26502e+57
          1180.14810	         4.54482e+57
          1180.95440	         6.34596e+57
          1181.76070	         5.86254e+57
          1182.56700	         6.79634e+57
          1183.37330	         5.80250e+57
          1184.17960	         1.61245e+58
          1184.98590	         1.46041e+58
          1185.79220	         9.88978e+57
          1186.59850	         1.27220e+58
          1187.40480	         1.35619e+58
          1188.21110	         1.34473e+58
          1189.01740	         1.03598e+58
          1189.82370	         7.84466e+57
          1190.63000	         1.04901e+58
          1191.43630	         1.16135e+58
          1192.24260	         8.83620e+57
          1193.04890	         1.40810e+58
          1193.85520	         1.17187e+58
          1194.66150	         1.19473e+57
          1195.46780	         2.36402e+57
          1196.27410	         1.36654e+58
          1197.08040	         1.47451e+58
          1197.88670	         1.44221e+58
          1198.69300	         1.56110e+58
          1199.49930	         1.59362e+58
          1200.30560	         9.13941e+57
          1201.11190	         8.81612e+57
          1201.91820	         9.79581e+57
          1202.72450	         5.80823e+57
          1203.53080	         1.34636e+58
          1204.33710	         1.18163e+58
          1205.14340	         8.34450e+57
          1205.94970	         7.34304e+57
          1206.75600	         6.75527e+57
          1207.56230	         5.06069e+57
          1208.36860	         1.05472e+58
          1209.17490	         6.01092e+57
          1209.98120	         5.31957e+57
          1210.78750	         5.49628e+57
          1211.59380	         5.11640e+57
          1212.40010	         1.35354e+58
          1213.20640	         2.09979e+58
          1214.01270	         2.09938e+58
          1214.81900	         2.68942e+58
          1215.62530	         5.13260e+58
          1216.43160	         9.50346e+58
          1217.23790	         1.53206e+59
          1218.04420	         1.14584e+59
          1218.85050	         8.70633e+58
          1219.65680	         5.61604e+58
          1220.46310	         3.42388e+58
          1221.26940	         2.34498e+58
          1222.07570	         1.37045e+58
          1222.88200	         9.93011e+57
          1223.68830	         8.20626e+57
          1224.49460	         8.74571e+57
          1225.30090	         7.87836e+57
          1226.10720	         8.13962e+57
          1226.91350	         6.33070e+57
          1227.71980	         6.10817e+57
          1228.52610	         1.25125e+58
          1229.33240	         1.04505e+58
          1230.13870	         9.54705e+57
          1230.94500	         7.79343e+57
          1231.75130	         8.77195e+57
          1232.55760	         1.07899e+58
          1233.36390	         9.87069e+57
          1234.17020	         8.87052e+57
          1234.97650	         9.96866e+57
          1235.78280	         9.04229e+57
          1236.58910	         8.94917e+57
          1237.39540	         1.03843e+58
          1238.20170	         9.77036e+57
          1239.00800	         1.06266e+58
          1239.81430	         1.39789e+58
          1240.62060	         1.16541e+58
          1241.42690	         1.03034e+58
          1242.23320	         1.10778e+58
          1243.03950	         7.67787e+57
          1243.84580	         1.07488e+58
          1244.65210	         9.40503e+57
          1245.45840	         5.70558e+57
          1246.26470	         6.33579e+57
          1247.07100	         5.23265e+57
          1247.87730	         5.92604e+57
          1248.68360	         5.96488e+57
          1249.48990	         9.64824e+57
          1250.29620	         8.77206e+57
          1251.10250	         7.62520e+57
          1251.90880	         7.04958e+57
          1252.71510	         5.83810e+57
          1253.52140	         5.65149e+57
          1254.32770	         7.66675e+57
          1255.13400	         1.23163e+58
          1255.94030	         1.03447e+58
          1256.74660	         8.93707e+57
          1257.55290	         1.02141e+58
          1258.35920	         6.95916e+57
          1259.16550	         4.24277e+57
          1259.97180	         7.12675e+57
          1260.77810	         9.67690e+57
          1261.58440	         8.42347e+57
          1262.39070	         8.67987e+57
          1263.19700	         1.01611e+58
          1264.00330	         9.56301e+57
          1264.80960	         1.18669e+58
          1265.61590	         1.15314e+58
          1266.42220	         1.11113e+58
          1267.22850	         1.00856e+58
          1268.03480	         1.32662e+58
          1268.84110	         1.49210e+58
          1269.64740	         1.40844e+58
          1270.45370	         1.19972e+58
          1271.26000	         9.98454e+57
          1272.06630	         1.24069e+58
          1272.87260	         1.36991e+58
          1273.67890	         1.47550e+58
          1274.48520	         1.42240e+58
          1275.29150	         1.32317e+58
          1276.09780	         1.01776e+58
          1276.90410	         1.25028e+58
          1277.71040	         1.39422e+58
          1278.51670	         1.28791e+58
          1279.32300	         1.24008e+58
          1280.12930	         1.27533e+58
          1280.93560	         1.21618e+58
          1281.74190	         1.21505e+58
          1282.54820	         1.43820e+58
          1283.35450	         1.24655e+58
          1284.16080	         1.17296e+58
          1284.96710	         1.47273e+58
          1285.77340	         1.17006e+58
          1286.57970	         1.08755e+58
          1287.38600	         1.43084e+58
          1288.19230	         1.64354e+58
          1288.99860	         1.53182e+58
          1289.80490	         1.01774e+58
          1290.61120	         1.24300e+58
          1291.41750	         1.50070e+58
          1292.22380	         1.13489e+58
          1293.03010	         1.14351e+58
          1293.83640	         1.28515e+58
          1294.64270	         9.32252e+57
          1295.44900	         6.69927e+57
          1296.25530	         7.61193e+57
          1297.06160	         9.65821e+57
          1297.86790	         9.14354e+57
          1298.67420	         7.32097e+57
          1299.48050	         9.86274e+57
          1300.28680	         1.31825e+58
          1301.09310	         1.03997e+58
          1301.89940	         5.53821e+57
          1302.70570	         5.42126e+57
          1303.51200	         7.26490e+57
          1304.31830	         9.73676e+57
          1305.12460	         1.04702e+58
          1305.93090	         1.19514e+58
          1306.73720	         1.34236e+58
          1307.54350	         1.28188e+58
          1308.34980	         1.40387e+58
          1309.15610	         1.53569e+58
          1309.96240	         1.51061e+58
          1310.76870	         1.14613e+58
          1311.57500	         9.06158e+57
          1312.38130	         1.07841e+58
          1313.18760	         1.12168e+58
          1313.99390	         1.43547e+58
          1314.80020	         1.55059e+58
          1315.60650	         1.37545e+58
          1316.41280	         1.29074e+58
          1317.21910	         1.29114e+58
          1318.02540	         1.20646e+58
          1318.83170	         1.23524e+58
          1319.63800	         1.35034e+58
          1320.44430	         1.18134e+58
          1321.25060	         1.17287e+58
          1322.05690	         1.38235e+58
          1322.86320	         1.30727e+58
          1323.66950	         1.09403e+58
          1324.47580	         9.78429e+57
          1325.28210	         1.03104e+58
          1326.08840	         1.24534e+58
          1326.89470	         1.41448e+58
          1327.70100	         1.05767e+58
          1328.50730	         8.56829e+57
          1329.31360	         9.99063e+57
          1330.11990	         9.57418e+57
          1330.92620	         7.75886e+57
          1331.73250	         9.19290e+57
          1332.53880	         8.45158e+57
          1333.34510	         8.56008e+57
          1334.15140	         9.54512e+57
          1334.95770	         1.00141e+58
          1335.76400	         1.07487e+58
          1336.57030	         1.21538e+58
          1337.37660	         1.25304e+58
          1338.18290	         1.20562e+58
          1338.98920	         1.19029e+58
          1339.79550	         1.15646e+58
          1340.60180	         1.34833e+58
          1341.40810	         1.47745e+58
          1342.21440	         1.30931e+58
          1343.02070	         1.33424e+58
          1343.82700	         1.29868e+58
          1344.63330	         1.15111e+58
          1345.43960	         1.15792e+58
          1346.24590	         1.07220e+58
          1347.05220	         1.16401e+58
          1347.85850	         1.16887e+58
          1348.66480	         1.19886e+58
          1349.47110	         1.22667e+58
          1350.27740	         1.28130e+58
          1351.08370	         1.19408e+58
          1351.89000	         1.12558e+58
          1352.69630	         1.11956e+58
          1353.50260	         1.21154e+58
          1354.30890	         1.23467e+58
          1355.11520	         1.09939e+58
          1355.92150	         1.09813e+58
          1356.72780	         1.04381e+58
          1357.53410	         1.06901e+58
          1358.34040	         1.14696e+58
          1359.14670	         1.09664e+58
          1359.95300	         1.06426e+58
          1360.75930	         1.13428e+58
          1361.56560	         1.13180e+58
          1362.37190	         1.28492e+58
          1363.17820	         1.19167e+58
          1363.98450	         1.09170e+58
          1364.79080	         1.13409e+58
          1365.59710	         1.14566e+58
          1366.40340	         1.13432e+58
          1367.20970	         9.79046e+57
          1368.01600	         1.03858e+58
          1368.82230	         1.02426e+58
          1369.62860	         1.11469e+58
          1370.43490	         9.41282e+57
          1371.24120	         9.34197e+57
          1372.04750	         9.88892e+57
          1372.85380	         1.24773e+58
          1373.66010	         1.15254e+58
          1374.46640	         9.56084e+57
          1375.27270	         9.73535e+57
          1376.07900	         9.45136e+57
          1376.88530	         8.27436e+57
          1377.69160	         7.90029e+57
          1378.49790	         7.14750e+57
          1379.30420	         6.57423e+57
          1380.11050	         8.04973e+57
          1380.91680	         8.41508e+57
          1381.72310	         7.91144e+57
          1382.52940	         7.83456e+57
          1383.33570	         8.51993e+57
          1384.14200	         9.56071e+57
          1384.94830	         1.10195e+58
          1385.75460	         1.03439e+58
          1386.56090	         1.10529e+58
          1387.36720	         1.08126e+58
          1388.17350	         1.08767e+58
          1388.97980	         9.42737e+57
          1389.78610	         7.25930e+57
          1390.59240	         9.24359e+57
          1391.39870	         8.63064e+57
          1392.20500	         8.72205e+57
          1393.01130	         8.20870e+57
          1393.81760	         7.72665e+57
          1394.62390	         7.59962e+57
          1395.43020	         7.75361e+57
          1396.23650	         8.13907e+57
          1397.04280	         8.23016e+57
          1397.84910	         1.06178e+58
          1398.65540	         9.91021e+57
          1399.46170	         9.82505e+57
          1400.26800	         7.71768e+57
          1401.07430	         7.50451e+57
          1401.88060	         9.00357e+57
          1402.68690	         9.94117e+57
          1403.49320	         9.10192e+57
          1404.29950	         8.71942e+57
          1405.10580	         1.02960e+58
          1405.91210	         1.15965e+58
          1406.71840	         1.11472e+58
          1407.52470	         9.66502e+57
          1408.33100	         8.20402e+57
          1409.13730	         9.98186e+57
          1409.94360	         1.22115e+58
          1410.74990	         1.23595e+58
          1411.55620	         1.05596e+58
          1412.36250	         8.75928e+57
          1413.16880	         8.88036e+57
          1413.97510	         9.31808e+57
          1414.78140	         1.02820e+58
          1415.58770	         1.03173e+58
          1416.39400	         1.04573e+58
          1417.20030	         1.21485e+58
          1418.00660	         1.22898e+58
          1418.81290	         1.14122e+58
          1419.61920	         1.04088e+58
          1420.42550	         1.12894e+58
          1421.23180	         1.35191e+58
          1422.03810	         1.27250e+58
          1422.84440	         1.20556e+58
          1423.65070	         1.40233e+58
          1424.45700	         1.25075e+58
          1425.26330	         8.48444e+57
          1426.06960	         9.08244e+57
          1426.87590	         1.13255e+58
          1427.68220	         1.03029e+58
          1428.48850	         1.08118e+58
          1429.29480	         1.08713e+58
          1430.10110	         9.63466e+57
          1430.90740	         8.54153e+57
          1431.71370	         8.09627e+57
          1432.52000	         8.92256e+57
          1433.32630	         8.96693e+57
          1434.13260	         8.25254e+57
          1434.93890	         8.17275e+57
          1435.74520	         8.89652e+57
          1436.55150	         9.38254e+57
          1437.35780	         9.67506e+57
          1438.16410	         9.75601e+57
          1438.97040	         8.84189e+57
          1439.77670	         8.56933e+57
          1440.58300	         8.84625e+57
          1441.38930	         8.81258e+57
          1442.19560	         8.85606e+57
          1443.00190	         1.03504e+58
          1443.80820	         1.17979e+58
          1444.61450	         1.01045e+58
          1445.42080	         8.23643e+57
          1446.22710	         1.00738e+58
          1447.03340	         9.33921e+57
          1447.83970	         1.00479e+58
          1448.64600	         1.02675e+58
          1449.45230	         9.63376e+57
          1450.25860	         1.00599e+58
          1451.06490	         8.44362e+57
          1451.87120	         8.03502e+57
          1452.67750	         8.23946e+57
          1453.48380	         7.47995e+57
          1454.29010	         7.30976e+57
          1455.09640	         6.64430e+57
          1455.90270	         7.69901e+57
          1456.70900	         8.27584e+57
          1457.51530	         9.63929e+57
          1458.32160	         1.21344e+58
          1459.12790	         1.19820e+58
          1459.93420	         1.02989e+58
          1460.74050	         9.25656e+57
          1461.54680	         9.42499e+57
          1462.35310	         9.05748e+57
          1463.15940	         1.04035e+58
          1463.96570	         1.16626e+58
          1464.77200	         1.21199e+58
          1465.57830	         1.06006e+58
          1466.38460	         8.39008e+57
          1467.19090	         9.10551e+57
          1467.99720	         9.61914e+57
          1468.80350	         9.26172e+57
          1469.60980	         8.96494e+57
          1470.41610	         9.32278e+57
          1471.22240	         8.23611e+57
          1472.02870	         8.00044e+57
          1472.83500	         9.97717e+57
          1473.64130	         9.94373e+57
          1474.44760	         9.29093e+57
          1475.25390	         9.17903e+57
          1476.06020	         8.97603e+57
          1476.86650	         8.58789e+57
          1477.67280	         7.58605e+57
          1478.47910	         7.88842e+57
          1479.28540	         8.48071e+57
          1480.09170	         8.79710e+57
          1480.89800	         8.93306e+57
          1481.70430	         9.32523e+57
          1482.51060	         8.88928e+57
          1483.31690	         8.14862e+57
          1484.12320	         7.50837e+57
          1484.92950	         7.11862e+57
          1485.73580	         7.05994e+57
          1486.54210	         8.05336e+57
          1487.34840	         9.19446e+57
          1488.15470	         8.30926e+57
          1488.96100	         8.58924e+57
          1489.76730	         8.64552e+57
          1490.57360	         8.16177e+57
          1491.37990	         7.78357e+57
          1492.18620	         8.56955e+57
          1492.99250	         9.18394e+57
          1493.79880	         8.57725e+57
          1494.60510	         8.55328e+57
          1495.41140	         8.02245e+57
          1496.21770	         7.58329e+57
          1497.02400	         9.06553e+57
          1497.83030	         8.40178e+57
          1498.63660	         6.79276e+57
          1499.44290	         6.86468e+57
          1500.24920	         7.47845e+57
          1501.05550	         7.88338e+57
          1501.86180	         8.15224e+57
          1502.66810	         8.99512e+57
          1503.47440	         8.50073e+57
          1504.28070	         7.85241e+57
          1505.08700	         9.75978e+57
          1505.89330	         9.63436e+57
          1506.69960	         9.27273e+57
          1507.50590	         8.46251e+57
          1508.31220	         7.84123e+57
          1509.11850	         7.89805e+57
          1509.92480	         8.48155e+57
          1510.73110	         8.87511e+57
          1511.53740	         7.14034e+57
          1512.34370	         6.81484e+57
          1513.15000	         9.11980e+57
          1513.95630	         1.10607e+58
          1514.76260	         9.06665e+57
          1515.56890	         7.38732e+57
          1516.37520	         8.21157e+57
          1517.18150	         9.18212e+57
          1517.98780	         8.53204e+57
          1518.79410	         6.90726e+57
          1519.60040	         7.09619e+57
          1520.40670	         8.04388e+57
          1521.21300	         8.21262e+57
          1522.01930	         8.35773e+57
          1522.82560	         9.11955e+57
          1523.63190	         1.00063e+58
          1524.43820	         9.25459e+57
          1525.24450	         6.74004e+57
          1526.05080	         6.52681e+57
          1526.85710	         7.09329e+57
          1527.66340	         6.69574e+57
          1528.46970	         7.28276e+57
          1529.27600	         8.00313e+57
          1530.08230	         7.68620e+57
          1530.88860	         7.98512e+57
          1531.69490	         8.76386e+57
          1532.50120	         9.09850e+57
          1533.30750	         9.47512e+57
          1534.11380	         9.63674e+57
          1534.92010	         1.01228e+58
          1535.72640	         1.00538e+58
          1536.53270	         9.25491e+57
          1537.33900	         8.13691e+57
          1538.14530	         8.70369e+57
          1538.95160	         9.70577e+57
          1539.75790	         8.57720e+57
          1540.56420	         8.26381e+57
          1541.37050	         7.76389e+57
          1542.17680	         7.40516e+57
          1542.98310	         8.18833e+57
          1543.78940	         7.90235e+57
          1544.59570	         7.21672e+57
          1545.40200	         8.02868e+57
          1546.20830	         9.19272e+57
          1547.01460	         1.08369e+58
          1547.82090	         1.22492e+58
          1548.62720	         1.25267e+58
          1549.43350	         1.26843e+58
          1550.23980	         1.21069e+58
          1551.04610	         1.26581e+58
          1551.85240	         1.11030e+58
          1552.65870	         9.90350e+57
          1553.46500	         9.80653e+57
          1554.27130	         9.90525e+57
          1555.07760	         9.97971e+57
          1555.88390	         8.68477e+57
          1556.69020	         8.23576e+57
          1557.49650	         8.93139e+57
          1558.30280	         8.96748e+57
          1559.10910	         9.09107e+57
          1559.91540	         8.93397e+57
          1560.72170	         8.70997e+57
          1561.52800	         9.29000e+57
          1562.33430	         9.18591e+57
          1563.14060	         8.59175e+57
          1563.94690	         8.47256e+57
          1564.75320	         8.43881e+57
          1565.55950	         6.65930e+57
          1566.36580	         6.98259e+57
          1567.17210	         8.64271e+57
          1567.97840	         8.90999e+57
          1568.78470	         8.85927e+57
          1569.59100	         9.59775e+57
          1570.39730	         8.66571e+57
          1571.20360	         6.75290e+57
          1572.00990	         7.45286e+57
          1572.81620	         9.52581e+57
          1573.62250	         1.07514e+58
          1574.42880	         9.61485e+57
          1575.23510	         7.70287e+57
          1576.04140	         8.53644e+57
          1576.84770	         1.01158e+58
          1577.65400	         9.98067e+57
          1578.46030	         1.00847e+58
          1579.26660	         9.66323e+57
          1580.07290	         8.46203e+57
          1580.87920	         8.19828e+57
          1581.68550	         8.43493e+57
          1582.49180	         9.55285e+57
          1583.29810	         8.96662e+57
          1584.10440	         8.22051e+57
          1584.91070	         8.45752e+57
          1585.71700	         8.84302e+57
          1586.52330	         9.42402e+57
          1587.32960	         9.30453e+57
          1588.13590	         9.04101e+57
          1588.94220	         8.71911e+57
          1589.74850	         8.96464e+57
          1590.55480	         9.50339e+57
          1591.36110	         8.04019e+57
          1592.16740	         8.02030e+57
          1592.97370	         7.92618e+57
          1593.78000	         8.97438e+57
          1594.58630	         9.73424e+57
          1595.39260	         8.91344e+57
          1596.19890	         8.86766e+57
          1597.00520	         9.63437e+57
          1597.81150	         9.15713e+57
          1598.61780	         7.36042e+57
          1599.42410	         7.13460e+57
          1600.23040	         6.63806e+57
          1601.03670	         7.18394e+57
          1601.84300	         7.85084e+57
          1602.64930	         8.05707e+57
          1603.45560	         8.46282e+57
          1604.26190	         7.56605e+57
          1605.06820	         6.89310e+57
          1605.87450	         7.51028e+57
          1606.68080	         7.88781e+57
          1607.48710	         6.02236e+57
          1608.29340	         5.65212e+57
          1609.09970	         7.00481e+57
          1609.90600	         7.30397e+57
          1610.71230	         6.69139e+57
          1611.51860	         6.32076e+57
          1612.32490	         7.09645e+57
          1613.13120	         7.64935e+57
          1613.93750	         7.18977e+57
          1614.74380	         8.24769e+57
          1615.55010	         8.31231e+57
          1616.35640	         8.16925e+57
          1617.16270	         9.56126e+57
          1617.96900	         9.53510e+57
          1618.77530	         8.30181e+57
          1619.58160	         8.99915e+57
          1620.38790	         8.46616e+57
          1621.19420	         7.80388e+57
          1622.00050	         7.52122e+57
          1622.80680	         8.43784e+57
          1623.61310	         8.27223e+57
          1624.41940	         7.54280e+57
          1625.22570	         9.40341e+57
          1626.03200	         9.22116e+57
          1626.83830	         7.83326e+57
          1627.64460	         6.38546e+57
          1628.45090	         6.40898e+57
          1629.25720	         8.89609e+57
          1630.06350	         9.34933e+57
          1630.86980	         6.93171e+57
          1631.67610	         7.61156e+57
          1632.48240	         8.92560e+57
          1633.28870	         9.21866e+57
          1634.09500	         9.39039e+57
          1634.90130	         1.00296e+58
          1635.70760	         9.52673e+57
          1636.51390	         8.74318e+57
          1637.32020	         7.66063e+57
          1638.12650	         9.57673e+57
          1638.93280	         9.55059e+57
          1639.73910	         9.87737e+57
          1640.54540	         9.95207e+57
          1641.35170	         8.19205e+57
          1642.15800	         9.56482e+57
          1642.96430	         7.75542e+57
          1643.77060	         7.69267e+57
          1644.57690	         7.65706e+57
          1645.38320	         7.78680e+57
          1646.18950	         6.84492e+57
          1646.99580	         8.20175e+57
          1647.80210	         8.75413e+57
          1648.60840	         8.03977e+57
          1649.41470	         8.01968e+57
          1650.22100	         7.52149e+57
          1651.02730	         6.59979e+57
          1651.83360	         6.92014e+57
          1652.63990	         8.54284e+57
          1653.44620	         9.29905e+57
          1654.25250	         7.55559e+57
          1655.05880	         6.69851e+57
          1655.86510	         7.86694e+57
          1656.67140	         7.78364e+57
          1657.47770	         7.93465e+57
          1658.28400	         8.21394e+57
          1659.09030	         9.29780e+57
          1659.89660	         9.42490e+57
          1660.70290	         1.03758e+58
          1661.50920	         9.28431e+57
          1662.31550	         7.75280e+57
          1663.12180	         8.17524e+57
          1663.92810	         9.17235e+57
          1664.73440	         1.02214e+58
          1665.54070	         1.08345e+58
          1666.34700	         1.13538e+58
          1667.15330	         1.15395e+58
          1667.95960	         9.80040e+57
          1668.76590	         7.51478e+57
          1669.57220	         7.01189e+57
          1670.37850	         7.68138e+57
          1671.18480	         7.20872e+57
          1671.99110	         7.48018e+57
          1672.79740	         6.82470e+57
          1673.60370	         5.97555e+57
          1674.41000	         6.82076e+57
          1675.21630	         6.58525e+57
          1676.02260	         5.78635e+57
          1676.82890	         7.13457e+57
          1677.63520	         7.53608e+57
          1678.44150	         7.89952e+57
          1679.24780	         8.62233e+57
          1680.05410	         7.52145e+57
          1680.86040	         6.60669e+57
          1681.66670	         8.04093e+57
          1682.47300	         8.04078e+57
          1683.27930	         7.84831e+57
          1684.08560	         8.51738e+57
          1684.89190	         8.46380e+57
          1685.69820	         6.46263e+57
          1686.50450	         5.10751e+57
          1687.31080	         6.66345e+57
          1688.11710	         7.93732e+57
          1688.92340	         6.85774e+57
          1689.72970	         6.82533e+57
          1690.53600	         7.46976e+57
          1691.34230	         7.28178e+57
          1692.14860	         6.83734e+57
          1692.95490	         7.08068e+57
          1693.76120	         7.06123e+57
          1694.56750	         7.56356e+57
          1695.37380	         9.40606e+57
          1696.18010	         9.15800e+57
          1696.98640	         8.37780e+57
          1697.79270	         8.48640e+57
          1698.59900	         7.85398e+57
          1699.40530	         7.88438e+57
          1700.21160	         8.08386e+57
          1701.01790	         8.91179e+57
          1701.82420	         7.56603e+57
          1702.63050	         7.09076e+57
          1703.43680	         8.24501e+57
          1704.24310	         7.98722e+57
          1705.04940	         8.09307e+57
          1705.85570	         8.02842e+57
          1706.66200	         8.89962e+57
          1707.46830	         7.70778e+57
          1708.27460	         6.71860e+57
          1709.08090	         7.12047e+57
          1709.88720	         6.33036e+57
          1710.69350	         6.66697e+57
          1711.49980	         6.17664e+57
          1712.30610	         6.70144e+57
          1713.11240	         8.86123e+57
          1713.91870	         6.91236e+57
          1714.72500	         7.13719e+57
          1715.53130	         8.60987e+57
          1716.33760	         7.83538e+57
          1717.14390	         6.70159e+57
          1717.95020	         7.30195e+57
          1718.75650	         8.13425e+57
          1719.56280	         7.88514e+57
          1720.36910	         6.67292e+57
          1721.17540	         7.42183e+57
          1721.98170	         6.56376e+57
          1722.78800	         6.53771e+57
          1723.59430	         8.38329e+57
          1724.40060	         8.93083e+57
          1725.20690	         8.76331e+57
          1726.01320	         7.53818e+57
          1726.81950	         7.52463e+57
          1727.62580	         7.38265e+57
          1728.43210	         7.37615e+57
          1729.23840	         8.14261e+57
          1730.04470	         8.06653e+57
          1730.85100	         7.84589e+57
          1731.65730	         7.10046e+57
          1732.46360	         6.68166e+57
          1733.26990	         6.56449e+57
          1734.07620	         6.65628e+57
          1734.88250	         7.20043e+57
          1735.68880	         7.73369e+57
          1736.49510	         8.40714e+57
          1737.30140	         7.55204e+57
          1738.10770	         7.65139e+57
          1738.91400	         7.56702e+57
          1739.72030	         7.74783e+57
          1740.52660	         6.62146e+57
          1741.33290	         6.07388e+57
          1742.13920	         5.86089e+57
          1742.94550	         6.97690e+57
          1743.75180	         8.28579e+57
          1744.55810	         8.09083e+57
          1745.36440	         6.52564e+57
          1746.17070	         4.99748e+57
          1746.97700	         5.38649e+57
          1747.78330	         6.08292e+57
          1748.58960	         5.84777e+57
          1749.39590	         7.20201e+57
          1750.20220	         7.22851e+57
          1751.00850	         6.37313e+57
          1751.81480	         6.06673e+57
          1752.62110	         7.60387e+57
          1753.42740	         8.97922e+57
          1754.23370	         7.52172e+57
          1755.04000	         6.54749e+57
          1755.84630	         7.40469e+57
          1756.65260	         9.14682e+57
          1757.45890	         8.78427e+57
          1758.26520	         8.38667e+57
          1759.07150	         9.62390e+57
          1759.87780	         9.33391e+57
          1760.68410	         8.83301e+57
          1761.49040	         8.16470e+57
          1762.29670	         6.81144e+57
          1763.10300	         6.51900e+57
          1763.90930	         7.54323e+57
          1764.71560	         7.00350e+57
          1765.52190	         6.50436e+57
          1766.32820	         8.30696e+57
          1767.13450	         8.69350e+57
          1767.94080	         8.22679e+57
          1768.74710	         7.44748e+57
          1769.55340	         6.39569e+57
          1770.35970	         6.62693e+57
          1771.16600	         7.47550e+57
          1771.97230	         8.52572e+57
          1772.77860	         8.67028e+57
          1773.58490	         7.82059e+57
          1774.39120	         5.89936e+57
          1775.19750	         5.35291e+57
          1776.00380	         6.65379e+57
          1776.81010	         7.35266e+57
          1777.61640	         6.42587e+57
          1778.42270	         7.20713e+57
          1779.22900	         7.30250e+57
          1780.03530	         6.28618e+57
          1780.84160	         7.29386e+57
          1781.64790	         7.56771e+57
          1782.45420	         7.51177e+57
          1783.26050	         7.67880e+57
          1784.06680	         6.83636e+57
          1784.87310	         6.92243e+57
          1785.67940	         8.01004e+57
          1786.48570	         7.38442e+57
          1787.29200	         6.28369e+57
          1788.09830	         5.73731e+57
          1788.90460	         6.01615e+57
          1789.71090	         5.07439e+57
          1790.51720	         5.44192e+57
          1791.32350	         8.40429e+57
          1792.12980	         9.37504e+57
          1792.93610	         7.73589e+57
          1793.74240	         7.01874e+57
          1794.54870	         7.46871e+57
          1795.35500	         7.51665e+57
          1796.16130	         7.54664e+57
          1796.96760	         6.87869e+57
          1797.77390	         7.05041e+57
          1798.58020	         7.71830e+57
          1799.38650	         6.68139e+57
          1800.19280	         6.36288e+57
          1800.99910	         7.47747e+57
          1801.80540	         7.85422e+57
          1802.61170	         9.67505e+57
          1803.41800	         9.82181e+57
          1804.22430	         7.70568e+57
          1805.03060	         7.39757e+57
          1805.83690	         7.24688e+57
          1806.64320	         7.41515e+57
          1807.44950	         8.09556e+57
          1808.25580	         7.32141e+57
          1809.06210	         7.10743e+57
          1809.86840	         6.81025e+57
          1810.67470	         6.58202e+57
          1811.48100	         8.52772e+57
          1812.28730	         8.43906e+57
          1813.09360	         7.75345e+57
          1813.89990	         7.98873e+57
          1814.70620	         7.82064e+57
          1815.51250	         8.52311e+57
          1816.31880	         8.69914e+57
          1817.12510	         7.67912e+57
          1817.93140	         6.86344e+57
          1818.73770	         7.25007e+57
          1819.54400	         8.14018e+57
          1820.35030	         7.74942e+57
          1821.15660	         6.23967e+57
          1821.96290	         5.76062e+57
          1822.76920	         6.89742e+57
          1823.57550	         7.92424e+57
          1824.38180	         7.91483e+57
          1825.18810	         8.24313e+57
          1825.99440	         9.16553e+57
          1826.80070	         7.81385e+57
          1827.60700	         6.76377e+57
          1828.41330	         6.23284e+57
          1829.21960	         6.30827e+57
          1830.02590	         7.51819e+57
          1830.83220	         7.99727e+57
          1831.63850	         7.90369e+57
          1832.44480	         8.03824e+57
          1833.25110	         8.38917e+57
          1834.05740	         8.56375e+57
          1834.86370	         7.33878e+57
          1835.67000	         6.36665e+57
          1836.47630	         7.39194e+57
          1837.28260	         8.70783e+57
          1838.08890	         9.11871e+57
          1838.89520	         8.63020e+57
          1839.70150	         8.08170e+57
          1840.50780	         6.74022e+57
          1841.31410	         6.77144e+57
          1842.12040	         7.62869e+57
          1842.92670	         6.94317e+57
          1843.73300	         6.27905e+57
          1844.53930	         6.97983e+57
          1845.34560	         6.80253e+57
          1846.15190	         7.05112e+57
          1846.95820	         7.14919e+57
          1847.76450	         6.29104e+57
          1848.57080	         4.60321e+57
          1849.37710	         5.81582e+57
          1850.18340	         7.50140e+57
          1850.98970	         8.43148e+57
          1851.79600	         8.96150e+57
          1852.60230	         7.84509e+57
          1853.40860	         7.74267e+57
          1854.21490	         7.22019e+57
          1855.02120	         5.78194e+57
          1855.82750	         5.25424e+57
          1856.63380	         5.85933e+57
          1857.44010	         6.59360e+57
          1858.24640	         8.21129e+57
          1859.05270	         6.89628e+57
          1859.85900	         5.32640e+57
          1860.66530	         6.24673e+57
          1861.47160	         6.83051e+57
          1862.27790	         6.47345e+57
          1863.08420	         6.83562e+57
          1863.89050	         7.30552e+57
          1864.69680	         6.76605e+57
          1865.50310	         7.09255e+57
          1866.30940	         6.62022e+57
          1867.11570	         6.74772e+57
          1867.92200	         7.89026e+57
          1868.72830	         7.93811e+57
          1869.53460	         6.56280e+57
          1870.34090	         7.61325e+57
          1871.14720	         8.52905e+57
          1871.95350	         7.12510e+57
          1872.75980	         7.01980e+57
          1873.56610	         6.99430e+57
          1874.37240	         5.52692e+57
          1875.17870	         5.95203e+57
          1875.98500	         7.39639e+57
          1876.79130	         7.18300e+57
          1877.59760	         7.25196e+57
          1878.40390	         6.51092e+57
          1879.21020	         5.41707e+57
          1880.01650	         6.13319e+57
          1880.82280	         8.31882e+57
          1881.62910	         8.94637e+57
          1882.43540	         9.30463e+57
          1883.24170	         8.08639e+57
          1884.04800	         7.18395e+57
          1884.85430	         7.46664e+57
          1885.66060	         8.49665e+57
          1886.46690	         8.60033e+57
          1887.27320	         7.99911e+57
          1888.07950	         6.07695e+57
          1888.88580	         7.50688e+57
          1889.69210	         9.57999e+57
          1890.49840	         8.14911e+57
          1891.30470	         7.95355e+57
          1892.11100	         8.80570e+57
          1892.91730	         8.75834e+57
          1893.72360	         7.80625e+57
          1894.52990	         6.86603e+57
          1895.33620	         7.67574e+57
          1896.14250	         6.53026e+57
          1896.94880	         5.17001e+57
          1897.75510	         3.87514e+57
          1898.56140	         4.96508e+57
          1899.36770	         7.41766e+57
          1900.17400	         6.65681e+57
          1900.98030	         6.15858e+57
          1901.78660	         6.81028e+57
          1902.59290	         7.64497e+57
          1903.39920	         9.26635e+57
          1904.20550	         9.85483e+57
          1905.01180	         9.91181e+57
          1905.81810	         1.09177e+58
          1906.62440	         1.25791e+58
          1907.43070	         1.57385e+58
          1908.23700	         1.60364e+58
          1909.04330	         1.29550e+58
          1909.84960	         1.16919e+58
          1910.65590	         1.02677e+58
          1911.46220	         9.47807e+57
          1912.26850	         8.43673e+57
          1913.07480	         7.06429e+57
          1913.88110	         5.76754e+57
          1914.68740	         5.77665e+57
          1915.49370	         6.59931e+57
          1916.30000	         6.42854e+57
          1917.10630	         6.56925e+57
          1917.91260	         6.47617e+57
          1918.71890	         7.72278e+57
          1919.52520	         7.64752e+57
          1920.33150	         6.50742e+57
          1921.13780	         7.48590e+57
          1921.94410	         8.94815e+57
          1922.75040	         8.03931e+57
          1923.55670	         7.81681e+57
          1924.36300	         8.24840e+57
          1925.16930	         6.49347e+57
          1925.97560	         6.13050e+57
          1926.78190	         6.29426e+57
          1927.58820	         6.07731e+57
          1928.39450	         5.86239e+57
          1929.20080	         4.91073e+57
          1930.00710	         7.38963e+57
          1930.81340	         8.43497e+57
          1931.61970	         6.66960e+57
          1932.42600	         7.01814e+57
          1933.23230	         8.61619e+57
          1934.03860	         7.13842e+57
          1934.84490	         4.50759e+57
          1935.65120	         7.52448e+57
          1936.45750	         9.37998e+57
          1937.26380	         6.83651e+57
          1938.07010	         6.49467e+57
          1938.87640	         6.39556e+57
          1939.68270	         6.93962e+57
          1940.48900	         7.03151e+57
          1941.29530	         7.71976e+57
          1942.10160	         7.92064e+57
          1942.90790	         6.63682e+57
          1943.71420	         6.26514e+57
          1944.52050	         5.57215e+57
          1945.32680	         4.14350e+57
          1946.13310	         6.64360e+57
          1946.93940	         8.34271e+57
          1947.74570	         7.80656e+57
          1948.55200	         7.15541e+57
          1949.35830	         5.82640e+57
          1950.16460	         4.71070e+57
          1950.97090	         6.30209e+57
          1951.77720	         7.69489e+57
          1952.58350	         8.05624e+57
          1953.38980	         6.83059e+57
          1954.19610	         5.06817e+57
          1955.00240	         5.66530e+57
          1955.80870	         6.32481e+57
          1956.61500	         6.36463e+57
          1957.42130	         6.83150e+57
          1958.22760	         7.79707e+57
          1959.03390	         6.80626e+57
          1959.84020	         7.10512e+57
          1960.64650	         6.24066e+57
          1961.45280	         6.63858e+57
          1962.25910	         6.89088e+57
          1963.06540	         7.00874e+57
          1963.87170	         7.46702e+57
          1964.67800	         7.67080e+57
          1965.48430	         6.86062e+57
          1966.29060	         6.74565e+57
          1967.09690	         6.55206e+57
          1967.90320	         6.48798e+57
          1968.70950	         6.79191e+57
          1969.51580	         6.21096e+57
          1970.32210	         6.55602e+57
          1971.12840	         7.02915e+57
          1971.93470	         4.83699e+57
          1972.74100	         4.73169e+57
          1973.54730	         6.64540e+57
          1974.35360	         7.09731e+57
          1975.15990	         8.04842e+57
          1975.96620	         8.08065e+57
          1976.77250	         7.95079e+57
          1977.57880	         7.73521e+57
          1978.38510	         6.79636e+57
          1979.19140	         7.32206e+57
          1979.99770	         7.79772e+57
          1980.80400	         6.83882e+57
          1981.61030	         6.52784e+57
          1982.41660	         6.86749e+57
          1983.22290	         6.17469e+57
          1984.02920	         5.73045e+57
          1984.83550	         5.82884e+57
          1985.64180	         6.67283e+57
          1986.44810	         6.93860e+57
          1987.25440	         6.17513e+57
          1988.06070	         5.50629e+57
          1988.86700	         6.63741e+57
          1989.67330	         6.90003e+57
          1990.47960	         5.65362e+57
          1991.28590	         4.72903e+57
          1992.09220	         5.73501e+57
          1992.89850	         5.48080e+57
          1993.70480	         6.02299e+57
          1994.51110	         5.28728e+57
          1995.31740	         4.87439e+57
          1996.12370	         5.16643e+57
          1996.93000	         6.39512e+57
          1997.73630	         7.98192e+57
          1998.54260	         7.21705e+57
          1999.34890	         6.09485e+57
          2000.15520	         6.91669e+57
          2000.96150	         6.68602e+57
          2001.76780	         6.67020e+57
          2002.57410	         4.99326e+57
          2003.38040	         5.78209e+57
          2004.18670	         6.59779e+57
          2004.99300	         5.77871e+57
          2005.79930	         7.40538e+57
          2006.60560	         7.31926e+57
          2007.41190	         6.34440e+57
          2008.21820	         6.67749e+57
          2009.02450	         6.89237e+57
          2009.83080	         7.01795e+57
          2010.63710	         6.38087e+57
          2011.44340	         6.68060e+57
          2012.24970	         7.99796e+57
          2013.05600	         7.22521e+57
          2013.86230	         6.44223e+57
          2014.66860	         5.82507e+57
          2015.47490	         5.80043e+57
          2016.28120	         5.50906e+57
          2017.08750	         5.91542e+57
          2017.89380	         7.00999e+57
          2018.70010	         5.17197e+57
          2019.50640	         5.47766e+57
          2020.31270	         6.19710e+57
          2021.11900	         7.79162e+57
          2021.92530	         7.27479e+57
          2022.73160	         6.85704e+57
          2023.53790	         6.41633e+57
          2024.34420	         7.32133e+57
          2025.15050	         6.10270e+57
          2025.95680	         5.27743e+57
          2026.76310	         6.64603e+57
          2027.56940	         5.83092e+57
          2028.37570	         5.57562e+57
          2029.18200	         6.08361e+57
          2029.98830	         5.38764e+57
          2030.79460	         5.87346e+57
          2031.60090	         4.65213e+57
          2032.40720	         5.07667e+57
          2033.21350	         6.29804e+57
          2034.01980	         5.53390e+57
          2034.82610	         4.60818e+57
          2035.63240	         5.29276e+57
          2036.43870	         5.04802e+57
          2037.24500	         6.56021e+57
          2038.05130	         6.88155e+57
          2038.85760	         5.86271e+57
          2039.66390	         6.58337e+57
          2040.47020	         4.77943e+57
          2041.27650	         6.64052e+57
          2042.08280	         6.08041e+57
          2042.88910	         5.93797e+57
          2043.69540	         5.98309e+57
          2044.50170	         5.81608e+57
          2045.30800	         5.10881e+57
          2046.11430	         5.88411e+57
          2046.92060	         6.32073e+57
          2047.72690	         6.83025e+57
          2048.53320	         5.49224e+57
          2049.33950	         4.16365e+57
          2050.14580	         5.66441e+57
          2050.95210	         6.47767e+57
          2051.75840	         6.69164e+57
          2052.56470	         6.11438e+57
          2053.37100	         4.73857e+57
          2054.17730	         5.63975e+57
          2054.98360	         6.31523e+57
          2055.78990	         3.62973e+57
          2056.59620	         2.49709e+57
          2057.40250	         3.67697e+57
          2058.20880	         6.61723e+57
          2059.01510	         6.86933e+57
          2059.82140	         7.22133e+57
          2060.62770	         1.00555e+58
          2061.43400	         1.49142e+58
          2062.24030	         1.27935e+58
          2063.04660	         6.03191e+57
          2063.85290	         2.31891e+57
          2064.65920	        -2.28071e+57
          2065.46550	        -8.57394e+57
          2066.27180	        -8.75157e+57
          2067.07810	         4.19142e+57
          2067.88440	         4.86654e+57
          2068.69070	         6.23203e+57
          2069.49700	         4.66866e+57
          2070.30330	         4.46055e+57
          2071.10960	         5.00590e+57
          2071.91590	         6.66607e+57
          2072.72220	         4.00667e+57
          2073.52850	         5.35823e+57
          2074.33480	         5.39916e+57
          2075.14110	         4.78538e+57
          2075.94740	         4.83357e+57
          2076.75370	         5.89331e+57
          2077.56000	         5.28858e+57
          2078.36630	         5.41000e+57
          2079.17260	         5.53189e+57
          2079.97890	         5.78837e+57
          2080.78520	         4.85781e+57
          2081.59150	         5.91963e+57
          2082.39780	         6.25091e+57
          2083.20410	         2.78237e+57
          2084.01040	         1.57881e+57
          2084.81670	         3.64093e+57
          2085.62300	         3.83329e+57
          2086.42930	         4.43288e+57
          2087.23560	         3.14122e+57
          2088.04190	         2.34711e+57
          2088.84820	         2.42230e+57
          2089.65450	         4.11943e+57
          2090.46080	         2.48974e+57
          2091.26710	         1.89766e+57
          2092.07340	         4.32734e+57
          2092.87970	         3.17065e+57
          2093.68600	        -6.07070e+56
          2094.49230	         3.07718e+56
          2095.29860	         4.45381e+57
          2096.10490	         5.36628e+57
          2096.91120	         2.22686e+57
          2097.71750	         3.45729e+56
          2098.52380	         1.75231e+57
          2099.33010	         2.27113e+57
          2100.13640	         3.84103e+57
          2100.94270	         1.60645e+57
          2101.74900	         1.96748e+57
          2102.55530	         1.78718e+57
          2103.36160	         5.09729e+56
          2104.16790	         1.54682e+57
          2104.97420	         1.89967e+57
          2105.78050	         1.69796e+57
          2106.58680	         1.38740e+57
          2107.39310	         1.27178e+57
          2108.19940	         3.05260e+57
          2109.00570	        -1.05457e+57
          2109.81200	         2.95139e+56
          2110.61830	         1.71574e+57
          2111.42460	        -9.01089e+56
          2112.23090	         8.33091e+56
          2113.03720	         1.41180e+56
          2113.84350	        -1.47816e+57
          2114.64980	         1.88644e+57
          2115.45610	         2.54797e+57
          2116.26240	        -3.71979e+56
          2117.06870	        -2.22046e+56
          2117.87500	         1.04983e+56
          2118.68130	        -9.85974e+56
          2119.48760	         4.30712e+57
          2120.29390	         1.95228e+57
          2121.10020	         3.64740e+56
          2121.90650	         2.84815e+57
          2122.71280	         5.63427e+57
          2123.51910	         3.50560e+57
          2124.32540	        -3.25252e+57
          2125.13170	         2.88464e+57
          2125.93800	         4.98304e+57
          2126.74430	        -3.80773e+57
          2127.55060	        -1.07777e+58
          2128.35690	        -9.88618e+57
          2129.16320	         1.53004e+57
          2129.96950	        -3.94577e+57
          2130.77580	        -2.81670e+57
          2131.58210	        -1.20044e+57
          2132.38840	        -2.25231e+57
          2133.19470	        -2.22045e+57
          2134.00100	        -3.96525e+57
          2134.80730	        -8.50542e+57
          2135.61360	        -4.44771e+57
          2136.41990	         3.54970e+57
          2137.22620	         4.87122e+57
          2138.03250	         4.15454e+57
          2138.83880	        -3.40323e+57
          2139.64510	         3.07534e+57
          2140.45140	        -6.06633e+56
          2141.25770	        -6.31897e+57
          2142.06400	        -2.91801e+57
          2142.87030	         6.33164e+57
          2143.67660	         2.83160e+57
          2144.48290	         1.53910e+58
          2145.28920	         1.63158e+58
          2146.09550	        -9.30440e+57
          2146.90180	        -1.07041e+58
          2147.70810	        -6.81703e+57
          2148.51440	         1.89861e+57
          2149.32070	        -7.07395e+57
          2150.12700	        -4.65538e+57
          2150.93330	        -8.03258e+56
          2151.73960	        -8.49876e+56
          2152.54590	         7.14062e+56
          2153.35220	         3.00412e+57
          2154.15850	        -2.65449e+57
          2154.96480	         7.79389e+56
          2155.77110	        -9.40519e+55
          2156.57740	         1.11872e+56
          2157.38370	        -6.41830e+56
          2158.19000	        -2.94984e+57
          2158.99630	         1.27780e+57
          2159.80260	        -1.18104e+58
          2160.60890	        -9.83723e+57
          2161.41520	        -2.29600e+57
          2162.22150	        -1.03097e+57
          2163.02780	         1.66925e+57
          2163.83410	        -4.78660e+57
          2164.64040	        -2.27539e+57
          2165.44670	        -7.46939e+57
          2166.25300	        -6.48512e+57
          2167.05930	         2.50016e+57
          2167.86560	        -4.69414e+57
          2168.67190	        -4.79260e+57
          2169.47820	         1.79393e+57
          2170.28450	        -4.39969e+57
          2171.09080	         2.53509e+57
          2171.89710	         8.22552e+57
          2172.70340	        -1.55020e+58
          2173.50970	        -1.79121e+58
          2174.31600	        -2.72702e+57
          2175.12230	        -8.51475e+56
          2175.92860	        -4.17850e+57
          2176.73490	        -3.14186e+57
          2177.54120	        -5.16903e+57
          2178.34750	        -3.60949e+57
          2179.15380	                 nan
          2179.96010	                 nan
          2180.76640	                 nan
          2181.57270	                 nan
          2182.37900	                 nan
          2183.18530	                 nan
          2183.99160	                 nan
          2184.79790	                 nan
          2185.60420	                 nan
          2186.41050	                 nan
          2187.21680	                 nan
          2188.02310	                 nan
          2188.82940	                 nan
          2189.63570	                 nan
          2190.44200	                 nan
          2191.24830	                 nan
          2192.05460	                 nan
          2192.86090	                 nan
          2193.66720	                 nan
          2194.47350	                 nan
          2195.27980	                 nan
          2196.08610	                 nan
          2196.89240	                 nan
          2197.69870	                 nan
          2198.50500	                 nan
          2199.31130	                 nan
          2200.11760	                 nan
          2200.92390	                 nan
          2201.73020	                 nan
          2202.53650	                 nan
          2203.34280	                 nan
          2204.14910	                 nan
          2204.95540	                 nan
          2205.76170	                 nan
          2206.56800	                 nan
          2207.37430	                 nan
          2208.18060	                 nan
          2208.98690	                 nan
          2209.79320	                 nan
          2210.59950	                 nan
          2211.40580	                 nan
          2212.21210	                 nan
          2213.01840	                 nan
          2213.82470	                 nan
          2214.63100	                 nan
          2215.43730	         0.00000e+00
