#sample_262_stacked_spectrum_rest_UV-bands_median_H-alpha_noDC.txt
#median Lum: 1.70738e+42
#Rest-frame wavelength (A) | Luminosity (erg/s/A)
#
          1110.00000	         0.00000e+00
          1110.80630	         1.31980e+59
          1111.61260	         2.35637e+59
          1112.41890	         2.02657e+59
          1113.22520	        -1.41889e+59
          1114.03150	        -4.78777e+58
          1114.83780	         2.14559e+59
          1115.64410	         1.27823e+59
          1116.45040	         8.60659e+58
          1117.25670	         1.51126e+57
          1118.06300	         9.43038e+58
          1118.86930	        -3.55571e+58
          1119.67560	         8.35704e+58
          1120.48190	        -6.19401e+56
          1121.28820	        -1.20896e+59
          1122.09450	        -2.46527e+58
          1122.90080	        -2.92735e+58
          1123.70710	         7.42202e+58
          1124.51340	         1.80922e+59
          1125.31970	         5.29118e+58
          1126.12600	         1.39156e+58
          1126.93230	        -4.51675e+57
          1127.73860	        -3.26035e+58
          1128.54490	         4.38512e+58
          1129.35120	         2.04688e+57
          1130.15750	         1.37291e+58
          1130.96380	        -1.19174e+57
          1131.77010	         4.54633e+58
          1132.57640	         3.95701e+58
          1133.38270	         3.16489e+58
          1134.18900	         3.90249e+58
          1134.99530	        -1.10246e+58
          1135.80160	        -1.05853e+58
          1136.60790	        -8.37258e+57
          1137.41420	        -7.63992e+57
          1138.22050	         4.31317e+58
          1139.02680	         5.19780e+58
          1139.83310	         2.67308e+58
          1140.63940	         1.72735e+58
          1141.44570	        -1.48103e+58
          1142.25200	        -1.24163e+57
          1143.05830	         1.93605e+58
          1143.86460	         1.21080e+58
          1144.67090	         3.12868e+58
          1145.47720	         1.22887e+58
          1146.28350	         7.72592e+57
          1147.08980	         1.60986e+58
          1147.89610	         1.99877e+58
          1148.70240	         2.80428e+58
          1149.50870	         1.88930e+58
          1150.31500	         4.84197e+57
          1151.12130	         6.36954e+57
          1151.92760	         1.25415e+58
          1152.73390	         1.38901e+58
          1153.54020	         5.76533e+57
          1154.34650	         2.31245e+58
          1155.15280	         2.57156e+58
          1155.95910	         1.52342e+58
          1156.76540	         1.58866e+58
          1157.57170	        -6.00731e+56
          1158.37800	        -7.95877e+57
          1159.18430	        -2.82413e+57
          1159.99060	         2.69846e+57
          1160.79690	         3.65455e+57
          1161.60320	         1.45867e+58
          1162.40950	         2.07903e+58
          1163.21580	         1.60509e+58
          1164.02210	         1.10226e+58
          1164.82840	         1.46611e+58
          1165.63470	         2.27357e+58
          1166.44100	         2.58063e+58
          1167.24730	         2.22966e+58
          1168.05360	         6.93266e+57
          1168.85990	         8.79041e+57
          1169.66620	         1.34327e+58
          1170.47250	         1.40016e+58
          1171.27880	         7.45229e+57
          1172.08510	         1.16993e+58
          1172.89140	         6.53128e+57
          1173.69770	         6.16187e+57
          1174.50400	         1.53902e+58
          1175.31030	         2.10984e+58
          1176.11660	         2.08629e+58
          1176.92290	         1.56255e+58
          1177.72920	         1.19104e+58
          1178.53550	         6.99348e+57
          1179.34180	         6.32401e+57
          1180.14810	         8.17252e+57
          1180.95440	         8.89415e+57
          1181.76070	         7.83326e+57
          1182.56700	         1.06801e+58
          1183.37330	         1.11929e+58
          1184.17960	         1.51641e+58
          1184.98590	         1.28901e+58
          1185.79220	         8.17992e+57
          1186.59850	         9.94587e+57
          1187.40480	         1.11409e+58
          1188.21110	         1.56750e+58
          1189.01740	         5.69749e+57
          1189.82370	         1.25479e+58
          1190.63000	         1.35615e+58
          1191.43630	         1.25262e+58
          1192.24260	         1.12340e+58
          1193.04890	         1.50863e+58
          1193.85520	         1.22567e+58
          1194.66150	         9.14018e+57
          1195.46780	         8.78938e+57
          1196.27410	         8.44076e+57
          1197.08040	         4.63988e+57
          1197.88670	         1.01566e+58
          1198.69300	         1.49919e+58
          1199.49930	         1.62055e+58
          1200.30560	         1.25785e+58
          1201.11190	         1.26130e+58
          1201.91820	         1.12087e+58
          1202.72450	         1.01481e+58
          1203.53080	         1.56816e+58
          1204.33710	         9.51612e+57
          1205.14340	         6.98844e+57
          1205.94970	         9.14624e+57
          1206.75600	         1.02038e+58
          1207.56230	         4.55703e+57
          1208.36860	         6.18452e+57
          1209.17490	         2.92885e+57
          1209.98120	         5.52007e+57
          1210.78750	         7.79671e+57
          1211.59380	         1.46610e+58
          1212.40010	         1.55745e+58
          1213.20640	         1.53319e+58
          1214.01270	         1.54903e+58
          1214.81900	         2.52564e+58
          1215.62530	         4.58567e+58
          1216.43160	         8.93607e+58
          1217.23790	         1.50505e+59
          1218.04420	         1.15569e+59
          1218.85050	         9.23941e+58
          1219.65680	         5.88653e+58
          1220.46310	         3.17363e+58
          1221.26940	         2.45885e+58
          1222.07570	         1.50559e+58
          1222.88200	         1.33747e+58
          1223.68830	         1.17557e+58
          1224.49460	         8.16720e+57
          1225.30090	         8.44855e+57
          1226.10720	         3.89510e+57
          1226.91350	         5.17585e+57
          1227.71980	         7.92691e+57
          1228.52610	         1.18750e+58
          1229.33240	         1.05589e+58
          1230.13870	         1.12885e+58
          1230.94500	         9.91760e+57
          1231.75130	         7.48000e+57
          1232.55760	         1.27261e+58
          1233.36390	         1.12038e+58
          1234.17020	         9.65178e+57
          1234.97650	         7.52290e+57
          1235.78280	         7.70759e+57
          1236.58910	         8.93251e+57
          1237.39540	         9.35191e+57
          1238.20170	         9.41201e+57
          1239.00800	         1.38950e+58
          1239.81430	         1.72324e+58
          1240.62060	         1.21642e+58
          1241.42690	         1.02970e+58
          1242.23320	         1.05958e+58
          1243.03950	         9.80458e+57
          1243.84580	         9.66556e+57
          1244.65210	         1.07067e+58
          1245.45840	         1.29076e+58
          1246.26470	         1.31739e+58
          1247.07100	         1.06201e+58
          1247.87730	         8.37026e+57
          1248.68360	         4.45773e+57
          1249.48990	         6.33289e+57
          1250.29620	         1.36866e+58
          1251.10250	         1.05467e+58
          1251.90880	         7.32225e+57
          1252.71510	         8.69446e+57
          1253.52140	         8.43531e+57
          1254.32770	         9.69193e+57
          1255.13400	         1.20787e+58
          1255.94030	         1.17363e+58
          1256.74660	         1.02907e+58
          1257.55290	         9.40798e+57
          1258.35920	         8.07465e+57
          1259.16550	         7.13158e+57
          1259.97180	         6.18701e+57
          1260.77810	         1.12661e+58
          1261.58440	         1.23471e+58
          1262.39070	         8.21586e+57
          1263.19700	         8.60362e+57
          1264.00330	         1.04671e+58
          1264.80960	         1.11607e+58
          1265.61590	         1.31833e+58
          1266.42220	         1.20024e+58
          1267.22850	         1.12974e+58
          1268.03480	         1.72629e+58
          1268.84110	         1.74925e+58
          1269.64740	         1.36354e+58
          1270.45370	         1.40002e+58
          1271.26000	         1.25105e+58
          1272.06630	         1.33276e+58
          1272.87260	         1.48009e+58
          1273.67890	         1.34826e+58
          1274.48520	         1.28797e+58
          1275.29150	         1.33927e+58
          1276.09780	         1.29730e+58
          1276.90410	         1.28645e+58
          1277.71040	         1.02662e+58
          1278.51670	         1.11008e+58
          1279.32300	         1.22439e+58
          1280.12930	         1.16308e+58
          1280.93560	         1.19382e+58
          1281.74190	         1.04108e+58
          1282.54820	         1.02280e+58
          1283.35450	         1.03777e+58
          1284.16080	         1.26115e+58
          1284.96710	         1.44662e+58
          1285.77340	         1.14349e+58
          1286.57970	         1.33619e+58
          1287.38600	         1.68619e+58
          1288.19230	         1.57537e+58
          1288.99860	         1.56094e+58
          1289.80490	         1.21145e+58
          1290.61120	         1.15767e+58
          1291.41750	         1.29054e+58
          1292.22380	         1.21766e+58
          1293.03010	         9.94478e+57
          1293.83640	         1.15939e+58
          1294.64270	         1.13549e+58
          1295.44900	         7.10413e+57
          1296.25530	         6.02181e+57
          1297.06160	         7.88377e+57
          1297.86790	         9.50268e+57
          1298.67420	         8.83270e+57
          1299.48050	         1.12175e+58
          1300.28680	         1.07154e+58
          1301.09310	         7.78309e+57
          1301.89940	         5.30746e+57
          1302.70570	         4.91043e+57
          1303.51200	         7.37032e+57
          1304.31830	         9.10774e+57
          1305.12460	         1.03432e+58
          1305.93090	         1.15060e+58
          1306.73720	         1.23592e+58
          1307.54350	         1.37488e+58
          1308.34980	         1.43768e+58
          1309.15610	         1.50956e+58
          1309.96240	         1.56658e+58
          1310.76870	         1.36042e+58
          1311.57500	         1.14256e+58
          1312.38130	         1.17335e+58
          1313.18760	         1.55738e+58
          1313.99390	         1.52672e+58
          1314.80020	         1.46758e+58
          1315.60650	         1.65635e+58
          1316.41280	         1.55378e+58
          1317.21910	         1.29568e+58
          1318.02540	         1.10173e+58
          1318.83170	         1.20217e+58
          1319.63800	         1.24752e+58
          1320.44430	         1.22889e+58
          1321.25060	         1.42472e+58
          1322.05690	         1.34360e+58
          1322.86320	         1.27081e+58
          1323.66950	         1.12086e+58
          1324.47580	         9.01841e+57
          1325.28210	         1.03072e+58
          1326.08840	         1.08890e+58
          1326.89470	         1.16772e+58
          1327.70100	         1.03890e+58
          1328.50730	         8.15494e+57
          1329.31360	         9.59910e+57
          1330.11990	         1.15784e+58
          1330.92620	         1.02024e+58
          1331.73250	         1.11812e+58
          1332.53880	         9.93056e+57
          1333.34510	         9.39409e+57
          1334.15140	         8.86647e+57
          1334.95770	         8.93862e+57
          1335.76400	         1.04849e+58
          1336.57030	         1.10950e+58
          1337.37660	         1.13791e+58
          1338.18290	         1.08311e+58
          1338.98920	         1.12282e+58
          1339.79550	         1.10150e+58
          1340.60180	         1.08988e+58
          1341.40810	         1.23447e+58
          1342.21440	         1.16531e+58
          1343.02070	         1.20470e+58
          1343.82700	         1.32787e+58
          1344.63330	         1.29165e+58
          1345.43960	         1.52667e+58
          1346.24590	         1.33028e+58
          1347.05220	         1.24566e+58
          1347.85850	         1.10877e+58
          1348.66480	         1.18161e+58
          1349.47110	         1.24617e+58
          1350.27740	         1.22001e+58
          1351.08370	         1.16322e+58
          1351.89000	         1.13446e+58
          1352.69630	         1.11821e+58
          1353.50260	         1.11022e+58
          1354.30890	         1.16103e+58
          1355.11520	         1.25472e+58
          1355.92150	         1.17415e+58
          1356.72780	         9.81041e+57
          1357.53410	         9.73638e+57
          1358.34040	         1.05089e+58
          1359.14670	         1.05393e+58
          1359.95300	         1.14520e+58
          1360.75930	         1.18818e+58
          1361.56560	         1.09329e+58
          1362.37190	         1.26310e+58
          1363.17820	         1.13081e+58
          1363.98450	         1.02308e+58
          1364.79080	         1.17724e+58
          1365.59710	         1.33305e+58
          1366.40340	         1.31131e+58
          1367.20970	         1.06802e+58
          1368.01600	         9.22950e+57
          1368.82230	         8.54856e+57
          1369.62860	         9.30633e+57
          1370.43490	         8.73863e+57
          1371.24120	         7.64909e+57
          1372.04750	         8.12159e+57
          1372.85380	         9.76321e+57
          1373.66010	         9.83685e+57
          1374.46640	         1.08329e+58
          1375.27270	         1.19425e+58
          1376.07900	         9.47129e+57
          1376.88530	         8.36478e+57
          1377.69160	         8.67228e+57
          1378.49790	         6.25645e+57
          1379.30420	         7.19378e+57
          1380.11050	         1.01889e+58
          1380.91680	         8.54939e+57
          1381.72310	         7.25630e+57
          1382.52940	         9.12269e+57
          1383.33570	         8.91010e+57
          1384.14200	         8.94991e+57
          1384.94830	         9.83835e+57
          1385.75460	         9.84007e+57
          1386.56090	         1.04136e+58
          1387.36720	         1.00505e+58
          1388.17350	         1.26378e+58
          1388.97980	         1.18239e+58
          1389.78610	         8.21831e+57
          1390.59240	         7.31324e+57
          1391.39870	         6.99463e+57
          1392.20500	         8.00499e+57
          1393.01130	         7.85183e+57
          1393.81760	         7.77844e+57
          1394.62390	         7.08880e+57
          1395.43020	         5.43394e+57
          1396.23650	         5.02876e+57
          1397.04280	         5.16102e+57
          1397.84910	         8.68148e+57
          1398.65540	         9.95329e+57
          1399.46170	         8.73032e+57
          1400.26800	         7.77406e+57
          1401.07430	         6.78747e+57
          1401.88060	         7.66770e+57
          1402.68690	         1.06646e+58
          1403.49320	         1.04970e+58
          1404.29950	         9.08938e+57
          1405.10580	         9.65685e+57
          1405.91210	         1.12743e+58
          1406.71840	         1.07941e+58
          1407.52470	         9.68988e+57
          1408.33100	         1.02607e+58
          1409.13730	         1.18495e+58
          1409.94360	         1.29991e+58
          1410.74990	         1.18166e+58
          1411.55620	         9.68754e+57
          1412.36250	         8.74346e+57
          1413.16880	         9.08579e+57
          1413.97510	         8.49659e+57
          1414.78140	         7.45133e+57
          1415.58770	         9.25506e+57
          1416.39400	         1.02408e+58
          1417.20030	         1.09424e+58
          1418.00660	         1.11953e+58
          1418.81290	         1.11941e+58
          1419.61920	         1.08888e+58
          1420.42550	         1.22524e+58
          1421.23180	         1.35604e+58
          1422.03810	         1.23337e+58
          1422.84440	         1.04766e+58
          1423.65070	         1.27961e+58
          1424.45700	         1.28941e+58
          1425.26330	         8.55633e+57
          1426.06960	         8.62011e+57
          1426.87590	         1.02809e+58
          1427.68220	         9.69973e+57
          1428.48850	         9.63686e+57
          1429.29480	         1.06167e+58
          1430.10110	         1.00198e+58
          1430.90740	         8.41846e+57
          1431.71370	         8.69268e+57
          1432.52000	         9.19561e+57
          1433.32630	         7.70830e+57
          1434.13260	         6.97290e+57
          1434.93890	         8.13203e+57
          1435.74520	         8.51249e+57
          1436.55150	         9.16504e+57
          1437.35780	         9.57866e+57
          1438.16410	         9.43022e+57
          1438.97040	         8.86014e+57
          1439.77670	         8.86675e+57
          1440.58300	         8.69799e+57
          1441.38930	         9.36198e+57
          1442.19560	         9.75847e+57
          1443.00190	         9.52515e+57
          1443.80820	         1.09271e+58
          1444.61450	         1.01854e+58
          1445.42080	         8.67772e+57
          1446.22710	         1.01378e+58
          1447.03340	         1.02261e+58
          1447.83970	         1.01570e+58
          1448.64600	         1.02740e+58
          1449.45230	         1.05363e+58
          1450.25860	         1.10266e+58
          1451.06490	         9.31489e+57
          1451.87120	         7.53087e+57
          1452.67750	         7.29252e+57
          1453.48380	         8.52556e+57
          1454.29010	         8.40283e+57
          1455.09640	         8.21883e+57
          1455.90270	         8.51386e+57
          1456.70900	         8.05921e+57
          1457.51530	         9.03877e+57
          1458.32160	         1.16999e+58
          1459.12790	         1.20129e+58
          1459.93420	         1.06452e+58
          1460.74050	         8.35363e+57
          1461.54680	         8.34759e+57
          1462.35310	         7.36143e+57
          1463.15940	         9.21100e+57
          1463.96570	         1.19370e+58
          1464.77200	         1.20323e+58
          1465.57830	         1.05965e+58
          1466.38460	         9.51196e+57
          1467.19090	         7.82172e+57
          1467.99720	         8.41827e+57
          1468.80350	         9.98314e+57
          1469.60980	         1.09810e+58
          1470.41610	         1.05315e+58
          1471.22240	         8.88570e+57
          1472.02870	         8.62610e+57
          1472.83500	         8.83492e+57
          1473.64130	         9.57154e+57
          1474.44760	         1.06899e+58
          1475.25390	         9.68926e+57
          1476.06020	         8.40892e+57
          1476.86650	         8.60986e+57
          1477.67280	         7.47373e+57
          1478.47910	         7.23616e+57
          1479.28540	         6.78363e+57
          1480.09170	         8.15514e+57
          1480.89800	         9.02077e+57
          1481.70430	         8.01102e+57
          1482.51060	         7.83364e+57
          1483.31690	         7.78376e+57
          1484.12320	         7.64090e+57
          1484.92950	         7.90585e+57
          1485.73580	         8.74617e+57
          1486.54210	         8.89224e+57
          1487.34840	         9.45973e+57
          1488.15470	         8.45550e+57
          1488.96100	         8.37464e+57
          1489.76730	         8.81433e+57
          1490.57360	         8.57563e+57
          1491.37990	         7.81709e+57
          1492.18620	         8.79309e+57
          1492.99250	         7.78873e+57
          1493.79880	         6.78379e+57
          1494.60510	         7.41268e+57
          1495.41140	         6.93567e+57
          1496.21770	         8.42516e+57
          1497.02400	         1.08741e+58
          1497.83030	         9.33456e+57
          1498.63660	         7.60454e+57
          1499.44290	         6.94202e+57
          1500.24920	         7.39064e+57
          1501.05550	         7.82914e+57
          1501.86180	         8.18417e+57
          1502.66810	         8.12406e+57
          1503.47440	         8.62092e+57
          1504.28070	         9.64291e+57
          1505.08700	         9.65410e+57
          1505.89330	         8.84130e+57
          1506.69960	         9.07931e+57
          1507.50590	         9.51147e+57
          1508.31220	         9.17550e+57
          1509.11850	         8.32668e+57
          1509.92480	         8.44272e+57
          1510.73110	         8.82652e+57
          1511.53740	         7.78261e+57
          1512.34370	         7.00136e+57
          1513.15000	         8.09709e+57
          1513.95630	         9.57523e+57
          1514.76260	         9.05844e+57
          1515.56890	         8.52338e+57
          1516.37520	         8.24213e+57
          1517.18150	         8.46527e+57
          1517.98780	         7.74140e+57
          1518.79410	         7.32967e+57
          1519.60040	         7.78727e+57
          1520.40670	         8.53099e+57
          1521.21300	         8.69529e+57
          1522.01930	         7.73745e+57
          1522.82560	         8.54773e+57
          1523.63190	         9.71681e+57
          1524.43820	         8.15847e+57
          1525.24450	         6.31050e+57
          1526.05080	         7.08839e+57
          1526.85710	         6.63135e+57
          1527.66340	         5.95022e+57
          1528.46970	         8.23561e+57
          1529.27600	         9.37724e+57
          1530.08230	         8.16570e+57
          1530.88860	         7.58498e+57
          1531.69490	         7.66578e+57
          1532.50120	         8.57464e+57
          1533.30750	         9.44366e+57
          1534.11380	         9.21338e+57
          1534.92010	         9.26633e+57
          1535.72640	         9.00821e+57
          1536.53270	         9.46507e+57
          1537.33900	         9.52971e+57
          1538.14530	         9.15785e+57
          1538.95160	         8.33097e+57
          1539.75790	         7.76988e+57
          1540.56420	         8.09517e+57
          1541.37050	         7.63611e+57
          1542.17680	         7.75814e+57
          1542.98310	         7.80921e+57
          1543.78940	         7.90845e+57
          1544.59570	         7.64148e+57
          1545.40200	         8.67992e+57
          1546.20830	         1.00221e+58
          1547.01460	         1.08497e+58
          1547.82090	         1.07275e+58
          1548.62720	         1.17099e+58
          1549.43350	         1.13008e+58
          1550.23980	         1.03568e+58
          1551.04610	         1.24357e+58
          1551.85240	         1.17870e+58
          1552.65870	         1.16436e+58
          1553.46500	         1.15127e+58
          1554.27130	         1.05003e+58
          1555.07760	         9.84943e+57
          1555.88390	         9.40743e+57
          1556.69020	         9.61463e+57
          1557.49650	         9.08259e+57
          1558.30280	         8.85838e+57
          1559.10910	         8.46557e+57
          1559.91540	         8.54445e+57
          1560.72170	         8.19782e+57
          1561.52800	         8.33603e+57
          1562.33430	         9.06646e+57
          1563.14060	         8.16661e+57
          1563.94690	         8.47764e+57
          1564.75320	         8.67388e+57
          1565.55950	         7.03538e+57
          1566.36580	         7.35712e+57
          1567.17210	         9.24926e+57
          1567.97840	         9.78273e+57
          1568.78470	         9.07792e+57
          1569.59100	         9.30384e+57
          1570.39730	         8.85233e+57
          1571.20360	         7.32100e+57
          1572.00990	         7.42283e+57
          1572.81620	         9.21379e+57
          1573.62250	         1.05233e+58
          1574.42880	         8.95972e+57
          1575.23510	         7.09442e+57
          1576.04140	         8.18577e+57
          1576.84770	         8.89283e+57
          1577.65400	         9.69539e+57
          1578.46030	         1.06488e+58
          1579.26660	         1.06767e+58
          1580.07290	         9.25645e+57
          1580.87920	         8.05360e+57
          1581.68550	         7.97529e+57
          1582.49180	         8.14676e+57
          1583.29810	         7.71941e+57
          1584.10440	         8.55957e+57
          1584.91070	         8.82032e+57
          1585.71700	         9.38241e+57
          1586.52330	         9.21553e+57
          1587.32960	         9.02658e+57
          1588.13590	         8.99529e+57
          1588.94220	         8.04797e+57
          1589.74850	         8.41271e+57
          1590.55480	         9.12369e+57
          1591.36110	         8.82809e+57
          1592.16740	         8.70148e+57
          1592.97370	         7.99395e+57
          1593.78000	         8.64775e+57
          1594.58630	         9.06584e+57
          1595.39260	         8.63036e+57
          1596.19890	         8.49516e+57
          1597.00520	         8.62968e+57
          1597.81150	         8.08045e+57
          1598.61780	         6.89119e+57
          1599.42410	         6.95296e+57
          1600.23040	         7.17537e+57
          1601.03670	         7.31715e+57
          1601.84300	         7.10173e+57
          1602.64930	         7.71541e+57
          1603.45560	         8.78496e+57
          1604.26190	         8.44536e+57
          1605.06820	         7.77335e+57
          1605.87450	         7.27350e+57
          1606.68080	         7.16736e+57
          1607.48710	         6.29586e+57
          1608.29340	         6.26609e+57
          1609.09970	         6.84896e+57
          1609.90600	         7.60791e+57
          1610.71230	         8.29713e+57
          1611.51860	         7.26858e+57
          1612.32490	         6.71820e+57
          1613.13120	         7.84863e+57
          1613.93750	         8.87073e+57
          1614.74380	         8.75360e+57
          1615.55010	         8.48439e+57
          1616.35640	         9.47381e+57
          1617.16270	         1.07305e+58
          1617.96900	         9.85417e+57
          1618.77530	         8.48823e+57
          1619.58160	         8.41023e+57
          1620.38790	         8.54085e+57
          1621.19420	         8.90959e+57
          1622.00050	         8.87511e+57
          1622.80680	         9.22615e+57
          1623.61310	         7.86466e+57
          1624.41940	         7.37255e+57
          1625.22570	         8.98975e+57
          1626.03200	         8.85258e+57
          1626.83830	         7.42900e+57
          1627.64460	         7.30169e+57
          1628.45090	         7.01746e+57
          1629.25720	         9.21239e+57
          1630.06350	         1.07797e+58
          1630.86980	         7.89392e+57
          1631.67610	         8.87505e+57
          1632.48240	         8.40267e+57
          1633.28870	         8.63001e+57
          1634.09500	         8.72981e+57
          1634.90130	         9.97910e+57
          1635.70760	         8.96990e+57
          1636.51390	         8.58043e+57
          1637.32020	         8.19841e+57
          1638.12650	         9.46199e+57
          1638.93280	         1.00278e+58
          1639.73910	         1.09395e+58
          1640.54540	         1.05126e+58
          1641.35170	         8.95492e+57
          1642.15800	         9.18285e+57
          1642.96430	         8.83138e+57
          1643.77060	         8.07648e+57
          1644.57690	         7.23993e+57
          1645.38320	         7.79472e+57
          1646.18950	         7.42719e+57
          1646.99580	         7.67541e+57
          1647.80210	         7.17853e+57
          1648.60840	         7.54234e+57
          1649.41470	         7.99618e+57
          1650.22100	         7.43096e+57
          1651.02730	         6.89498e+57
          1651.83360	         6.14397e+57
          1652.63990	         7.83862e+57
          1653.44620	         9.41200e+57
          1654.25250	         8.29938e+57
          1655.05880	         7.27434e+57
          1655.86510	         8.14104e+57
          1656.67140	         8.71660e+57
          1657.47770	         8.10338e+57
          1658.28400	         8.19878e+57
          1659.09030	         8.89961e+57
          1659.89660	         9.19957e+57
          1660.70290	         1.01234e+58
          1661.50920	         1.01135e+58
          1662.31550	         8.22560e+57
          1663.12180	         8.10120e+57
          1663.92810	         9.80024e+57
          1664.73440	         1.10048e+58
          1665.54070	         1.12831e+58
          1666.34700	         1.17849e+58
          1667.15330	         1.19845e+58
          1667.95960	         1.02543e+58
          1668.76590	         7.50731e+57
          1669.57220	         6.09507e+57
          1670.37850	         6.58656e+57
          1671.18480	         7.59823e+57
          1671.99110	         7.84532e+57
          1672.79740	         7.26028e+57
          1673.60370	         7.49867e+57
          1674.41000	         7.61278e+57
          1675.21630	         6.67922e+57
          1676.02260	         6.28126e+57
          1676.82890	         6.83021e+57
          1677.63520	         6.69814e+57
          1678.44150	         7.89458e+57
          1679.24780	         9.45462e+57
          1680.05410	         7.54318e+57
          1680.86040	         5.80427e+57
          1681.66670	         6.88764e+57
          1682.47300	         8.32365e+57
          1683.27930	         7.96521e+57
          1684.08560	         8.40986e+57
          1684.89190	         7.96655e+57
          1685.69820	         5.98710e+57
          1686.50450	         5.71244e+57
          1687.31080	         6.52484e+57
          1688.11710	         7.28774e+57
          1688.92340	         6.81354e+57
          1689.72970	         6.07776e+57
          1690.53600	         6.52346e+57
          1691.34230	         6.87688e+57
          1692.14860	         7.92771e+57
          1692.95490	         7.88822e+57
          1693.76120	         6.95014e+57
          1694.56750	         6.61328e+57
          1695.37380	         7.88268e+57
          1696.18010	         8.41939e+57
          1696.98640	         9.03461e+57
          1697.79270	         8.62447e+57
          1698.59900	         8.16746e+57
          1699.40530	         8.13733e+57
          1700.21160	         7.29413e+57
          1701.01790	         8.21321e+57
          1701.82420	         7.51841e+57
          1702.63050	         6.65851e+57
          1703.43680	         6.64771e+57
          1704.24310	         7.57053e+57
          1705.04940	         8.81504e+57
          1705.85570	         8.21331e+57
          1706.66200	         8.38340e+57
          1707.46830	         7.99653e+57
          1708.27460	         7.24536e+57
          1709.08090	         5.98539e+57
          1709.88720	         5.72737e+57
          1710.69350	         6.99259e+57
          1711.49980	         7.20647e+57
          1712.30610	         7.72255e+57
          1713.11240	         8.72031e+57
          1713.91870	         5.99835e+57
          1714.72500	         6.17622e+57
          1715.53130	         7.83072e+57
          1716.33760	         7.35714e+57
          1717.14390	         6.73075e+57
          1717.95020	         8.26416e+57
          1718.75650	         7.86357e+57
          1719.56280	         8.00351e+57
          1720.36910	         7.05462e+57
          1721.17540	         7.01707e+57
          1721.98170	         6.06007e+57
          1722.78800	         5.56292e+57
          1723.59430	         6.97543e+57
          1724.40060	         8.03197e+57
          1725.20690	         8.68720e+57
          1726.01320	         9.13431e+57
          1726.81950	         7.75126e+57
          1727.62580	         6.90450e+57
          1728.43210	         6.01409e+57
          1729.23840	         7.08317e+57
          1730.04470	         8.50290e+57
          1730.85100	         8.76053e+57
          1731.65730	         8.24898e+57
          1732.46360	         7.79372e+57
          1733.26990	         7.18245e+57
          1734.07620	         7.50342e+57
          1734.88250	         8.36473e+57
          1735.68880	         7.58799e+57
          1736.49510	         7.99982e+57
          1737.30140	         7.47250e+57
          1738.10770	         6.39887e+57
          1738.91400	         7.35281e+57
          1739.72030	         7.41695e+57
          1740.52660	         5.78808e+57
          1741.33290	         5.25217e+57
          1742.13920	         5.69398e+57
          1742.94550	         7.35285e+57
          1743.75180	         8.02179e+57
          1744.55810	         8.23545e+57
          1745.36440	         7.35632e+57
          1746.17070	         5.39710e+57
          1746.97700	         5.79218e+57
          1747.78330	         7.85207e+57
          1748.58960	         7.35109e+57
          1749.39590	         5.97911e+57
          1750.20220	         6.49264e+57
          1751.00850	         6.15734e+57
          1751.81480	         6.13976e+57
          1752.62110	         6.78797e+57
          1753.42740	         7.45387e+57
          1754.23370	         6.09356e+57
          1755.04000	         5.94543e+57
          1755.84630	         7.15825e+57
          1756.65260	         8.65787e+57
          1757.45890	         7.85752e+57
          1758.26520	         6.71879e+57
          1759.07150	         9.40295e+57
          1759.87780	         8.87823e+57
          1760.68410	         8.30403e+57
          1761.49040	         8.87407e+57
          1762.29670	         6.80897e+57
          1763.10300	         6.76657e+57
          1763.90930	         7.07748e+57
          1764.71560	         6.96700e+57
          1765.52190	         6.83213e+57
          1766.32820	         8.76651e+57
          1767.13450	         8.75445e+57
          1767.94080	         6.94509e+57
          1768.74710	         6.87489e+57
          1769.55340	         7.30030e+57
          1770.35970	         5.97792e+57
          1771.16600	         6.70185e+57
          1771.97230	         8.09314e+57
          1772.77860	         8.16879e+57
          1773.58490	         7.13101e+57
          1774.39120	         6.67441e+57
          1775.19750	         6.49037e+57
          1776.00380	         6.41015e+57
          1776.81010	         6.18426e+57
          1777.61640	         5.97768e+57
          1778.42270	         6.88302e+57
          1779.22900	         6.75709e+57
          1780.03530	         6.67727e+57
          1780.84160	         8.24008e+57
          1781.64790	         8.92696e+57
          1782.45420	         7.31726e+57
          1783.26050	         6.25748e+57
          1784.06680	         7.54933e+57
          1784.87310	         7.40558e+57
          1785.67940	         7.27054e+57
          1786.48570	         6.96010e+57
          1787.29200	         5.99807e+57
          1788.09830	         5.71701e+57
          1788.90460	         5.40428e+57
          1789.71090	         5.31260e+57
          1790.51720	         6.21886e+57
          1791.32350	         7.96943e+57
          1792.12980	         9.48944e+57
          1792.93610	         8.75012e+57
          1793.74240	         7.09404e+57
          1794.54870	         7.26302e+57
          1795.35500	         7.13954e+57
          1796.16130	         7.93793e+57
          1796.96760	         6.83492e+57
          1797.77390	         6.94566e+57
          1798.58020	         7.50738e+57
          1799.38650	         6.02093e+57
          1800.19280	         7.32626e+57
          1800.99910	         8.33257e+57
          1801.80540	         7.55030e+57
          1802.61170	         8.17938e+57
          1803.41800	         8.61652e+57
          1804.22430	         8.25470e+57
          1805.03060	         7.54789e+57
          1805.83690	         7.64818e+57
          1806.64320	         8.18919e+57
          1807.44950	         6.55699e+57
          1808.25580	         5.97256e+57
          1809.06210	         8.02588e+57
          1809.86840	         7.62673e+57
          1810.67470	         7.58591e+57
          1811.48100	         7.68339e+57
          1812.28730	         8.00461e+57
          1813.09360	         7.36995e+57
          1813.89990	         7.41468e+57
          1814.70620	         6.96354e+57
          1815.51250	         8.19038e+57
          1816.31880	         8.95635e+57
          1817.12510	         8.66618e+57
          1817.93140	         7.02203e+57
          1818.73770	         7.63777e+57
          1819.54400	         9.37719e+57
          1820.35030	         8.64564e+57
          1821.15660	         5.84890e+57
          1821.96290	         5.91137e+57
          1822.76920	         6.98704e+57
          1823.57550	         6.83829e+57
          1824.38180	         7.18902e+57
          1825.18810	         8.21721e+57
          1825.99440	         7.78708e+57
          1826.80070	         7.22572e+57
          1827.60700	         6.46164e+57
          1828.41330	         6.23093e+57
          1829.21960	         7.04184e+57
          1830.02590	         7.59796e+57
          1830.83220	         7.67805e+57
          1831.63850	         7.61192e+57
          1832.44480	         7.02229e+57
          1833.25110	         7.44134e+57
          1834.05740	         7.81614e+57
          1834.86370	         6.62537e+57
          1835.67000	         6.49683e+57
          1836.47630	         7.85008e+57
          1837.28260	         8.59513e+57
          1838.08890	         8.34739e+57
          1838.89520	         8.46971e+57
          1839.70150	         8.62169e+57
          1840.50780	         7.78516e+57
          1841.31410	         7.33214e+57
          1842.12040	         6.82817e+57
          1842.92670	         6.81622e+57
          1843.73300	         6.76893e+57
          1844.53930	         6.85783e+57
          1845.34560	         6.07690e+57
          1846.15190	         6.93411e+57
          1846.95820	         7.73124e+57
          1847.76450	         7.09730e+57
          1848.57080	         5.50585e+57
          1849.37710	         4.88352e+57
          1850.18340	         7.11452e+57
          1850.98970	         6.63991e+57
          1851.79600	         7.00552e+57
          1852.60230	         7.66420e+57
          1853.40860	         7.31392e+57
          1854.21490	         7.12750e+57
          1855.02120	         6.84500e+57
          1855.82750	         5.69128e+57
          1856.63380	         6.49770e+57
          1857.44010	         6.27423e+57
          1858.24640	         6.74400e+57
          1859.05270	         6.52371e+57
          1859.85900	         5.31114e+57
          1860.66530	         5.82612e+57
          1861.47160	         7.35004e+57
          1862.27790	         7.01665e+57
          1863.08420	         7.42295e+57
          1863.89050	         8.90329e+57
          1864.69680	         8.25654e+57
          1865.50310	         8.20208e+57
          1866.30940	         7.08746e+57
          1867.11570	         5.99835e+57
          1867.92200	         6.37390e+57
          1868.72830	         7.21563e+57
          1869.53460	         6.92660e+57
          1870.34090	         7.06478e+57
          1871.14720	         7.42494e+57
          1871.95350	         7.54634e+57
          1872.75980	         8.35581e+57
          1873.56610	         6.45335e+57
          1874.37240	         5.20342e+57
          1875.17870	         5.82067e+57
          1875.98500	         6.60959e+57
          1876.79130	         8.17763e+57
          1877.59760	         7.38957e+57
          1878.40390	         6.06490e+57
          1879.21020	         6.87584e+57
          1880.01650	         7.17857e+57
          1880.82280	         7.56510e+57
          1881.62910	         8.51851e+57
          1882.43540	         1.00542e+58
          1883.24170	         8.54414e+57
          1884.04800	         7.38875e+57
          1884.85430	         7.07708e+57
          1885.66060	         8.10956e+57
          1886.46690	         7.76219e+57
          1887.27320	         6.59504e+57
          1888.07950	         6.58789e+57
          1888.88580	         6.21736e+57
          1889.69210	         7.74294e+57
          1890.49840	         7.90306e+57
          1891.30470	         7.87257e+57
          1892.11100	         8.87785e+57
          1892.91730	         7.97439e+57
          1893.72360	         7.76269e+57
          1894.52990	         7.93967e+57
          1895.33620	         8.30267e+57
          1896.14250	         7.65033e+57
          1896.94880	         6.22309e+57
          1897.75510	         4.11567e+57
          1898.56140	         6.35810e+57
          1899.36770	         9.31319e+57
          1900.17400	         6.88352e+57
          1900.98030	         6.67989e+57
          1901.78660	         8.06529e+57
          1902.59290	         7.44721e+57
          1903.39920	         7.24129e+57
          1904.20550	         8.18857e+57
          1905.01180	         8.34020e+57
          1905.81810	         1.00041e+58
          1906.62440	         1.20126e+58
          1907.43070	         1.50017e+58
          1908.23700	         1.56672e+58
          1909.04330	         1.27841e+58
          1909.84960	         1.10490e+58
          1910.65590	         8.85738e+57
          1911.46220	         8.29391e+57
          1912.26850	         7.46599e+57
          1913.07480	         6.40513e+57
          1913.88110	         5.84170e+57
          1914.68740	         5.62315e+57
          1915.49370	         5.30287e+57
          1916.30000	         6.52021e+57
          1917.10630	         7.06529e+57
          1917.91260	         6.24351e+57
          1918.71890	         6.19254e+57
          1919.52520	         6.27869e+57
          1920.33150	         5.25663e+57
          1921.13780	         5.86571e+57
          1921.94410	         8.02574e+57
          1922.75040	         8.55777e+57
          1923.55670	         8.16190e+57
          1924.36300	         7.59971e+57
          1925.16930	         6.29791e+57
          1925.97560	         6.02916e+57
          1926.78190	         5.67600e+57
          1927.58820	         6.74991e+57
          1928.39450	         6.33256e+57
          1929.20080	         5.87651e+57
          1930.00710	         6.37967e+57
          1930.81340	         6.30787e+57
          1931.61970	         5.91489e+57
          1932.42600	         7.10072e+57
          1933.23230	         8.24104e+57
          1934.03860	         7.12094e+57
          1934.84490	         6.15495e+57
          1935.65120	         8.30721e+57
          1936.45750	         8.82101e+57
          1937.26380	         7.09838e+57
          1938.07010	         8.12913e+57
          1938.87640	         7.82922e+57
          1939.68270	         7.37229e+57
          1940.48900	         6.82462e+57
          1941.29530	         7.84219e+57
          1942.10160	         7.84834e+57
          1942.90790	         6.31222e+57
          1943.71420	         5.40304e+57
          1944.52050	         5.30165e+57
          1945.32680	         6.00542e+57
          1946.13310	         7.88984e+57
          1946.93940	         9.01460e+57
          1947.74570	         7.61200e+57
          1948.55200	         6.68829e+57
          1949.35830	         6.14900e+57
          1950.16460	         5.80041e+57
          1950.97090	         6.84256e+57
          1951.77720	         7.21506e+57
          1952.58350	         7.58916e+57
          1953.38980	         6.51108e+57
          1954.19610	         4.53552e+57
          1955.00240	         4.53556e+57
          1955.80870	         5.77818e+57
          1956.61500	         6.30673e+57
          1957.42130	         6.19324e+57
          1958.22760	         6.48279e+57
          1959.03390	         7.33494e+57
          1959.84020	         7.40341e+57
          1960.64650	         6.30786e+57
          1961.45280	         5.25185e+57
          1962.25910	         5.85911e+57
          1963.06540	         5.90886e+57
          1963.87170	         5.92594e+57
          1964.67800	         7.55536e+57
          1965.48430	         6.15835e+57
          1966.29060	         6.22394e+57
          1967.09690	         8.02258e+57
          1967.90320	         7.18319e+57
          1968.70950	         6.79052e+57
          1969.51580	         5.65926e+57
          1970.32210	         6.93921e+57
          1971.12840	         6.32236e+57
          1971.93470	         5.21887e+57
          1972.74100	         5.37473e+57
          1973.54730	         6.47567e+57
          1974.35360	         8.03490e+57
          1975.15990	         8.27668e+57
          1975.96620	         7.73503e+57
          1976.77250	         7.41498e+57
          1977.57880	         7.92099e+57
          1978.38510	         7.23275e+57
          1979.19140	         7.03899e+57
          1979.99770	         7.58246e+57
          1980.80400	         8.09529e+57
          1981.61030	         7.15202e+57
          1982.41660	         5.79465e+57
          1983.22290	         6.29272e+57
          1984.02920	         5.72619e+57
          1984.83550	         5.54724e+57
          1985.64180	         6.89498e+57
          1986.44810	         6.73024e+57
          1987.25440	         5.40549e+57
          1988.06070	         4.40071e+57
          1988.86700	         6.28406e+57
          1989.67330	         6.95514e+57
          1990.47960	         6.12187e+57
          1991.28590	         6.36269e+57
          1992.09220	         6.36546e+57
          1992.89850	         5.45774e+57
          1993.70480	         5.41110e+57
          1994.51110	         5.22025e+57
          1995.31740	         5.65415e+57
          1996.12370	         5.10640e+57
          1996.93000	         5.83141e+57
          1997.73630	         7.72414e+57
          1998.54260	         7.71757e+57
          1999.34890	         6.39758e+57
          2000.15520	         6.15941e+57
          2000.96150	         5.93567e+57
          2001.76780	         5.07779e+57
          2002.57410	         5.34501e+57
          2003.38040	         6.20430e+57
          2004.18670	         7.45075e+57
          2004.99300	         5.94628e+57
          2005.79930	         7.30926e+57
          2006.60560	         7.33802e+57
          2007.41190	         6.25503e+57
          2008.21820	         6.71150e+57
          2009.02450	         5.81645e+57
          2009.83080	         6.07384e+57
          2010.63710	         6.43443e+57
          2011.44340	         6.70558e+57
          2012.24970	         7.95202e+57
          2013.05600	         7.79704e+57
          2013.86230	         6.28171e+57
          2014.66860	         5.42891e+57
          2015.47490	         5.48607e+57
          2016.28120	         5.04277e+57
          2017.08750	         6.27156e+57
          2017.89380	         6.58314e+57
          2018.70010	         6.87621e+57
          2019.50640	         6.47293e+57
          2020.31270	         6.35891e+57
          2021.11900	         6.54429e+57
          2021.92530	         6.44065e+57
          2022.73160	         7.81384e+57
          2023.53790	         7.33904e+57
          2024.34420	         5.87277e+57
          2025.15050	         4.92379e+57
          2025.95680	         6.06372e+57
          2026.76310	         6.18920e+57
          2027.56940	         6.55895e+57
          2028.37570	         6.75149e+57
          2029.18200	         6.89410e+57
          2029.98830	         6.06900e+57
          2030.79460	         7.16527e+57
          2031.60090	         6.97654e+57
          2032.40720	         6.84069e+57
          2033.21350	         5.53680e+57
          2034.01980	         5.32912e+57
          2034.82610	         4.49994e+57
          2035.63240	         5.33852e+57
          2036.43870	         6.54575e+57
          2037.24500	         6.35423e+57
          2038.05130	         6.17459e+57
          2038.85760	         5.80805e+57
          2039.66390	         5.56800e+57
          2040.47020	         5.98072e+57
          2041.27650	         6.18361e+57
          2042.08280	         4.94711e+57
          2042.88910	         5.23958e+57
          2043.69540	         5.05525e+57
          2044.50170	         5.51810e+57
          2045.30800	         4.75538e+57
          2046.11430	         3.97378e+57
          2046.92060	         6.11734e+57
          2047.72690	         6.35473e+57
          2048.53320	         4.47339e+57
          2049.33950	         3.92973e+57
          2050.14580	         5.45982e+57
          2050.95210	         7.17758e+57
          2051.75840	         5.99353e+57
          2052.56470	         5.21365e+57
          2053.37100	         4.28685e+57
          2054.17730	         5.08063e+57
          2054.98360	         4.57405e+57
          2055.78990	         2.81786e+57
          2056.59620	         3.11559e+57
          2057.40250	         4.95875e+57
          2058.20880	         6.28255e+57
          2059.01510	         4.76655e+57
          2059.82140	         6.12921e+57
          2060.62770	         1.06348e+58
          2061.43400	         1.43141e+58
          2062.24030	         1.26508e+58
          2063.04660	         4.57746e+57
          2063.85290	         5.93137e+56
          2064.65920	        -2.60008e+57
          2065.46550	        -9.89168e+57
          2066.27180	        -6.17867e+57
          2067.07810	         3.16598e+57
          2067.88440	         5.39493e+57
          2068.69070	         6.24618e+57
          2069.49700	         6.21843e+57
          2070.30330	         5.64605e+57
          2071.10960	         5.04824e+57
          2071.91590	         6.66172e+57
          2072.72220	         3.60332e+57
          2073.52850	         4.24830e+57
          2074.33480	         4.52897e+57
          2075.14110	         4.62595e+57
          2075.94740	         5.16076e+57
          2076.75370	         5.36543e+57
          2077.56000	         4.82809e+57
          2078.36630	         5.31875e+57
          2079.17260	         4.32076e+57
          2079.97890	         4.38663e+57
          2080.78520	         3.34983e+57
          2081.59150	         2.78546e+57
          2082.39780	         4.10030e+57
          2083.20410	         3.23560e+57
          2084.01040	         2.60329e+57
          2084.81670	         3.74488e+57
          2085.62300	         3.40186e+57
          2086.42930	         4.54706e+57
          2087.23560	         3.65364e+57
          2088.04190	         3.46493e+57
          2088.84820	         4.40607e+57
          2089.65450	         2.49234e+57
          2090.46080	         1.84454e+57
          2091.26710	         3.09724e+57
          2092.07340	         2.89160e+57
          2092.87970	         4.23783e+57
          2093.68600	         1.69296e+57
          2094.49230	         7.71431e+55
          2095.29860	         6.19421e+57
          2096.10490	         1.84423e+57
          2096.91120	         4.94458e+56
          2097.71750	         2.43964e+57
          2098.52380	         9.24953e+56
          2099.33010	         2.55130e+57
          2100.13640	         1.98558e+57
          2100.94270	         1.65284e+57
          2101.74900	         1.81890e+57
          2102.55530	         2.28010e+57
          2103.36160	         6.24950e+56
          2104.16790	         8.35492e+56
          2104.97420	         2.05816e+57
          2105.78050	         8.58313e+56
          2106.58680	         2.56149e+57
          2107.39310	        -7.59526e+56
          2108.19940	        -1.30581e+57
          2109.00570	        -1.23915e+57
          2109.81200	         2.99339e+56
          2110.61830	         2.34771e+57
          2111.42460	        -1.23923e+57
          2112.23090	         9.47010e+56
          2113.03720	         1.55244e+57
          2113.84350	        -1.39956e+57
          2114.64980	         4.09224e+56
          2115.45610	        -3.45615e+57
          2116.26240	         1.49662e+57
          2117.06870	        -1.47102e+57
          2117.87500	        -2.93827e+57
          2118.68130	        -1.25059e+57
          2119.48760	        -1.47286e+56
          2120.29390	         1.51339e+57
          2121.10020	        -6.22946e+57
          2121.90650	        -6.44698e+57
          2122.71280	        -1.05013e+57
          2123.51910	         3.61906e+57
          2124.32540	        -2.13876e+57
          2125.13170	         2.69474e+57
          2125.93800	        -2.78425e+57
          2126.74430	        -7.97859e+57
          2127.55060	        -4.64189e+57
          2128.35690	         1.28266e+57
          2129.16320	        -3.72879e+57
          2129.96950	         6.89530e+56
          2130.77580	         2.64289e+57
          2131.58210	         2.31337e+57
          2132.38840	         4.13831e+56
          2133.19470	        -2.08699e+56
          2134.00100	         9.69222e+56
          2134.80730	        -7.52637e+57
          2135.61360	         3.65929e+57
          2136.41990	         7.74179e+57
          2137.22620	         5.61409e+57
          2138.03250	         8.82520e+56
          2138.83880	        -8.56722e+57
          2139.64510	        -2.29160e+57
          2140.45140	        -3.15978e+57
          2141.25770	        -1.02716e+58
          2142.06400	        -9.93837e+57
          2142.87030	         7.72443e+57
          2143.67660	         1.10746e+58
          2144.48290	         2.75349e+57
          2145.28920	         1.30346e+58
          2146.09550	         6.84888e+56
          2146.90180	        -8.82630e+57
          2147.70810	        -4.09092e+57
          2148.51440	         3.00955e+56
          2149.32070	        -8.40933e+57
          2150.12700	        -1.64081e+58
          2150.93330	        -3.75950e+57
          2151.73960	        -1.92562e+57
          2152.54590	         2.11007e+57
          2153.35220	        -7.02538e+57
          2154.15850	        -1.21612e+58
          2154.96480	         2.15902e+57
          2155.77110	         1.50506e+57
          2156.57740	        -9.13369e+57
          2157.38370	        -7.07930e+57
          2158.19000	        -2.23709e+57
          2158.99630	        -2.95410e+57
          2159.80260	        -1.19190e+58
          2160.60890	        -7.82688e+57
          2161.41520	        -9.50219e+57
          2162.22150	        -6.65793e+57
          2163.02780	        -7.81500e+57
          2163.83410	        -2.83133e+57
          2164.64040	        -4.69652e+57
          2165.44670	        -1.11241e+58
          2166.25300	        -5.45370e+57
          2167.05930	        -2.05076e+57
          2167.86560	        -1.32625e+58
          2168.67190	        -8.13173e+57
          2169.47820	        -4.10161e+57
          2170.28450	         3.76237e+57
          2171.09080	         3.63984e+57
          2171.89710	        -2.41646e+57
          2172.70340	        -1.42022e+58
          2173.50970	        -3.75677e+57
          2174.31600	        -4.73962e+57
          2175.12230	        -2.87150e+57
          2175.92860	        -3.97985e+57
          2176.73490	        -1.96971e+57
          2177.54120	        -3.82888e+57
          2178.34750	        -5.09881e+57
          2179.15380	                 nan
          2179.96010	                 nan
          2180.76640	                 nan
          2181.57270	                 nan
          2182.37900	                 nan
          2183.18530	                 nan
          2183.99160	                 nan
          2184.79790	                 nan
          2185.60420	                 nan
          2186.41050	                 nan
          2187.21680	                 nan
          2188.02310	                 nan
          2188.82940	                 nan
          2189.63570	                 nan
          2190.44200	                 nan
          2191.24830	                 nan
          2192.05460	                 nan
          2192.86090	                 nan
          2193.66720	                 nan
          2194.47350	                 nan
          2195.27980	                 nan
          2196.08610	                 nan
          2196.89240	                 nan
          2197.69870	                 nan
          2198.50500	                 nan
          2199.31130	                 nan
          2200.11760	                 nan
          2200.92390	                 nan
          2201.73020	                 nan
          2202.53650	                 nan
          2203.34280	                 nan
          2204.14910	                 nan
          2204.95540	                 nan
          2205.76170	                 nan
          2206.56800	                 nan
          2207.37430	                 nan
          2208.18060	                 nan
          2208.98690	                 nan
          2209.79320	                 nan
          2210.59950	                 nan
          2211.40580	                 nan
          2212.21210	                 nan
          2213.01840	                 nan
          2213.82470	                 nan
          2214.63100	                 nan
          2215.43730	         0.00000e+00
