#sample_341_stacked_spectrum_rest_UV-bands_median_H-alpha_noDC.txt
#median Lum: 1.71424e+42
#Rest-frame wavelength (A) | Luminosity (erg/s/A)
#
          1110.00000	         0.00000e+00
          1110.80630	         4.51449e+59
          1111.61260	         2.72511e+59
          1112.41890	         1.85082e+59
          1113.22520	        -7.89308e+58
          1114.03150	         4.66286e+58
          1114.83780	         1.75876e+59
          1115.64410	         1.48465e+59
          1116.45040	         2.11681e+59
          1117.25670	         1.62551e+59
          1118.06300	         2.41255e+58
          1118.86930	        -7.05658e+57
          1119.67560	         1.29971e+59
          1120.48190	         2.84457e+58
          1121.28820	        -1.15811e+59
          1122.09450	         5.14875e+58
          1122.90080	         5.50243e+57
          1123.70710	         5.87427e+58
          1124.51340	         7.26376e+58
          1125.31970	         6.95645e+58
          1126.12600	        -1.01612e+58
          1126.93230	        -4.38153e+58
          1127.73860	        -5.24238e+58
          1128.54490	         2.38787e+57
          1129.35120	         3.88672e+58
          1130.15750	         6.53178e+57
          1130.96380	        -2.40265e+58
          1131.77010	         3.21021e+58
          1132.57640	         2.42845e+58
          1133.38270	         1.87887e+58
          1134.18900	         3.59207e+58
          1134.99530	         4.21021e+58
          1135.80160	         1.04518e+58
          1136.60790	         1.37251e+58
          1137.41420	         1.99997e+58
          1138.22050	         4.46516e+58
          1139.02680	         4.47063e+58
          1139.83310	         3.55355e+58
          1140.63940	         2.56052e+58
          1141.44570	        -1.90537e+58
          1142.25200	         8.03589e+57
          1143.05830	         1.96406e+58
          1143.86460	         2.16441e+58
          1144.67090	         3.64531e+58
          1145.47720	         1.42336e+58
          1146.28350	         4.69670e+57
          1147.08980	         1.00292e+58
          1147.89610	         1.63464e+58
          1148.70240	         1.18284e+58
          1149.50870	         2.15095e+58
          1150.31500	         1.77801e+58
          1151.12130	         4.22415e+57
          1151.92760	         4.29753e+57
          1152.73390	        -2.16531e+57
          1153.54020	        -5.59392e+57
          1154.34650	         2.42229e+58
          1155.15280	         2.70275e+58
          1155.95910	         1.71330e+58
          1156.76540	         5.90791e+57
          1157.57170	        -1.46703e+58
          1158.37800	        -1.13246e+58
          1159.18430	        -1.12258e+58
          1159.99060	        -1.10486e+57
          1160.79690	        -1.42709e+56
          1161.60320	         1.10079e+58
          1162.40950	         9.42880e+57
          1163.21580	         2.02074e+58
          1164.02210	         1.29985e+58
          1164.82840	         1.28348e+58
          1165.63470	         1.90096e+58
          1166.44100	         3.34205e+58
          1167.24730	         2.08308e+58
          1168.05360	         2.55997e+57
          1168.85990	         6.19095e+57
          1169.66620	         1.06396e+58
          1170.47250	         1.38348e+58
          1171.27880	         1.10521e+58
          1172.08510	         1.41730e+58
          1172.89140	         9.33540e+57
          1173.69770	        -1.76247e+57
          1174.50400	         1.23253e+58
          1175.31030	         1.89645e+58
          1176.11660	         1.88859e+58
          1176.92290	         1.41606e+58
          1177.72920	         8.79524e+57
          1178.53550	         3.00158e+57
          1179.34180	         7.10807e+57
          1180.14810	         9.11116e+57
          1180.95440	         5.35293e+57
          1181.76070	         1.51509e+57
          1182.56700	         4.24914e+57
          1183.37330	         5.42546e+57
          1184.17960	         9.02486e+57
          1184.98590	         1.26113e+58
          1185.79220	         1.03922e+58
          1186.59850	         7.53929e+57
          1187.40480	         4.70465e+57
          1188.21110	         1.27109e+58
          1189.01740	         1.04561e+58
          1189.82370	         9.87343e+57
          1190.63000	         1.43727e+58
          1191.43630	         1.56760e+58
          1192.24260	         8.48342e+57
          1193.04890	         9.10790e+57
          1193.85520	         1.08776e+58
          1194.66150	         5.90319e+57
          1195.46780	         9.13138e+57
          1196.27410	         1.55522e+58
          1197.08040	         1.16491e+58
          1197.88670	         1.77754e+58
          1198.69300	         1.76929e+58
          1199.49930	         1.57118e+58
          1200.30560	         1.06376e+58
          1201.11190	         1.20398e+58
          1201.91820	         1.22789e+58
          1202.72450	         1.10833e+58
          1203.53080	         1.94241e+58
          1204.33710	         1.17574e+58
          1205.14340	         8.66036e+57
          1205.94970	         5.93232e+57
          1206.75600	         9.06391e+57
          1207.56230	         3.87533e+57
          1208.36860	         8.00665e+57
          1209.17490	         7.48713e+57
          1209.98120	         6.81607e+57
          1210.78750	         1.08829e+58
          1211.59380	         1.29922e+58
          1212.40010	         1.97502e+58
          1213.20640	         1.91317e+58
          1214.01270	         1.63431e+58
          1214.81900	         2.57513e+58
          1215.62530	         4.85330e+58
          1216.43160	         9.04814e+58
          1217.23790	         1.51761e+59
          1218.04420	         1.15826e+59
          1218.85050	         8.69715e+58
          1219.65680	         5.74625e+58
          1220.46310	         3.38154e+58
          1221.26940	         2.28824e+58
          1222.07570	         1.45551e+58
          1222.88200	         1.21576e+58
          1223.68830	         7.50188e+57
          1224.49460	         6.28086e+57
          1225.30090	         4.65733e+57
          1226.10720	         6.97481e+57
          1226.91350	         8.17680e+57
          1227.71980	         7.78798e+57
          1228.52610	         1.18044e+58
          1229.33240	         1.03908e+58
          1230.13870	         8.88477e+57
          1230.94500	         8.82156e+57
          1231.75130	         5.82815e+57
          1232.55760	         9.09556e+57
          1233.36390	         8.28320e+57
          1234.17020	         7.63573e+57
          1234.97650	         8.54775e+57
          1235.78280	         7.46469e+57
          1236.58910	         9.24814e+57
          1237.39540	         1.32692e+58
          1238.20170	         1.09965e+58
          1239.00800	         1.15156e+58
          1239.81430	         1.41804e+58
          1240.62060	         1.05531e+58
          1241.42690	         1.08676e+58
          1242.23320	         1.27632e+58
          1243.03950	         1.04456e+58
          1243.84580	         9.09752e+57
          1244.65210	         1.18949e+58
          1245.45840	         9.37843e+57
          1246.26470	         1.00988e+58
          1247.07100	         9.34696e+57
          1247.87730	         3.78279e+57
          1248.68360	         2.89296e+57
          1249.48990	         7.83704e+57
          1250.29620	         7.42143e+57
          1251.10250	         8.01967e+57
          1251.90880	         6.41718e+57
          1252.71510	         6.83634e+57
          1253.52140	         7.66802e+57
          1254.32770	         1.18171e+58
          1255.13400	         1.31402e+58
          1255.94030	         1.03300e+58
          1256.74660	         9.38987e+57
          1257.55290	         1.08689e+58
          1258.35920	         9.16891e+57
          1259.16550	         5.61921e+57
          1259.97180	         4.03177e+57
          1260.77810	         7.82159e+57
          1261.58440	         1.06096e+58
          1262.39070	         9.63201e+57
          1263.19700	         1.03723e+58
          1264.00330	         1.04390e+58
          1264.80960	         9.24831e+57
          1265.61590	         1.29088e+58
          1266.42220	         1.34487e+58
          1267.22850	         1.02817e+58
          1268.03480	         1.34481e+58
          1268.84110	         1.51680e+58
          1269.64740	         1.42363e+58
          1270.45370	         1.21884e+58
          1271.26000	         9.79001e+57
          1272.06630	         9.71827e+57
          1272.87260	         1.13331e+58
          1273.67890	         1.30627e+58
          1274.48520	         1.31165e+58
          1275.29150	         1.13757e+58
          1276.09780	         1.05515e+58
          1276.90410	         1.41857e+58
          1277.71040	         1.38011e+58
          1278.51670	         1.24938e+58
          1279.32300	         1.37371e+58
          1280.12930	         1.13767e+58
          1280.93560	         9.68991e+57
          1281.74190	         1.05130e+58
          1282.54820	         1.27926e+58
          1283.35450	         1.29996e+58
          1284.16080	         1.21331e+58
          1284.96710	         1.03088e+58
          1285.77340	         1.07862e+58
          1286.57970	         1.08310e+58
          1287.38600	         1.28862e+58
          1288.19230	         1.57745e+58
          1288.99860	         1.41524e+58
          1289.80490	         1.21621e+58
          1290.61120	         1.39125e+58
          1291.41750	         1.45564e+58
          1292.22380	         1.27538e+58
          1293.03010	         1.19473e+58
          1293.83640	         1.29108e+58
          1294.64270	         1.17209e+58
          1295.44900	         7.71846e+57
          1296.25530	         7.58903e+57
          1297.06160	         8.66919e+57
          1297.86790	         8.67615e+57
          1298.67420	         9.27434e+57
          1299.48050	         9.81106e+57
          1300.28680	         9.28501e+57
          1301.09310	         8.14991e+57
          1301.89940	         5.81195e+57
          1302.70570	         5.86199e+57
          1303.51200	         8.14027e+57
          1304.31830	         1.03418e+58
          1305.12460	         1.08020e+58
          1305.93090	         1.07505e+58
          1306.73720	         1.13092e+58
          1307.54350	         1.40578e+58
          1308.34980	         1.57994e+58
          1309.15610	         1.62302e+58
          1309.96240	         1.63997e+58
          1310.76870	         1.33946e+58
          1311.57500	         1.06911e+58
          1312.38130	         1.11069e+58
          1313.18760	         1.41012e+58
          1313.99390	         1.57215e+58
          1314.80020	         1.65381e+58
          1315.60650	         1.48663e+58
          1316.41280	         1.12458e+58
          1317.21910	         1.04460e+58
          1318.02540	         1.18320e+58
          1318.83170	         1.21852e+58
          1319.63800	         1.12489e+58
          1320.44430	         1.02595e+58
          1321.25060	         1.07888e+58
          1322.05690	         1.13379e+58
          1322.86320	         1.18358e+58
          1323.66950	         1.10969e+58
          1324.47580	         9.71214e+57
          1325.28210	         1.00007e+58
          1326.08840	         1.12319e+58
          1326.89470	         1.15682e+58
          1327.70100	         1.05068e+58
          1328.50730	         9.54825e+57
          1329.31360	         9.49855e+57
          1330.11990	         8.91355e+57
          1330.92620	         8.56524e+57
          1331.73250	         9.55684e+57
          1332.53880	         9.49635e+57
          1333.34510	         1.05163e+58
          1334.15140	         9.45716e+57
          1334.95770	         9.48214e+57
          1335.76400	         1.19534e+58
          1336.57030	         1.14162e+58
          1337.37660	         1.01064e+58
          1338.18290	         1.14634e+58
          1338.98920	         1.16107e+58
          1339.79550	         9.90144e+57
          1340.60180	         1.13397e+58
          1341.40810	         1.37504e+58
          1342.21440	         1.12158e+58
          1343.02070	         1.19323e+58
          1343.82700	         1.44122e+58
          1344.63330	         1.27525e+58
          1345.43960	         1.30262e+58
          1346.24590	         1.15863e+58
          1347.05220	         1.12819e+58
          1347.85850	         9.43847e+57
          1348.66480	         1.05892e+58
          1349.47110	         1.27700e+58
          1350.27740	         1.12485e+58
          1351.08370	         1.26263e+58
          1351.89000	         1.21402e+58
          1352.69630	         1.02045e+58
          1353.50260	         1.10837e+58
          1354.30890	         1.32509e+58
          1355.11520	         1.34162e+58
          1355.92150	         1.10978e+58
          1356.72780	         1.06110e+58
          1357.53410	         9.65710e+57
          1358.34040	         8.97968e+57
          1359.14670	         9.73085e+57
          1359.95300	         1.07286e+58
          1360.75930	         9.64668e+57
          1361.56560	         9.40301e+57
          1362.37190	         1.13778e+58
          1363.17820	         1.22494e+58
          1363.98450	         1.12269e+58
          1364.79080	         1.18720e+58
          1365.59710	         1.28899e+58
          1366.40340	         1.15301e+58
          1367.20970	         9.38245e+57
          1368.01600	         9.87699e+57
          1368.82230	         1.11799e+58
          1369.62860	         1.06954e+58
          1370.43490	         8.81677e+57
          1371.24120	         9.41830e+57
          1372.04750	         9.57829e+57
          1372.85380	         1.07052e+58
          1373.66010	         9.84702e+57
          1374.46640	         1.04168e+58
          1375.27270	         1.13101e+58
          1376.07900	         8.80318e+57
          1376.88530	         7.86078e+57
          1377.69160	         8.53351e+57
          1378.49790	         7.52895e+57
          1379.30420	         7.41463e+57
          1380.11050	         9.87443e+57
          1380.91680	         9.60190e+57
          1381.72310	         8.77649e+57
          1382.52940	         8.29818e+57
          1383.33570	         7.40030e+57
          1384.14200	         8.67625e+57
          1384.94830	         9.79206e+57
          1385.75460	         1.08820e+58
          1386.56090	         1.08755e+58
          1387.36720	         1.03593e+58
          1388.17350	         1.25900e+58
          1388.97980	         1.23738e+58
          1389.78610	         9.73248e+57
          1390.59240	         7.27451e+57
          1391.39870	         6.94755e+57
          1392.20500	         8.60993e+57
          1393.01130	         8.28002e+57
          1393.81760	         7.59740e+57
          1394.62390	         7.26158e+57
          1395.43020	         5.52474e+57
          1396.23650	         7.39424e+57
          1397.04280	         8.31312e+57
          1397.84910	         9.28986e+57
          1398.65540	         8.68086e+57
          1399.46170	         1.00344e+58
          1400.26800	         8.32140e+57
          1401.07430	         7.82726e+57
          1401.88060	         8.65784e+57
          1402.68690	         8.73952e+57
          1403.49320	         8.91709e+57
          1404.29950	         9.55074e+57
          1405.10580	         1.13245e+58
          1405.91210	         1.12077e+58
          1406.71840	         1.03603e+58
          1407.52470	         9.69520e+57
          1408.33100	         9.80703e+57
          1409.13730	         1.22023e+58
          1409.94360	         1.22507e+58
          1410.74990	         1.29244e+58
          1411.55620	         1.12441e+58
          1412.36250	         8.44790e+57
          1413.16880	         8.17178e+57
          1413.97510	         8.25513e+57
          1414.78140	         7.42410e+57
          1415.58770	         1.04713e+58
          1416.39400	         9.88086e+57
          1417.20030	         9.82841e+57
          1418.00660	         9.88623e+57
          1418.81290	         9.93590e+57
          1419.61920	         1.07170e+58
          1420.42550	         1.33892e+58
          1421.23180	         1.58238e+58
          1422.03810	         1.42279e+58
          1422.84440	         1.19100e+58
          1423.65070	         1.22527e+58
          1424.45700	         1.14518e+58
          1425.26330	         9.28488e+57
          1426.06960	         8.34732e+57
          1426.87590	         9.49922e+57
          1427.68220	         9.55016e+57
          1428.48850	         9.68515e+57
          1429.29480	         9.84190e+57
          1430.10110	         9.41501e+57
          1430.90740	         8.37793e+57
          1431.71370	         8.07886e+57
          1432.52000	         7.68667e+57
          1433.32630	         7.11212e+57
          1434.13260	         7.58962e+57
          1434.93890	         9.29306e+57
          1435.74520	         9.91877e+57
          1436.55150	         9.88921e+57
          1437.35780	         9.06920e+57
          1438.16410	         9.04695e+57
          1438.97040	         9.26148e+57
          1439.77670	         8.64419e+57
          1440.58300	         9.55356e+57
          1441.38930	         9.79323e+57
          1442.19560	         9.59726e+57
          1443.00190	         1.00977e+58
          1443.80820	         1.20265e+58
          1444.61450	         1.11282e+58
          1445.42080	         9.01042e+57
          1446.22710	         1.06236e+58
          1447.03340	         1.04989e+58
          1447.83970	         1.06423e+58
          1448.64600	         1.08961e+58
          1449.45230	         9.77566e+57
          1450.25860	         1.05755e+58
          1451.06490	         9.13279e+57
          1451.87120	         7.30993e+57
          1452.67750	         7.25530e+57
          1453.48380	         8.59983e+57
          1454.29010	         7.73854e+57
          1455.09640	         6.94314e+57
          1455.90270	         8.61714e+57
          1456.70900	         8.72833e+57
          1457.51530	         9.89590e+57
          1458.32160	         1.16769e+58
          1459.12790	         1.15741e+58
          1459.93420	         1.06704e+58
          1460.74050	         7.87221e+57
          1461.54680	         7.25533e+57
          1462.35310	         8.29599e+57
          1463.15940	         1.02215e+58
          1463.96570	         1.12902e+58
          1464.77200	         1.18948e+58
          1465.57830	         1.12462e+58
          1466.38460	         8.83475e+57
          1467.19090	         8.62545e+57
          1467.99720	         8.72840e+57
          1468.80350	         9.09118e+57
          1469.60980	         1.01501e+58
          1470.41610	         1.13684e+58
          1471.22240	         1.02443e+58
          1472.02870	         9.35489e+57
          1472.83500	         9.15110e+57
          1473.64130	         1.03322e+58
          1474.44760	         9.73089e+57
          1475.25390	         9.02714e+57
          1476.06020	         9.07108e+57
          1476.86650	         9.02021e+57
          1477.67280	         8.18124e+57
          1478.47910	         6.89200e+57
          1479.28540	         8.01106e+57
          1480.09170	         8.46146e+57
          1480.89800	         7.99064e+57
          1481.70430	         7.82270e+57
          1482.51060	         7.32384e+57
          1483.31690	         7.50236e+57
          1484.12320	         7.60777e+57
          1484.92950	         8.20170e+57
          1485.73580	         8.65280e+57
          1486.54210	         8.29753e+57
          1487.34840	         9.14975e+57
          1488.15470	         9.44602e+57
          1488.96100	         8.54089e+57
          1489.76730	         8.85036e+57
          1490.57360	         8.80042e+57
          1491.37990	         7.68399e+57
          1492.18620	         7.94784e+57
          1492.99250	         8.45625e+57
          1493.79880	         8.61420e+57
          1494.60510	         8.29925e+57
          1495.41140	         7.39840e+57
          1496.21770	         8.60985e+57
          1497.02400	         1.07958e+58
          1497.83030	         1.01145e+58
          1498.63660	         8.12448e+57
          1499.44290	         7.56513e+57
          1500.24920	         8.18244e+57
          1501.05550	         8.45653e+57
          1501.86180	         9.17614e+57
          1502.66810	         9.17234e+57
          1503.47440	         9.40203e+57
          1504.28070	         9.02274e+57
          1505.08700	         9.91392e+57
          1505.89330	         9.71969e+57
          1506.69960	         8.46280e+57
          1507.50590	         8.60792e+57
          1508.31220	         7.79549e+57
          1509.11850	         7.47170e+57
          1509.92480	         8.34119e+57
          1510.73110	         8.53194e+57
          1511.53740	         7.86477e+57
          1512.34370	         7.54139e+57
          1513.15000	         8.48274e+57
          1513.95630	         9.35336e+57
          1514.76260	         9.09821e+57
          1515.56890	         8.53430e+57
          1516.37520	         8.72307e+57
          1517.18150	         8.63784e+57
          1517.98780	         7.20633e+57
          1518.79410	         6.67932e+57
          1519.60040	         7.06152e+57
          1520.40670	         9.14030e+57
          1521.21300	         9.31630e+57
          1522.01930	         8.56905e+57
          1522.82560	         8.96159e+57
          1523.63190	         9.38057e+57
          1524.43820	         8.82479e+57
          1525.24450	         6.98752e+57
          1526.05080	         6.12989e+57
          1526.85710	         6.54557e+57
          1527.66340	         6.87765e+57
          1528.46970	         7.57011e+57
          1529.27600	         8.12823e+57
          1530.08230	         8.29823e+57
          1530.88860	         8.27039e+57
          1531.69490	         7.97317e+57
          1532.50120	         9.11257e+57
          1533.30750	         9.52019e+57
          1534.11380	         1.01336e+58
          1534.92010	         9.55253e+57
          1535.72640	         8.63252e+57
          1536.53270	         8.53555e+57
          1537.33900	         9.17741e+57
          1538.14530	         9.99939e+57
          1538.95160	         1.00271e+58
          1539.75790	         8.79199e+57
          1540.56420	         7.86460e+57
          1541.37050	         8.32284e+57
          1542.17680	         7.52813e+57
          1542.98310	         7.10750e+57
          1543.78940	         7.17793e+57
          1544.59570	         6.71344e+57
          1545.40200	         7.35303e+57
          1546.20830	         9.47768e+57
          1547.01460	         1.04717e+58
          1547.82090	         1.17046e+58
          1548.62720	         1.25751e+58
          1549.43350	         1.19448e+58
          1550.23980	         1.08319e+58
          1551.04610	         1.17672e+58
          1551.85240	         1.15134e+58
          1552.65870	         1.11022e+58
          1553.46500	         1.04446e+58
          1554.27130	         1.00824e+58
          1555.07760	         9.84873e+57
          1555.88390	         8.90847e+57
          1556.69020	         9.99002e+57
          1557.49650	         9.64156e+57
          1558.30280	         8.98251e+57
          1559.10910	         9.15413e+57
          1559.91540	         8.80967e+57
          1560.72170	         8.21075e+57
          1561.52800	         8.63781e+57
          1562.33430	         8.27052e+57
          1563.14060	         7.59870e+57
          1563.94690	         8.10439e+57
          1564.75320	         8.53369e+57
          1565.55950	         7.85574e+57
          1566.36580	         7.11777e+57
          1567.17210	         8.64047e+57
          1567.97840	         1.02265e+58
          1568.78470	         9.88221e+57
          1569.59100	         9.19548e+57
          1570.39730	         9.26214e+57
          1571.20360	         8.30556e+57
          1572.00990	         7.85603e+57
          1572.81620	         9.06934e+57
          1573.62250	         9.53354e+57
          1574.42880	         8.48364e+57
          1575.23510	         7.62752e+57
          1576.04140	         8.72724e+57
          1576.84770	         9.67516e+57
          1577.65400	         9.24960e+57
          1578.46030	         9.42446e+57
          1579.26660	         1.02243e+58
          1580.07290	         9.50930e+57
          1580.87920	         7.09085e+57
          1581.68550	         7.40788e+57
          1582.49180	         8.04468e+57
          1583.29810	         7.94389e+57
          1584.10440	         9.23973e+57
          1584.91070	         9.19923e+57
          1585.71700	         8.06023e+57
          1586.52330	         8.82620e+57
          1587.32960	         9.46276e+57
          1588.13590	         8.99940e+57
          1588.94220	         8.49950e+57
          1589.74850	         8.74853e+57
          1590.55480	         8.51836e+57
          1591.36110	         8.19340e+57
          1592.16740	         8.73267e+57
          1592.97370	         8.48101e+57
          1593.78000	         8.08463e+57
          1594.58630	         9.01027e+57
          1595.39260	         8.09256e+57
          1596.19890	         8.18708e+57
          1597.00520	         8.56151e+57
          1597.81150	         8.54503e+57
          1598.61780	         7.01883e+57
          1599.42410	         6.76435e+57
          1600.23040	         7.14043e+57
          1601.03670	         8.41041e+57
          1601.84300	         8.12154e+57
          1602.64930	         7.90956e+57
          1603.45560	         7.84331e+57
          1604.26190	         7.59696e+57
          1605.06820	         7.39220e+57
          1605.87450	         6.86703e+57
          1606.68080	         6.75948e+57
          1607.48710	         5.56074e+57
          1608.29340	         5.32823e+57
          1609.09970	         6.68029e+57
          1609.90600	         6.90259e+57
          1610.71230	         5.29533e+57
          1611.51860	         5.24596e+57
          1612.32490	         6.84348e+57
          1613.13120	         7.56611e+57
          1613.93750	         7.92532e+57
          1614.74380	         7.99545e+57
          1615.55010	         8.17722e+57
          1616.35640	         8.89891e+57
          1617.16270	         9.50443e+57
          1617.96900	         9.38531e+57
          1618.77530	         8.62528e+57
          1619.58160	         8.87019e+57
          1620.38790	         7.79905e+57
          1621.19420	         8.01714e+57
          1622.00050	         8.24373e+57
          1622.80680	         8.82870e+57
          1623.61310	         8.32611e+57
          1624.41940	         7.59120e+57
          1625.22570	         9.19606e+57
          1626.03200	         8.42212e+57
          1626.83830	         7.82103e+57
          1627.64460	         7.68092e+57
          1628.45090	         6.80368e+57
          1629.25720	         8.96928e+57
          1630.06350	         9.22422e+57
          1630.86980	         5.69518e+57
          1631.67610	         6.83814e+57
          1632.48240	         7.87743e+57
          1633.28870	         7.40743e+57
          1634.09500	         8.18939e+57
          1634.90130	         1.05125e+58
          1635.70760	         8.74678e+57
          1636.51390	         7.95221e+57
          1637.32020	         7.03071e+57
          1638.12650	         7.82921e+57
          1638.93280	         1.00100e+58
          1639.73910	         1.10478e+58
          1640.54540	         1.05437e+58
          1641.35170	         9.70693e+57
          1642.15800	         9.57109e+57
          1642.96430	         8.98454e+57
          1643.77060	         8.94170e+57
          1644.57690	         8.87237e+57
          1645.38320	         8.79838e+57
          1646.18950	         7.67236e+57
          1646.99580	         8.54991e+57
          1647.80210	         8.04237e+57
          1648.60840	         7.38412e+57
          1649.41470	         8.20835e+57
          1650.22100	         7.18240e+57
          1651.02730	         7.02918e+57
          1651.83360	         6.75472e+57
          1652.63990	         7.85178e+57
          1653.44620	         9.40515e+57
          1654.25250	         8.57514e+57
          1655.05880	         8.10366e+57
          1655.86510	         7.30797e+57
          1656.67140	         6.94696e+57
          1657.47770	         7.30747e+57
          1658.28400	         7.69737e+57
          1659.09030	         7.98498e+57
          1659.89660	         9.23930e+57
          1660.70290	         1.08098e+58
          1661.50920	         1.04173e+58
          1662.31550	         9.45781e+57
          1663.12180	         8.93695e+57
          1663.92810	         1.01577e+58
          1664.73440	         1.14707e+58
          1665.54070	         1.19118e+58
          1666.34700	         1.14144e+58
          1667.15330	         1.02075e+58
          1667.95960	         9.07484e+57
          1668.76590	         7.30810e+57
          1669.57220	         6.53984e+57
          1670.37850	         7.15485e+57
          1671.18480	         7.41413e+57
          1671.99110	         7.38656e+57
          1672.79740	         7.06434e+57
          1673.60370	         6.67448e+57
          1674.41000	         7.11691e+57
          1675.21630	         7.67191e+57
          1676.02260	         7.18819e+57
          1676.82890	         6.44751e+57
          1677.63520	         6.23001e+57
          1678.44150	         7.66125e+57
          1679.24780	         8.42129e+57
          1680.05410	         6.63473e+57
          1680.86040	         5.58205e+57
          1681.66670	         7.21579e+57
          1682.47300	         9.14648e+57
          1683.27930	         9.42552e+57
          1684.08560	         9.02822e+57
          1684.89190	         7.54388e+57
          1685.69820	         5.82197e+57
          1686.50450	         5.49693e+57
          1687.31080	         6.80368e+57
          1688.11710	         7.57234e+57
          1688.92340	         6.20636e+57
          1689.72970	         6.16885e+57
          1690.53600	         6.67141e+57
          1691.34230	         6.45643e+57
          1692.14860	         7.88533e+57
          1692.95490	         7.57957e+57
          1693.76120	         7.52112e+57
          1694.56750	         7.91584e+57
          1695.37380	         8.14203e+57
          1696.18010	         8.89248e+57
          1696.98640	         9.54540e+57
          1697.79270	         9.03570e+57
          1698.59900	         8.73952e+57
          1699.40530	         6.99354e+57
          1700.21160	         7.77897e+57
          1701.01790	         8.17401e+57
          1701.82420	         6.71698e+57
          1702.63050	         7.14912e+57
          1703.43680	         7.95409e+57
          1704.24310	         7.67424e+57
          1705.04940	         8.11423e+57
          1705.85570	         8.09517e+57
          1706.66200	         7.51863e+57
          1707.46830	         7.85541e+57
          1708.27460	         7.68325e+57
          1709.08090	         6.96071e+57
          1709.88720	         5.84945e+57
          1710.69350	         6.13235e+57
          1711.49980	         5.80766e+57
          1712.30610	         6.39269e+57
          1713.11240	         9.68643e+57
          1713.91870	         8.36741e+57
          1714.72500	         7.39618e+57
          1715.53130	         8.60064e+57
          1716.33760	         7.74244e+57
          1717.14390	         6.75088e+57
          1717.95020	         8.33419e+57
          1718.75650	         8.59103e+57
          1719.56280	         8.53753e+57
          1720.36910	         7.26923e+57
          1721.17540	         6.46345e+57
          1721.98170	         6.57991e+57
          1722.78800	         6.54439e+57
          1723.59430	         6.73260e+57
          1724.40060	         8.53338e+57
          1725.20690	         9.13357e+57
          1726.01320	         8.56260e+57
          1726.81950	         7.61907e+57
          1727.62580	         7.39124e+57
          1728.43210	         7.61493e+57
          1729.23840	         7.98754e+57
          1730.04470	         8.89415e+57
          1730.85100	         9.01072e+57
          1731.65730	         8.30997e+57
          1732.46360	         7.78563e+57
          1733.26990	         6.97683e+57
          1734.07620	         6.71731e+57
          1734.88250	         7.80865e+57
          1735.68880	         8.04854e+57
          1736.49510	         7.20168e+57
          1737.30140	         7.53404e+57
          1738.10770	         6.92165e+57
          1738.91400	         6.39043e+57
          1739.72030	         5.54608e+57
          1740.52660	         5.43249e+57
          1741.33290	         5.86298e+57
          1742.13920	         6.10499e+57
          1742.94550	         7.46047e+57
          1743.75180	         7.56637e+57
          1744.55810	         7.58539e+57
          1745.36440	         7.46772e+57
          1746.17070	         5.62836e+57
          1746.97700	         5.05310e+57
          1747.78330	         7.05254e+57
          1748.58960	         7.52335e+57
          1749.39590	         7.18017e+57
          1750.20220	         6.91502e+57
          1751.00850	         5.97201e+57
          1751.81480	         6.43739e+57
          1752.62110	         7.93383e+57
          1753.42740	         8.99095e+57
          1754.23370	         7.70332e+57
          1755.04000	         6.74607e+57
          1755.84630	         7.88392e+57
          1756.65260	         8.38841e+57
          1757.45890	         7.85453e+57
          1758.26520	         6.49601e+57
          1759.07150	         7.88945e+57
          1759.87780	         8.60026e+57
          1760.68410	         7.61923e+57
          1761.49040	         7.93127e+57
          1762.29670	         6.82732e+57
          1763.10300	         7.45390e+57
          1763.90930	         7.92143e+57
          1764.71560	         7.48316e+57
          1765.52190	         7.60082e+57
          1766.32820	         7.72690e+57
          1767.13450	         8.53729e+57
          1767.94080	         7.21716e+57
          1768.74710	         6.21805e+57
          1769.55340	         6.47047e+57
          1770.35970	         5.93763e+57
          1771.16600	         7.50553e+57
          1771.97230	         7.72737e+57
          1772.77860	         8.13840e+57
          1773.58490	         7.20437e+57
          1774.39120	         6.39759e+57
          1775.19750	         6.83757e+57
          1776.00380	         7.29466e+57
          1776.81010	         6.47787e+57
          1777.61640	         6.91815e+57
          1778.42270	         6.48800e+57
          1779.22900	         6.44661e+57
          1780.03530	         6.82881e+57
          1780.84160	         7.30180e+57
          1781.64790	         8.39608e+57
          1782.45420	         7.40567e+57
          1783.26050	         6.16505e+57
          1784.06680	         6.13448e+57
          1784.87310	         6.90160e+57
          1785.67940	         7.13475e+57
          1786.48570	         6.97239e+57
          1787.29200	         6.54165e+57
          1788.09830	         5.67366e+57
          1788.90460	         6.00755e+57
          1789.71090	         5.18553e+57
          1790.51720	         4.78970e+57
          1791.32350	         7.20286e+57
          1792.12980	         8.10718e+57
          1792.93610	         7.94284e+57
          1793.74240	         7.60761e+57
          1794.54870	         8.61892e+57
          1795.35500	         8.67015e+57
          1796.16130	         8.53294e+57
          1796.96760	         7.54300e+57
          1797.77390	         7.76210e+57
          1798.58020	         7.51121e+57
          1799.38650	         6.76344e+57
          1800.19280	         7.29963e+57
          1800.99910	         7.76774e+57
          1801.80540	         7.64473e+57
          1802.61170	         8.62098e+57
          1803.41800	         9.22233e+57
          1804.22430	         7.04023e+57
          1805.03060	         6.06629e+57
          1805.83690	         7.38431e+57
          1806.64320	         7.66221e+57
          1807.44950	         7.83337e+57
          1808.25580	         7.45976e+57
          1809.06210	         7.70109e+57
          1809.86840	         6.88750e+57
          1810.67470	         6.81433e+57
          1811.48100	         8.33911e+57
          1812.28730	         8.52192e+57
          1813.09360	         7.42027e+57
          1813.89990	         7.39819e+57
          1814.70620	         7.43668e+57
          1815.51250	         8.53261e+57
          1816.31880	         9.16805e+57
          1817.12510	         7.78592e+57
          1817.93140	         6.10414e+57
          1818.73770	         6.26849e+57
          1819.54400	         7.74724e+57
          1820.35030	         8.71412e+57
          1821.15660	         7.11046e+57
          1821.96290	         7.30120e+57
          1822.76920	         7.47338e+57
          1823.57550	         7.40956e+57
          1824.38180	         8.28266e+57
          1825.18810	         8.10135e+57
          1825.99440	         8.42490e+57
          1826.80070	         8.43232e+57
          1827.60700	         7.36376e+57
          1828.41330	         6.15085e+57
          1829.21960	         6.84127e+57
          1830.02590	         6.96744e+57
          1830.83220	         7.54824e+57
          1831.63850	         7.96049e+57
          1832.44480	         7.32413e+57
          1833.25110	         8.08345e+57
          1834.05740	         8.07276e+57
          1834.86370	         6.98413e+57
          1835.67000	         7.04237e+57
          1836.47630	         7.82567e+57
          1837.28260	         8.99246e+57
          1838.08890	         8.41490e+57
          1838.89520	         8.44307e+57
          1839.70150	         7.63205e+57
          1840.50780	         7.15313e+57
          1841.31410	         6.83091e+57
          1842.12040	         6.79924e+57
          1842.92670	         7.38262e+57
          1843.73300	         6.77411e+57
          1844.53930	         6.89646e+57
          1845.34560	         7.93159e+57
          1846.15190	         8.45273e+57
          1846.95820	         6.81162e+57
          1847.76450	         5.72972e+57
          1848.57080	         4.69562e+57
          1849.37710	         6.07675e+57
          1850.18340	         7.81284e+57
          1850.98970	         8.33213e+57
          1851.79600	         8.05165e+57
          1852.60230	         6.64647e+57
          1853.40860	         7.33814e+57
          1854.21490	         7.72894e+57
          1855.02120	         5.29005e+57
          1855.82750	         4.41933e+57
          1856.63380	         6.65623e+57
          1857.44010	         7.88061e+57
          1858.24640	         7.02531e+57
          1859.05270	         5.83136e+57
          1859.85900	         4.98444e+57
          1860.66530	         6.07528e+57
          1861.47160	         7.52939e+57
          1862.27790	         7.65536e+57
          1863.08420	         8.47303e+57
          1863.89050	         8.30134e+57
          1864.69680	         7.53039e+57
          1865.50310	         7.94698e+57
          1866.30940	         6.02617e+57
          1867.11570	         5.92328e+57
          1867.92200	         7.60896e+57
          1868.72830	         7.83911e+57
          1869.53460	         6.87228e+57
          1870.34090	         7.81727e+57
          1871.14720	         8.09644e+57
          1871.95350	         8.02448e+57
          1872.75980	         7.61936e+57
          1873.56610	         6.11833e+57
          1874.37240	         6.01676e+57
          1875.17870	         5.59595e+57
          1875.98500	         6.60250e+57
          1876.79130	         8.10032e+57
          1877.59760	         6.80773e+57
          1878.40390	         5.32832e+57
          1879.21020	         4.86093e+57
          1880.01650	         6.51495e+57
          1880.82280	         8.42073e+57
          1881.62910	         9.52660e+57
          1882.43540	         1.04798e+58
          1883.24170	         7.84787e+57
          1884.04800	         5.97944e+57
          1884.85430	         8.23567e+57
          1885.66060	         7.93269e+57
          1886.46690	         7.20278e+57
          1887.27320	         7.44871e+57
          1888.07950	         6.53897e+57
          1888.88580	         7.22004e+57
          1889.69210	         8.78916e+57
          1890.49840	         8.63283e+57
          1891.30470	         7.53974e+57
          1892.11100	         7.13007e+57
          1892.91730	         7.20575e+57
          1893.72360	         6.69333e+57
          1894.52990	         7.59948e+57
          1895.33620	         9.27353e+57
          1896.14250	         7.45128e+57
          1896.94880	         7.02491e+57
          1897.75510	         6.26990e+57
          1898.56140	         6.28509e+57
          1899.36770	         7.29907e+57
          1900.17400	         6.04447e+57
          1900.98030	         5.23750e+57
          1901.78660	         7.19843e+57
          1902.59290	         7.48256e+57
          1903.39920	         8.13838e+57
          1904.20550	         9.39106e+57
          1905.01180	         9.62417e+57
          1905.81810	         1.01772e+58
          1906.62440	         1.21837e+58
          1907.43070	         1.42416e+58
          1908.23700	         1.45773e+58
          1909.04330	         1.15617e+58
          1909.84960	         1.13876e+58
          1910.65590	         1.08324e+58
          1911.46220	         9.25813e+57
          1912.26850	         6.77484e+57
          1913.07480	         4.59691e+57
          1913.88110	         4.45119e+57
          1914.68740	         5.90049e+57
          1915.49370	         6.20422e+57
          1916.30000	         6.25722e+57
          1917.10630	         6.85693e+57
          1917.91260	         7.06152e+57
          1918.71890	         7.66155e+57
          1919.52520	         6.99500e+57
          1920.33150	         5.29183e+57
          1921.13780	         6.19279e+57
          1921.94410	         7.14923e+57
          1922.75040	         7.60605e+57
          1923.55670	         8.21285e+57
          1924.36300	         7.20788e+57
          1925.16930	         6.19173e+57
          1925.97560	         5.41051e+57
          1926.78190	         5.35227e+57
          1927.58820	         5.70482e+57
          1928.39450	         4.72921e+57
          1929.20080	         5.19256e+57
          1930.00710	         6.94992e+57
          1930.81340	         8.24938e+57
          1931.61970	         7.03973e+57
          1932.42600	         8.06912e+57
          1933.23230	         8.82593e+57
          1934.03860	         6.29326e+57
          1934.84490	         5.22582e+57
          1935.65120	         7.01809e+57
          1936.45750	         8.37803e+57
          1937.26380	         7.17534e+57
          1938.07010	         7.39162e+57
          1938.87640	         7.46892e+57
          1939.68270	         7.77899e+57
          1940.48900	         7.83054e+57
          1941.29530	         7.99542e+57
          1942.10160	         7.65501e+57
          1942.90790	         6.90405e+57
          1943.71420	         5.90906e+57
          1944.52050	         5.46842e+57
          1945.32680	         6.78732e+57
          1946.13310	         6.91312e+57
          1946.93940	         7.46410e+57
          1947.74570	         7.63533e+57
          1948.55200	         6.37823e+57
          1949.35830	         5.98750e+57
          1950.16460	         5.73099e+57
          1950.97090	         7.08855e+57
          1951.77720	         7.88631e+57
          1952.58350	         8.60589e+57
          1953.38980	         7.18804e+57
          1954.19610	         5.31321e+57
          1955.00240	         5.56649e+57
          1955.80870	         6.43199e+57
          1956.61500	         6.05733e+57
          1957.42130	         5.00602e+57
          1958.22760	         6.51055e+57
          1959.03390	         7.76820e+57
          1959.84020	         7.41091e+57
          1960.64650	         7.23881e+57
          1961.45280	         6.56007e+57
          1962.25910	         6.16762e+57
          1963.06540	         5.85232e+57
          1963.87170	         6.76470e+57
          1964.67800	         6.76207e+57
          1965.48430	         7.53771e+57
          1966.29060	         6.16292e+57
          1967.09690	         6.11776e+57
          1967.90320	         5.60955e+57
          1968.70950	         5.54541e+57
          1969.51580	         6.07275e+57
          1970.32210	         7.93369e+57
          1971.12840	         8.35715e+57
          1971.93470	         6.13019e+57
          1972.74100	         4.38563e+57
          1973.54730	         5.49888e+57
          1974.35360	         7.25228e+57
          1975.15990	         7.40724e+57
          1975.96620	         7.12257e+57
          1976.77250	         7.09707e+57
          1977.57880	         7.87663e+57
          1978.38510	         6.35380e+57
          1979.19140	         5.96651e+57
          1979.99770	         6.93403e+57
          1980.80400	         6.70369e+57
          1981.61030	         6.81800e+57
          1982.41660	         6.29103e+57
          1983.22290	         5.59777e+57
          1984.02920	         5.83168e+57
          1984.83550	         5.41907e+57
          1985.64180	         6.64338e+57
          1986.44810	         6.44227e+57
          1987.25440	         6.16583e+57
          1988.06070	         5.27462e+57
          1988.86700	         6.26611e+57
          1989.67330	         6.81272e+57
          1990.47960	         6.09830e+57
          1991.28590	         6.49071e+57
          1992.09220	         6.11422e+57
          1992.89850	         6.34216e+57
          1993.70480	         5.19033e+57
          1994.51110	         5.01758e+57
          1995.31740	         4.34412e+57
          1996.12370	         4.48571e+57
          1996.93000	         6.18667e+57
          1997.73630	         7.66820e+57
          1998.54260	         7.25062e+57
          1999.34890	         7.38911e+57
          2000.15520	         7.08366e+57
          2000.96150	         7.05633e+57
          2001.76780	         6.80206e+57
          2002.57410	         5.67481e+57
          2003.38040	         6.06707e+57
          2004.18670	         5.86991e+57
          2004.99300	         4.56425e+57
          2005.79930	         6.18046e+57
          2006.60560	         6.50070e+57
          2007.41190	         6.70012e+57
          2008.21820	         7.12257e+57
          2009.02450	         7.34487e+57
          2009.83080	         7.13778e+57
          2010.63710	         6.61806e+57
          2011.44340	         6.71163e+57
          2012.24970	         6.87730e+57
          2013.05600	         7.06965e+57
          2013.86230	         5.60740e+57
          2014.66860	         4.53117e+57
          2015.47490	         6.15886e+57
          2016.28120	         5.37495e+57
          2017.08750	         5.32946e+57
          2017.89380	         5.75818e+57
          2018.70010	         6.69036e+57
          2019.50640	         5.98419e+57
          2020.31270	         6.97803e+57
          2021.11900	         5.80019e+57
          2021.92530	         6.98370e+57
          2022.73160	         7.17043e+57
          2023.53790	         6.90575e+57
          2024.34420	         5.80920e+57
          2025.15050	         5.87021e+57
          2025.95680	         5.17738e+57
          2026.76310	         5.62993e+57
          2027.56940	         6.11738e+57
          2028.37570	         5.72432e+57
          2029.18200	         6.15487e+57
          2029.98830	         7.13470e+57
          2030.79460	         6.12484e+57
          2031.60090	         6.00816e+57
          2032.40720	         6.27279e+57
          2033.21350	         5.19358e+57
          2034.01980	         5.35361e+57
          2034.82610	         4.23369e+57
          2035.63240	         5.15241e+57
          2036.43870	         6.00176e+57
          2037.24500	         6.50677e+57
          2038.05130	         6.52659e+57
          2038.85760	         5.78663e+57
          2039.66390	         6.46630e+57
          2040.47020	         6.95361e+57
          2041.27650	         6.70317e+57
          2042.08280	         5.08381e+57
          2042.88910	         6.53079e+57
          2043.69540	         5.33526e+57
          2044.50170	         4.38188e+57
          2045.30800	         5.45254e+57
          2046.11430	         4.79979e+57
          2046.92060	         6.03598e+57
          2047.72690	         7.67405e+57
          2048.53320	         7.58279e+57
          2049.33950	         5.81261e+57
          2050.14580	         4.44962e+57
          2050.95210	         5.42839e+57
          2051.75840	         6.92132e+57
          2052.56470	         5.36856e+57
          2053.37100	         4.83788e+57
          2054.17730	         4.12336e+57
          2054.98360	         4.97702e+57
          2055.78990	         4.05360e+57
          2056.59620	         3.43639e+57
          2057.40250	         5.63644e+57
          2058.20880	         7.40815e+57
          2059.01510	         6.53216e+57
          2059.82140	         7.14013e+57
          2060.62770	         1.17169e+58
          2061.43400	         1.58882e+58
          2062.24030	         1.15487e+58
          2063.04660	         4.39912e+57
          2063.85290	         2.66117e+56
          2064.65920	        -2.65794e+57
          2065.46550	        -9.88278e+57
          2066.27180	        -8.06178e+57
          2067.07810	         2.96262e+57
          2067.88440	         5.59063e+57
          2068.69070	         5.28943e+57
          2069.49700	         5.32218e+57
          2070.30330	         4.03013e+57
          2071.10960	         5.48962e+57
          2071.91590	         7.30864e+57
          2072.72220	         4.31105e+57
          2073.52850	         4.81023e+57
          2074.33480	         5.24333e+57
          2075.14110	         4.12331e+57
          2075.94740	         5.13148e+57
          2076.75370	         5.19717e+57
          2077.56000	         4.73935e+57
          2078.36630	         5.46403e+57
          2079.17260	         5.14342e+57
          2079.97890	         6.61537e+57
          2080.78520	         5.94051e+57
          2081.59150	         4.70274e+57
          2082.39780	         3.73780e+57
          2083.20410	         2.22261e+57
          2084.01040	         3.53959e+57
          2084.81670	         4.25357e+57
          2085.62300	         3.40524e+57
          2086.42930	         3.43173e+57
          2087.23560	         2.98210e+57
          2088.04190	         3.51926e+57
          2088.84820	         3.48619e+57
          2089.65450	         3.61354e+57
          2090.46080	         3.69760e+57
          2091.26710	         1.40284e+57
          2092.07340	         2.65018e+57
          2092.87970	         2.40035e+57
          2093.68600	        -7.44489e+56
          2094.49230	        -2.72953e+56
          2095.29860	         3.15502e+57
          2096.10490	         2.25535e+57
          2096.91120	         2.01729e+57
          2097.71750	        -5.39774e+56
          2098.52380	        -4.06881e+56
          2099.33010	         7.06234e+56
          2100.13640	         1.10454e+57
          2100.94270	         1.21417e+57
          2101.74900	         2.77638e+57
          2102.55530	         4.10685e+57
          2103.36160	         1.04458e+57
          2104.16790	         8.58363e+56
          2104.97420	         2.41807e+55
          2105.78050	        -8.42700e+56
          2106.58680	        -1.14726e+57
          2107.39310	        -4.82821e+57
          2108.19940	         6.81677e+56
          2109.00570	         1.38508e+56
          2109.81200	        -1.00120e+56
          2110.61830	         2.09468e+57
          2111.42460	         2.37614e+57
          2112.23090	         1.77863e+56
          2113.03720	         3.15030e+56
          2113.84350	         2.63637e+57
          2114.64980	         6.69621e+57
          2115.45610	         8.57900e+56
          2116.26240	         7.58539e+56
          2117.06870	        -7.22548e+56
          2117.87500	        -2.77505e+57
          2118.68130	         3.49472e+56
          2119.48760	         3.94761e+57
          2120.29390	         4.85148e+57
          2121.10020	        -7.10940e+56
          2121.90650	         1.05265e+57
          2122.71280	         2.35210e+57
          2123.51910	         2.61060e+57
          2124.32540	         4.45354e+57
          2125.13170	         1.65181e+57
          2125.93800	         2.49181e+57
          2126.74430	         2.26584e+57
          2127.55060	        -5.65280e+57
          2128.35690	        -1.01893e+58
          2129.16320	        -8.01397e+57
          2129.96950	        -7.40050e+56
          2130.77580	        -3.46858e+57
          2131.58210	         1.08019e+57
          2132.38840	         6.12173e+57
          2133.19470	         1.66716e+57
          2134.00100	         3.77127e+57
          2134.80730	        -6.77228e+57
          2135.61360	         6.51619e+57
          2136.41990	         7.77372e+57
          2137.22620	        -1.76919e+56
          2138.03250	        -1.55670e+57
          2138.83880	         2.53379e+57
          2139.64510	         2.04470e+57
          2140.45140	        -8.35818e+57
          2141.25770	        -1.06006e+58
          2142.06400	        -5.55468e+57
          2142.87030	        -6.05035e+57
          2143.67660	        -5.73735e+57
          2144.48290	         5.56008e+57
          2145.28920	         2.31921e+57
          2146.09550	        -1.56837e+58
          2146.90180	        -1.74246e+58
          2147.70810	        -6.77007e+57
          2148.51440	        -6.82961e+57
          2149.32070	        -9.03593e+57
          2150.12700	        -7.24677e+57
          2150.93330	        -6.53712e+57
          2151.73960	        -3.62404e+57
          2152.54590	        -9.17384e+56
          2153.35220	        -8.94599e+57
          2154.15850	        -1.38436e+58
          2154.96480	         2.27038e+57
          2155.77110	         3.90868e+57
          2156.57740	        -3.40552e+57
          2157.38370	         1.67093e+57
          2158.19000	        -6.66345e+57
          2158.99630	        -6.13616e+57
          2159.80260	        -1.58238e+58
          2160.60890	        -1.96182e+58
          2161.41520	        -6.52146e+57
          2162.22150	        -3.84819e+57
          2163.02780	         1.27142e+57
          2163.83410	        -2.34085e+57
          2164.64040	        -7.17843e+57
          2165.44670	        -1.11997e+58
          2166.25300	        -1.33853e+58
          2167.05930	        -5.54155e+57
          2167.86560	        -2.34241e+57
          2168.67190	        -7.64752e+57
          2169.47820	        -9.36793e+57
          2170.28450	         8.97156e+56
          2171.09080	        -5.19500e+57
          2171.89710	        -1.86276e+57
          2172.70340	        -1.14824e+58
          2173.50970	        -7.08649e+57
          2174.31600	        -3.62528e+57
          2175.12230	        -2.91988e+57
          2175.92860	        -6.65180e+57
          2176.73490	        -1.22256e+58
          2177.54120	        -8.07799e+57
          2178.34750	        -1.72668e+57
          2179.15380	                 nan
          2179.96010	                 nan
          2180.76640	                 nan
          2181.57270	                 nan
          2182.37900	                 nan
          2183.18530	                 nan
          2183.99160	                 nan
          2184.79790	                 nan
          2185.60420	                 nan
          2186.41050	                 nan
          2187.21680	                 nan
          2188.02310	                 nan
          2188.82940	                 nan
          2189.63570	                 nan
          2190.44200	                 nan
          2191.24830	                 nan
          2192.05460	                 nan
          2192.86090	                 nan
          2193.66720	                 nan
          2194.47350	                 nan
          2195.27980	                 nan
          2196.08610	                 nan
          2196.89240	                 nan
          2197.69870	                 nan
          2198.50500	                 nan
          2199.31130	                 nan
          2200.11760	                 nan
          2200.92390	                 nan
          2201.73020	                 nan
          2202.53650	                 nan
          2203.34280	                 nan
          2204.14910	                 nan
          2204.95540	                 nan
          2205.76170	                 nan
          2206.56800	                 nan
          2207.37430	                 nan
          2208.18060	                 nan
          2208.98690	                 nan
          2209.79320	                 nan
          2210.59950	                 nan
          2211.40580	                 nan
          2212.21210	                 nan
          2213.01840	                 nan
          2213.82470	                 nan
          2214.63100	                 nan
          2215.43730	         0.00000e+00
