#sample_351_stacked_spectrum_rest_UV-bands_median_H-alpha_noDC.txt
#median Lum: 1.70142e+42
#Rest-frame wavelength (A) | Luminosity (erg/s/A)
#
          1110.00000	         0.00000e+00
          1110.80630	        -4.39540e+58
          1111.61260	        -5.21462e+57
          1112.41890	         2.96079e+59
          1113.22520	         1.08686e+59
          1114.03150	        -2.12516e+59
          1114.83780	         8.16701e+58
          1115.64410	         7.27259e+58
          1116.45040	         1.27225e+59
          1117.25670	         2.97125e+58
          1118.06300	         7.35982e+58
          1118.86930	         2.18791e+58
          1119.67560	         2.92439e+58
          1120.48190	         3.49213e+58
          1121.28820	        -1.62638e+59
          1122.09450	         1.10989e+58
          1122.90080	         7.68068e+58
          1123.70710	         7.18906e+58
          1124.51340	         6.81479e+58
          1125.31970	         5.60380e+58
          1126.12600	         2.65374e+58
          1126.93230	        -2.33762e+58
          1127.73860	        -5.98770e+58
          1128.54490	        -1.50197e+58
          1129.35120	        -8.24986e+57
          1130.15750	        -9.31071e+57
          1130.96380	        -1.19691e+58
          1131.77010	         1.02713e+59
          1132.57640	         8.11955e+58
          1133.38270	         4.32550e+58
          1134.18900	         2.32577e+58
          1134.99530	         2.24096e+58
          1135.80160	         2.35777e+58
          1136.60790	        -2.82027e+57
          1137.41420	         1.12358e+58
          1138.22050	         3.40743e+58
          1139.02680	         3.82372e+58
          1139.83310	         1.81625e+58
          1140.63940	         1.53545e+58
          1141.44570	        -2.88009e+58
          1142.25200	        -1.50686e+58
          1143.05830	         1.30235e+58
          1143.86460	         3.08216e+58
          1144.67090	         2.64062e+58
          1145.47720	         2.58678e+58
          1146.28350	         2.13168e+58
          1147.08980	         1.25739e+58
          1147.89610	         8.79972e+57
          1148.70240	         1.25012e+58
          1149.50870	         1.44030e+58
          1150.31500	         2.33365e+58
          1151.12130	         1.01967e+58
          1151.92760	         5.39048e+57
          1152.73390	         1.16351e+58
          1153.54020	         3.72028e+57
          1154.34650	         2.27236e+58
          1155.15280	         1.38167e+58
          1155.95910	         2.18299e+58
          1156.76540	         7.59477e+57
          1157.57170	        -4.88256e+57
          1158.37800	        -7.67013e+57
          1159.18430	        -5.22036e+57
          1159.99060	         8.75516e+56
          1160.79690	         3.99368e+57
          1161.60320	         1.08628e+58
          1162.40950	         1.26602e+58
          1163.21580	         1.47227e+58
          1164.02210	         2.04192e+58
          1164.82840	         4.61522e+57
          1165.63470	         2.03201e+58
          1166.44100	         2.48025e+58
          1167.24730	         2.30992e+58
          1168.05360	         3.70099e+57
          1168.85990	         7.93380e+57
          1169.66620	         1.55846e+58
          1170.47250	         1.52301e+58
          1171.27880	         4.12364e+57
          1172.08510	         4.54872e+57
          1172.89140	         1.58107e+58
          1173.69770	         9.26844e+57
          1174.50400	         1.30218e+58
          1175.31030	         1.99667e+58
          1176.11660	         1.93756e+58
          1176.92290	         1.29121e+58
          1177.72920	         1.11888e+58
          1178.53550	         1.31027e+57
          1179.34180	        -2.73029e+57
          1180.14810	         4.41945e+57
          1180.95440	         7.56900e+57
          1181.76070	         7.91125e+57
          1182.56700	         5.34713e+57
          1183.37330	        -2.64132e+56
          1184.17960	         1.10424e+58
          1184.98590	         1.26157e+58
          1185.79220	         1.03211e+58
          1186.59850	         1.47090e+58
          1187.40480	         1.13643e+58
          1188.21110	         1.11181e+58
          1189.01740	         1.15112e+58
          1189.82370	         1.21164e+58
          1190.63000	         1.74001e+58
          1191.43630	         1.66812e+58
          1192.24260	         8.80335e+57
          1193.04890	         1.15307e+58
          1193.85520	         5.37363e+57
          1194.66150	         7.58041e+56
          1195.46780	         1.19950e+58
          1196.27410	         1.26771e+58
          1197.08040	         7.78413e+57
          1197.88670	         1.50065e+58
          1198.69300	         1.65842e+58
          1199.49930	         1.55221e+58
          1200.30560	         9.34360e+57
          1201.11190	         1.17754e+58
          1201.91820	         1.08552e+58
          1202.72450	         8.67177e+57
          1203.53080	         1.33752e+58
          1204.33710	         9.76412e+57
          1205.14340	         9.45888e+57
          1205.94970	         9.78684e+57
          1206.75600	         5.76015e+57
          1207.56230	         2.10798e+57
          1208.36860	         9.75207e+57
          1209.17490	         7.21731e+57
          1209.98120	         6.94149e+57
          1210.78750	         5.50718e+57
          1211.59380	         9.44656e+57
          1212.40010	         1.92238e+58
          1213.20640	         1.98766e+58
          1214.01270	         2.21942e+58
          1214.81900	         2.72925e+58
          1215.62530	         4.45676e+58
          1216.43160	         8.97462e+58
          1217.23790	         1.49741e+59
          1218.04420	         1.18573e+59
          1218.85050	         9.01458e+58
          1219.65680	         6.08307e+58
          1220.46310	         3.41507e+58
          1221.26940	         2.28635e+58
          1222.07570	         1.66567e+58
          1222.88200	         1.20057e+58
          1223.68830	         1.09554e+58
          1224.49460	         7.97846e+57
          1225.30090	         5.15423e+57
          1226.10720	         6.14938e+57
          1226.91350	         7.26585e+57
          1227.71980	         7.52930e+57
          1228.52610	         1.26803e+58
          1229.33240	         8.55810e+57
          1230.13870	         6.08895e+57
          1230.94500	         6.81723e+57
          1231.75130	         9.33936e+57
          1232.55760	         7.35974e+57
          1233.36390	         8.08663e+57
          1234.17020	         8.11172e+57
          1234.97650	         6.42152e+57
          1235.78280	         7.29596e+57
          1236.58910	         6.21627e+57
          1237.39540	         9.40976e+57
          1238.20170	         1.27006e+58
          1239.00800	         1.38952e+58
          1239.81430	         1.77505e+58
          1240.62060	         1.41897e+58
          1241.42690	         1.15497e+58
          1242.23320	         1.05986e+58
          1243.03950	         8.82311e+57
          1243.84580	         9.63516e+57
          1244.65210	         9.98263e+57
          1245.45840	         7.24820e+57
          1246.26470	         8.61749e+57
          1247.07100	         5.06833e+57
          1247.87730	         5.32231e+57
          1248.68360	         3.82943e+57
          1249.48990	         7.69042e+57
          1250.29620	         8.86087e+57
          1251.10250	         7.42247e+57
          1251.90880	         5.73847e+57
          1252.71510	         4.42225e+57
          1253.52140	         4.88571e+57
          1254.32770	         1.00670e+58
          1255.13400	         1.28029e+58
          1255.94030	         1.06816e+58
          1256.74660	         1.04018e+58
          1257.55290	         1.08206e+58
          1258.35920	         7.12573e+57
          1259.16550	         5.89620e+57
          1259.97180	         6.22230e+57
          1260.77810	         9.71074e+57
          1261.58440	         1.23927e+58
          1262.39070	         9.21038e+57
          1263.19700	         7.49900e+57
          1264.00330	         8.76439e+57
          1264.80960	         1.08191e+58
          1265.61590	         1.29266e+58
          1266.42220	         1.28527e+58
          1267.22850	         9.49346e+57
          1268.03480	         1.24913e+58
          1268.84110	         1.44390e+58
          1269.64740	         1.22204e+58
          1270.45370	         1.23634e+58
          1271.26000	         1.26974e+58
          1272.06630	         1.20727e+58
          1272.87260	         1.25341e+58
          1273.67890	         1.27660e+58
          1274.48520	         1.50102e+58
          1275.29150	         1.49863e+58
          1276.09780	         1.12310e+58
          1276.90410	         1.40041e+58
          1277.71040	         1.37197e+58
          1278.51670	         1.27355e+58
          1279.32300	         1.51579e+58
          1280.12930	         1.25385e+58
          1280.93560	         1.05490e+58
          1281.74190	         1.15117e+58
          1282.54820	         1.25222e+58
          1283.35450	         1.29672e+58
          1284.16080	         1.05096e+58
          1284.96710	         1.01366e+58
          1285.77340	         9.57596e+57
          1286.57970	         1.16233e+58
          1287.38600	         1.62873e+58
          1288.19230	         1.78943e+58
          1288.99860	         1.52508e+58
          1289.80490	         1.20495e+58
          1290.61120	         1.39075e+58
          1291.41750	         1.30559e+58
          1292.22380	         1.11542e+58
          1293.03010	         1.19764e+58
          1293.83640	         1.20104e+58
          1294.64270	         8.54727e+57
          1295.44900	         7.18467e+57
          1296.25530	         8.62749e+57
          1297.06160	         9.68098e+57
          1297.86790	         1.12890e+58
          1298.67420	         9.82216e+57
          1299.48050	         9.95197e+57
          1300.28680	         1.27096e+58
          1301.09310	         1.07508e+58
          1301.89940	         4.80522e+57
          1302.70570	         6.00364e+57
          1303.51200	         8.41885e+57
          1304.31830	         1.11135e+58
          1305.12460	         1.15443e+58
          1305.93090	         1.04684e+58
          1306.73720	         1.17944e+58
          1307.54350	         1.41017e+58
          1308.34980	         1.41951e+58
          1309.15610	         1.44701e+58
          1309.96240	         1.42706e+58
          1310.76870	         1.30617e+58
          1311.57500	         1.10065e+58
          1312.38130	         1.01414e+58
          1313.18760	         1.27066e+58
          1313.99390	         1.36471e+58
          1314.80020	         1.48704e+58
          1315.60650	         1.50287e+58
          1316.41280	         1.22809e+58
          1317.21910	         1.12127e+58
          1318.02540	         1.12833e+58
          1318.83170	         1.28354e+58
          1319.63800	         1.32421e+58
          1320.44430	         1.31690e+58
          1321.25060	         1.30528e+58
          1322.05690	         1.29102e+58
          1322.86320	         1.17925e+58
          1323.66950	         1.04376e+58
          1324.47580	         9.99220e+57
          1325.28210	         1.04698e+58
          1326.08840	         1.11534e+58
          1326.89470	         1.22099e+58
          1327.70100	         1.07949e+58
          1328.50730	         9.22552e+57
          1329.31360	         1.16686e+58
          1330.11990	         1.21507e+58
          1330.92620	         1.09704e+58
          1331.73250	         1.14802e+58
          1332.53880	         1.12817e+58
          1333.34510	         9.74613e+57
          1334.15140	         9.02799e+57
          1334.95770	         9.06527e+57
          1335.76400	         1.10731e+58
          1336.57030	         1.20724e+58
          1337.37660	         1.17702e+58
          1338.18290	         1.15315e+58
          1338.98920	         1.13265e+58
          1339.79550	         1.14209e+58
          1340.60180	         1.21586e+58
          1341.40810	         1.51388e+58
          1342.21440	         1.37024e+58
          1343.02070	         1.14122e+58
          1343.82700	         1.19672e+58
          1344.63330	         1.20434e+58
          1345.43960	         1.34984e+58
          1346.24590	         1.36085e+58
          1347.05220	         1.35499e+58
          1347.85850	         1.22346e+58
          1348.66480	         1.21930e+58
          1349.47110	         1.44591e+58
          1350.27740	         1.36326e+58
          1351.08370	         1.32850e+58
          1351.89000	         1.37858e+58
          1352.69630	         1.14426e+58
          1353.50260	         9.23726e+57
          1354.30890	         1.06213e+58
          1355.11520	         1.17665e+58
          1355.92150	         1.00826e+58
          1356.72780	         9.98098e+57
          1357.53410	         1.20654e+58
          1358.34040	         1.18790e+58
          1359.14670	         1.06843e+58
          1359.95300	         1.14714e+58
          1360.75930	         1.16936e+58
          1361.56560	         9.90309e+57
          1362.37190	         1.08616e+58
          1363.17820	         1.16428e+58
          1363.98450	         1.17401e+58
          1364.79080	         1.36454e+58
          1365.59710	         1.42021e+58
          1366.40340	         1.21663e+58
          1367.20970	         1.01393e+58
          1368.01600	         9.41206e+57
          1368.82230	         1.03262e+58
          1369.62860	         1.15314e+58
          1370.43490	         9.03477e+57
          1371.24120	         8.70920e+57
          1372.04750	         9.03925e+57
          1372.85380	         1.17068e+58
          1373.66010	         1.23722e+58
          1374.46640	         1.12823e+58
          1375.27270	         1.05365e+58
          1376.07900	         9.38220e+57
          1376.88530	         9.80706e+57
          1377.69160	         9.88350e+57
          1378.49790	         7.41553e+57
          1379.30420	         8.02146e+57
          1380.11050	         9.30003e+57
          1380.91680	         7.64912e+57
          1381.72310	         8.69933e+57
          1382.52940	         9.85528e+57
          1383.33570	         9.62277e+57
          1384.14200	         1.15373e+58
          1384.94830	         1.24253e+58
          1385.75460	         1.11125e+58
          1386.56090	         1.17833e+58
          1387.36720	         1.17954e+58
          1388.17350	         1.34416e+58
          1388.97980	         1.17407e+58
          1389.78610	         8.99457e+57
          1390.59240	         7.75149e+57
          1391.39870	         6.45757e+57
          1392.20500	         8.12848e+57
          1393.01130	         8.90358e+57
          1393.81760	         8.27000e+57
          1394.62390	         8.00707e+57
          1395.43020	         5.86147e+57
          1396.23650	         6.66802e+57
          1397.04280	         8.04730e+57
          1397.84910	         8.66055e+57
          1398.65540	         8.52277e+57
          1399.46170	         9.41012e+57
          1400.26800	         8.77398e+57
          1401.07430	         8.53203e+57
          1401.88060	         7.75547e+57
          1402.68690	         9.33975e+57
          1403.49320	         9.89400e+57
          1404.29950	         8.28674e+57
          1405.10580	         9.99768e+57
          1405.91210	         1.08256e+58
          1406.71840	         1.07368e+58
          1407.52470	         1.01041e+58
          1408.33100	         9.47394e+57
          1409.13730	         1.06460e+58
          1409.94360	         1.12347e+58
          1410.74990	         1.11200e+58
          1411.55620	         1.05873e+58
          1412.36250	         9.79259e+57
          1413.16880	         7.50659e+57
          1413.97510	         7.87308e+57
          1414.78140	         9.36522e+57
          1415.58770	         1.00607e+58
          1416.39400	         1.06394e+58
          1417.20030	         1.03773e+58
          1418.00660	         1.02494e+58
          1418.81290	         1.03346e+58
          1419.61920	         9.23552e+57
          1420.42550	         1.18250e+58
          1421.23180	         1.37139e+58
          1422.03810	         1.24422e+58
          1422.84440	         1.20658e+58
          1423.65070	         1.27045e+58
          1424.45700	         1.05412e+58
          1425.26330	         7.31923e+57
          1426.06960	         7.10638e+57
          1426.87590	         8.64270e+57
          1427.68220	         1.06151e+58
          1428.48850	         1.11008e+58
          1429.29480	         1.00250e+58
          1430.10110	         9.19590e+57
          1430.90740	         8.47005e+57
          1431.71370	         8.65382e+57
          1432.52000	         8.10704e+57
          1433.32630	         7.91798e+57
          1434.13260	         7.56557e+57
          1434.93890	         8.55373e+57
          1435.74520	         8.90718e+57
          1436.55150	         8.47650e+57
          1437.35780	         8.00865e+57
          1438.16410	         8.68043e+57
          1438.97040	         9.17236e+57
          1439.77670	         8.75474e+57
          1440.58300	         8.28791e+57
          1441.38930	         8.41872e+57
          1442.19560	         9.40280e+57
          1443.00190	         9.59192e+57
          1443.80820	         1.06563e+58
          1444.61450	         9.69365e+57
          1445.42080	         8.93235e+57
          1446.22710	         1.02280e+58
          1447.03340	         9.96918e+57
          1447.83970	         9.86742e+57
          1448.64600	         1.03644e+58
          1449.45230	         9.99844e+57
          1450.25860	         9.92003e+57
          1451.06490	         8.98378e+57
          1451.87120	         7.66165e+57
          1452.67750	         7.09753e+57
          1453.48380	         8.42704e+57
          1454.29010	         8.00762e+57
          1455.09640	         7.88295e+57
          1455.90270	         8.76217e+57
          1456.70900	         7.32759e+57
          1457.51530	         7.97701e+57
          1458.32160	         1.17189e+58
          1459.12790	         1.19554e+58
          1459.93420	         9.40400e+57
          1460.74050	         7.21495e+57
          1461.54680	         7.55225e+57
          1462.35310	         7.05601e+57
          1463.15940	         8.99975e+57
          1463.96570	         1.10450e+58
          1464.77200	         1.11895e+58
          1465.57830	         9.70045e+57
          1466.38460	         8.14315e+57
          1467.19090	         7.93287e+57
          1467.99720	         9.54300e+57
          1468.80350	         1.02447e+58
          1469.60980	         1.01084e+58
          1470.41610	         1.06563e+58
          1471.22240	         1.01280e+58
          1472.02870	         1.01311e+58
          1472.83500	         9.63435e+57
          1473.64130	         9.77143e+57
          1474.44760	         1.10633e+58
          1475.25390	         9.37590e+57
          1476.06020	         8.43017e+57
          1476.86650	         9.21519e+57
          1477.67280	         8.15762e+57
          1478.47910	         6.48857e+57
          1479.28540	         6.94464e+57
          1480.09170	         8.14247e+57
          1480.89800	         8.02240e+57
          1481.70430	         9.23774e+57
          1482.51060	         9.23409e+57
          1483.31690	         8.86869e+57
          1484.12320	         8.81931e+57
          1484.92950	         8.29574e+57
          1485.73580	         8.89081e+57
          1486.54210	         9.24414e+57
          1487.34840	         8.13584e+57
          1488.15470	         8.69124e+57
          1488.96100	         9.41226e+57
          1489.76730	         7.73187e+57
          1490.57360	         8.00186e+57
          1491.37990	         8.62534e+57
          1492.18620	         9.23021e+57
          1492.99250	         9.23099e+57
          1493.79880	         8.56774e+57
          1494.60510	         7.90565e+57
          1495.41140	         7.08237e+57
          1496.21770	         8.49434e+57
          1497.02400	         9.59068e+57
          1497.83030	         7.48767e+57
          1498.63660	         7.17517e+57
          1499.44290	         7.13243e+57
          1500.24920	         7.14910e+57
          1501.05550	         8.02141e+57
          1501.86180	         8.50400e+57
          1502.66810	         9.04778e+57
          1503.47440	         9.62410e+57
          1504.28070	         9.17023e+57
          1505.08700	         8.26528e+57
          1505.89330	         8.40415e+57
          1506.69960	         8.64440e+57
          1507.50590	         8.62785e+57
          1508.31220	         8.08204e+57
          1509.11850	         8.75465e+57
          1509.92480	         9.74600e+57
          1510.73110	         1.03224e+58
          1511.53740	         8.18790e+57
          1512.34370	         6.99893e+57
          1513.15000	         7.75238e+57
          1513.95630	         9.68162e+57
          1514.76260	         9.07914e+57
          1515.56890	         7.83700e+57
          1516.37520	         8.38759e+57
          1517.18150	         8.54432e+57
          1517.98780	         7.78926e+57
          1518.79410	         6.74347e+57
          1519.60040	         7.46877e+57
          1520.40670	         9.40240e+57
          1521.21300	         9.60670e+57
          1522.01930	         8.92203e+57
          1522.82560	         9.11582e+57
          1523.63190	         1.09681e+58
          1524.43820	         9.57200e+57
          1525.24450	         7.24922e+57
          1526.05080	         6.57409e+57
          1526.85710	         6.30697e+57
          1527.66340	         7.11231e+57
          1528.46970	         7.68188e+57
          1529.27600	         7.46126e+57
          1530.08230	         7.66714e+57
          1530.88860	         6.71846e+57
          1531.69490	         7.71757e+57
          1532.50120	         9.01462e+57
          1533.30750	         9.33166e+57
          1534.11380	         8.96970e+57
          1534.92010	         8.79873e+57
          1535.72640	         9.34247e+57
          1536.53270	         9.50466e+57
          1537.33900	         8.71539e+57
          1538.14530	         7.89607e+57
          1538.95160	         8.81668e+57
          1539.75790	         8.49477e+57
          1540.56420	         8.17175e+57
          1541.37050	         8.31917e+57
          1542.17680	         8.72826e+57
          1542.98310	         7.63323e+57
          1543.78940	         7.43000e+57
          1544.59570	         6.70407e+57
          1545.40200	         7.46793e+57
          1546.20830	         9.09508e+57
          1547.01460	         1.02900e+58
          1547.82090	         1.13754e+58
          1548.62720	         1.28546e+58
          1549.43350	         1.17881e+58
          1550.23980	         1.07981e+58
          1551.04610	         1.16352e+58
          1551.85240	         1.33475e+58
          1552.65870	         1.17506e+58
          1553.46500	         9.80877e+57
          1554.27130	         1.01298e+58
          1555.07760	         9.98610e+57
          1555.88390	         8.30814e+57
          1556.69020	         9.14159e+57
          1557.49650	         8.49707e+57
          1558.30280	         8.18644e+57
          1559.10910	         8.46526e+57
          1559.91540	         9.11495e+57
          1560.72170	         8.79785e+57
          1561.52800	         8.64612e+57
          1562.33430	         9.32830e+57
          1563.14060	         8.67716e+57
          1563.94690	         8.74360e+57
          1564.75320	         8.38743e+57
          1565.55950	         7.35497e+57
          1566.36580	         7.82696e+57
          1567.17210	         9.59976e+57
          1567.97840	         9.28302e+57
          1568.78470	         8.21463e+57
          1569.59100	         8.50450e+57
          1570.39730	         8.20504e+57
          1571.20360	         7.44815e+57
          1572.00990	         8.75297e+57
          1572.81620	         8.51230e+57
          1573.62250	         8.70088e+57
          1574.42880	         9.72437e+57
          1575.23510	         8.42364e+57
          1576.04140	         9.56910e+57
          1576.84770	         9.86450e+57
          1577.65400	         8.78179e+57
          1578.46030	         9.57152e+57
          1579.26660	         9.98792e+57
          1580.07290	         9.68650e+57
          1580.87920	         7.86177e+57
          1581.68550	         8.56151e+57
          1582.49180	         8.79030e+57
          1583.29810	         7.56911e+57
          1584.10440	         7.83334e+57
          1584.91070	         9.08698e+57
          1585.71700	         8.37418e+57
          1586.52330	         7.30559e+57
          1587.32960	         8.41031e+57
          1588.13590	         8.70585e+57
          1588.94220	         8.12349e+57
          1589.74850	         9.69535e+57
          1590.55480	         9.57000e+57
          1591.36110	         7.91622e+57
          1592.16740	         8.35611e+57
          1592.97370	         8.85937e+57
          1593.78000	         9.09632e+57
          1594.58630	         9.62837e+57
          1595.39260	         8.56303e+57
          1596.19890	         7.98464e+57
          1597.00520	         9.32806e+57
          1597.81150	         9.91348e+57
          1598.61780	         7.53234e+57
          1599.42410	         6.58706e+57
          1600.23040	         6.85208e+57
          1601.03670	         7.88449e+57
          1601.84300	         7.09001e+57
          1602.64930	         8.31789e+57
          1603.45560	         8.50788e+57
          1604.26190	         8.18860e+57
          1605.06820	         7.51962e+57
          1605.87450	         7.06244e+57
          1606.68080	         7.25961e+57
          1607.48710	         6.30934e+57
          1608.29340	         5.61533e+57
          1609.09970	         7.31404e+57
          1609.90600	         7.76530e+57
          1610.71230	         6.13234e+57
          1611.51860	         6.51189e+57
          1612.32490	         6.66530e+57
          1613.13120	         7.37015e+57
          1613.93750	         8.10698e+57
          1614.74380	         8.97256e+57
          1615.55010	         9.09745e+57
          1616.35640	         9.17878e+57
          1617.16270	         9.90084e+57
          1617.96900	         1.05364e+58
          1618.77530	         8.73542e+57
          1619.58160	         7.65267e+57
          1620.38790	         8.34221e+57
          1621.19420	         9.21240e+57
          1622.00050	         7.91732e+57
          1622.80680	         8.79431e+57
          1623.61310	         8.35073e+57
          1624.41940	         8.32006e+57
          1625.22570	         8.65116e+57
          1626.03200	         8.74776e+57
          1626.83830	         8.18878e+57
          1627.64460	         6.74916e+57
          1628.45090	         7.48800e+57
          1629.25720	         9.70586e+57
          1630.06350	         1.05795e+58
          1630.86980	         6.65446e+57
          1631.67610	         6.69707e+57
          1632.48240	         8.76372e+57
          1633.28870	         8.08090e+57
          1634.09500	         9.37342e+57
          1634.90130	         1.10683e+58
          1635.70760	         1.00112e+58
          1636.51390	         8.12173e+57
          1637.32020	         7.70152e+57
          1638.12650	         9.34226e+57
          1638.93280	         8.94546e+57
          1639.73910	         1.05924e+58
          1640.54540	         1.14902e+58
          1641.35170	         8.96775e+57
          1642.15800	         8.96684e+57
          1642.96430	         8.48988e+57
          1643.77060	         8.95215e+57
          1644.57690	         8.81727e+57
          1645.38320	         8.85065e+57
          1646.18950	         7.77759e+57
          1646.99580	         8.58112e+57
          1647.80210	         7.77102e+57
          1648.60840	         7.75548e+57
          1649.41470	         8.31200e+57
          1650.22100	         6.93590e+57
          1651.02730	         6.49495e+57
          1651.83360	         6.85714e+57
          1652.63990	         7.17400e+57
          1653.44620	         8.76692e+57
          1654.25250	         8.61785e+57
          1655.05880	         7.81048e+57
          1655.86510	         7.31439e+57
          1656.67140	         7.83467e+57
          1657.47770	         8.02055e+57
          1658.28400	         8.87923e+57
          1659.09030	         9.01565e+57
          1659.89660	         9.38841e+57
          1660.70290	         9.58316e+57
          1661.50920	         9.58154e+57
          1662.31550	         8.99902e+57
          1663.12180	         8.19273e+57
          1663.92810	         9.51191e+57
          1664.73440	         1.12788e+58
          1665.54070	         1.18117e+58
          1666.34700	         1.18824e+58
          1667.15330	         1.13662e+58
          1667.95960	         9.69704e+57
          1668.76590	         7.09485e+57
          1669.57220	         6.60166e+57
          1670.37850	         7.55903e+57
          1671.18480	         8.99691e+57
          1671.99110	         8.58239e+57
          1672.79740	         7.71884e+57
          1673.60370	         6.99030e+57
          1674.41000	         6.85100e+57
          1675.21630	         7.60661e+57
          1676.02260	         5.85490e+57
          1676.82890	         6.02366e+57
          1677.63520	         6.80772e+57
          1678.44150	         7.64134e+57
          1679.24780	         8.29393e+57
          1680.05410	         6.92165e+57
          1680.86040	         5.73433e+57
          1681.66670	         6.36759e+57
          1682.47300	         7.56612e+57
          1683.27930	         7.98479e+57
          1684.08560	         8.52812e+57
          1684.89190	         8.71337e+57
          1685.69820	         6.04264e+57
          1686.50450	         4.75451e+57
          1687.31080	         7.13255e+57
          1688.11710	         7.80720e+57
          1688.92340	         7.19952e+57
          1689.72970	         7.25881e+57
          1690.53600	         8.02981e+57
          1691.34230	         7.89267e+57
          1692.14860	         8.65543e+57
          1692.95490	         8.60872e+57
          1693.76120	         7.65151e+57
          1694.56750	         7.46930e+57
          1695.37380	         8.43895e+57
          1696.18010	         8.83367e+57
          1696.98640	         8.45959e+57
          1697.79270	         7.77234e+57
          1698.59900	         8.03568e+57
          1699.40530	         7.94419e+57
          1700.21160	         7.46301e+57
          1701.01790	         8.27900e+57
          1701.82420	         7.23020e+57
          1702.63050	         7.42732e+57
          1703.43680	         8.63135e+57
          1704.24310	         9.22184e+57
          1705.04940	         8.84929e+57
          1705.85570	         8.25610e+57
          1706.66200	         8.19944e+57
          1707.46830	         8.81097e+57
          1708.27460	         7.74637e+57
          1709.08090	         6.73006e+57
          1709.88720	         7.02739e+57
          1710.69350	         6.82850e+57
          1711.49980	         6.84122e+57
          1712.30610	         7.35653e+57
          1713.11240	         9.08488e+57
          1713.91870	         8.08841e+57
          1714.72500	         7.06300e+57
          1715.53130	         8.51224e+57
          1716.33760	         8.68359e+57
          1717.14390	         7.90672e+57
          1717.95020	         8.31474e+57
          1718.75650	         8.36798e+57
          1719.56280	         8.24183e+57
          1720.36910	         6.95708e+57
          1721.17540	         7.06503e+57
          1721.98170	         6.53418e+57
          1722.78800	         6.59020e+57
          1723.59430	         6.71009e+57
          1724.40060	         7.16275e+57
          1725.20690	         8.48042e+57
          1726.01320	         8.47024e+57
          1726.81950	         7.93987e+57
          1727.62580	         7.38360e+57
          1728.43210	         7.79196e+57
          1729.23840	         7.76250e+57
          1730.04470	         8.13126e+57
          1730.85100	         8.47947e+57
          1731.65730	         8.22405e+57
          1732.46360	         7.72345e+57
          1733.26990	         7.58408e+57
          1734.07620	         7.25327e+57
          1734.88250	         7.35066e+57
          1735.68880	         7.28953e+57
          1736.49510	         7.65612e+57
          1737.30140	         8.12744e+57
          1738.10770	         6.80309e+57
          1738.91400	         8.00665e+57
          1739.72030	         7.51951e+57
          1740.52660	         6.46766e+57
          1741.33290	         5.63432e+57
          1742.13920	         4.95932e+57
          1742.94550	         6.92306e+57
          1743.75180	         7.80726e+57
          1744.55810	         7.87375e+57
          1745.36440	         6.86407e+57
          1746.17070	         6.17403e+57
          1746.97700	         5.40087e+57
          1747.78330	         7.00487e+57
          1748.58960	         7.05350e+57
          1749.39590	         6.95929e+57
          1750.20220	         6.74034e+57
          1751.00850	         5.93199e+57
          1751.81480	         7.05945e+57
          1752.62110	         7.68176e+57
          1753.42740	         7.43330e+57
          1754.23370	         5.76809e+57
          1755.04000	         5.79241e+57
          1755.84630	         7.62890e+57
          1756.65260	         9.42418e+57
          1757.45890	         8.46342e+57
          1758.26520	         6.96540e+57
          1759.07150	         7.98833e+57
          1759.87780	         8.77106e+57
          1760.68410	         7.96118e+57
          1761.49040	         7.35761e+57
          1762.29670	         6.71746e+57
          1763.10300	         7.38344e+57
          1763.90930	         7.48169e+57
          1764.71560	         7.75720e+57
          1765.52190	         7.68507e+57
          1766.32820	         8.18879e+57
          1767.13450	         7.62560e+57
          1767.94080	         7.41905e+57
          1768.74710	         8.23253e+57
          1769.55340	         7.67667e+57
          1770.35970	         6.28328e+57
          1771.16600	         6.79676e+57
          1771.97230	         7.86084e+57
          1772.77860	         8.58200e+57
          1773.58490	         7.80308e+57
          1774.39120	         6.51527e+57
          1775.19750	         5.92856e+57
          1776.00380	         6.84141e+57
          1776.81010	         7.34495e+57
          1777.61640	         6.98348e+57
          1778.42270	         6.68711e+57
          1779.22900	         7.22301e+57
          1780.03530	         6.17353e+57
          1780.84160	         7.41855e+57
          1781.64790	         9.16247e+57
          1782.45420	         7.85017e+57
          1783.26050	         6.54531e+57
          1784.06680	         7.92742e+57
          1784.87310	         6.85362e+57
          1785.67940	         7.22487e+57
          1786.48570	         7.24698e+57
          1787.29200	         6.43558e+57
          1788.09830	         5.76626e+57
          1788.90460	         5.05224e+57
          1789.71090	         5.66434e+57
          1790.51720	         5.14584e+57
          1791.32350	         6.81338e+57
          1792.12980	         8.18107e+57
          1792.93610	         7.66803e+57
          1793.74240	         6.83950e+57
          1794.54870	         8.29162e+57
          1795.35500	         8.80948e+57
          1796.16130	         7.20365e+57
          1796.96760	         6.62288e+57
          1797.77390	         6.91577e+57
          1798.58020	         7.65868e+57
          1799.38650	         6.39867e+57
          1800.19280	         7.17810e+57
          1800.99910	         8.35736e+57
          1801.80540	         7.48139e+57
          1802.61170	         8.00798e+57
          1803.41800	         7.89069e+57
          1804.22430	         7.79978e+57
          1805.03060	         8.44464e+57
          1805.83690	         8.51858e+57
          1806.64320	         8.89913e+57
          1807.44950	         7.66288e+57
          1808.25580	         6.08294e+57
          1809.06210	         7.89807e+57
          1809.86840	         6.02900e+57
          1810.67470	         5.84904e+57
          1811.48100	         8.49854e+57
          1812.28730	         8.18189e+57
          1813.09360	         7.36806e+57
          1813.89990	         8.66862e+57
          1814.70620	         7.34992e+57
          1815.51250	         8.15166e+57
          1816.31880	         8.55618e+57
          1817.12510	         7.58688e+57
          1817.93140	         6.01633e+57
          1818.73770	         6.43433e+57
          1819.54400	         8.33877e+57
          1820.35030	         7.77706e+57
          1821.15660	         6.05009e+57
          1821.96290	         5.63219e+57
          1822.76920	         7.13325e+57
          1823.57550	         7.79362e+57
          1824.38180	         7.75228e+57
          1825.18810	         8.27203e+57
          1825.99440	         8.56048e+57
          1826.80070	         7.19079e+57
          1827.60700	         6.59540e+57
          1828.41330	         6.38924e+57
          1829.21960	         6.44561e+57
          1830.02590	         7.88413e+57
          1830.83220	         8.00894e+57
          1831.63850	         7.22432e+57
          1832.44480	         7.24883e+57
          1833.25110	         7.67219e+57
          1834.05740	         8.11923e+57
          1834.86370	         7.13144e+57
          1835.67000	         6.51373e+57
          1836.47630	         7.44837e+57
          1837.28260	         8.29667e+57
          1838.08890	         8.18190e+57
          1838.89520	         7.91487e+57
          1839.70150	         7.44981e+57
          1840.50780	         7.34746e+57
          1841.31410	         7.35174e+57
          1842.12040	         7.65157e+57
          1842.92670	         8.20541e+57
          1843.73300	         6.90197e+57
          1844.53930	         6.31104e+57
          1845.34560	         7.01083e+57
          1846.15190	         7.15821e+57
          1846.95820	         7.56614e+57
          1847.76450	         6.92956e+57
          1848.57080	         6.59030e+57
          1849.37710	         6.03788e+57
          1850.18340	         6.19007e+57
          1850.98970	         6.02094e+57
          1851.79600	         6.46052e+57
          1852.60230	         6.79044e+57
          1853.40860	         6.64371e+57
          1854.21490	         6.08091e+57
          1855.02120	         6.32324e+57
          1855.82750	         6.11196e+57
          1856.63380	         6.89592e+57
          1857.44010	         7.61347e+57
          1858.24640	         7.05131e+57
          1859.05270	         7.32277e+57
          1859.85900	         5.47846e+57
          1860.66530	         5.66679e+57
          1861.47160	         6.97346e+57
          1862.27790	         7.32358e+57
          1863.08420	         7.29687e+57
          1863.89050	         7.47862e+57
          1864.69680	         7.70102e+57
          1865.50310	         7.58452e+57
          1866.30940	         6.51735e+57
          1867.11570	         6.06895e+57
          1867.92200	         7.88865e+57
          1868.72830	         7.66684e+57
          1869.53460	         7.47240e+57
          1870.34090	         8.19162e+57
          1871.14720	         7.62957e+57
          1871.95350	         7.25622e+57
          1872.75980	         7.76537e+57
          1873.56610	         7.67635e+57
          1874.37240	         6.67302e+57
          1875.17870	         7.38477e+57
          1875.98500	         7.78344e+57
          1876.79130	         8.41342e+57
          1877.59760	         7.32888e+57
          1878.40390	         5.82067e+57
          1879.21020	         6.75178e+57
          1880.01650	         7.35528e+57
          1880.82280	         8.62471e+57
          1881.62910	         9.00817e+57
          1882.43540	         9.03220e+57
          1883.24170	         8.24699e+57
          1884.04800	         7.11032e+57
          1884.85430	         7.01092e+57
          1885.66060	         7.94383e+57
          1886.46690	         8.14316e+57
          1887.27320	         8.32398e+57
          1888.07950	         7.08054e+57
          1888.88580	         6.55061e+57
          1889.69210	         8.37834e+57
          1890.49840	         8.28233e+57
          1891.30470	         8.01181e+57
          1892.11100	         8.23701e+57
          1892.91730	         7.86439e+57
          1893.72360	         7.06460e+57
          1894.52990	         7.22687e+57
          1895.33620	         8.26958e+57
          1896.14250	         6.93280e+57
          1896.94880	         5.77921e+57
          1897.75510	         4.87151e+57
          1898.56140	         5.74660e+57
          1899.36770	         7.30868e+57
          1900.17400	         6.10385e+57
          1900.98030	         5.56391e+57
          1901.78660	         7.60796e+57
          1902.59290	         7.89361e+57
          1903.39920	         8.21116e+57
          1904.20550	         8.15815e+57
          1905.01180	         7.89437e+57
          1905.81810	         9.20406e+57
          1906.62440	         1.20352e+58
          1907.43070	         1.47930e+58
          1908.23700	         1.54203e+58
          1909.04330	         1.28819e+58
          1909.84960	         1.10737e+58
          1910.65590	         9.67187e+57
          1911.46220	         9.49712e+57
          1912.26850	         6.99351e+57
          1913.07480	         6.14076e+57
          1913.88110	         5.72370e+57
          1914.68740	         6.31610e+57
          1915.49370	         6.54053e+57
          1916.30000	         6.65703e+57
          1917.10630	         6.90609e+57
          1917.91260	         6.56093e+57
          1918.71890	         6.34679e+57
          1919.52520	         5.51055e+57
          1920.33150	         5.32568e+57
          1921.13780	         7.20726e+57
          1921.94410	         8.00999e+57
          1922.75040	         7.42844e+57
          1923.55670	         7.07006e+57
          1924.36300	         7.52419e+57
          1925.16930	         7.56175e+57
          1925.97560	         5.47847e+57
          1926.78190	         4.08391e+57
          1927.58820	         5.90331e+57
          1928.39450	         6.58689e+57
          1929.20080	         6.28392e+57
          1930.00710	         7.26345e+57
          1930.81340	         7.83767e+57
          1931.61970	         6.99119e+57
          1932.42600	         8.00162e+57
          1933.23230	         8.92856e+57
          1934.03860	         6.69865e+57
          1934.84490	         5.58791e+57
          1935.65120	         8.57425e+57
          1936.45750	         8.59558e+57
          1937.26380	         6.75235e+57
          1938.07010	         7.48551e+57
          1938.87640	         7.03181e+57
          1939.68270	         6.74238e+57
          1940.48900	         7.45945e+57
          1941.29530	         8.13995e+57
          1942.10160	         7.88575e+57
          1942.90790	         6.29999e+57
          1943.71420	         5.97971e+57
          1944.52050	         6.75434e+57
          1945.32680	         5.62820e+57
          1946.13310	         6.47124e+57
          1946.93940	         7.48075e+57
          1947.74570	         6.45583e+57
          1948.55200	         6.29200e+57
          1949.35830	         6.01998e+57
          1950.16460	         6.23278e+57
          1950.97090	         6.40472e+57
          1951.77720	         6.98454e+57
          1952.58350	         7.51158e+57
          1953.38980	         6.47823e+57
          1954.19610	         4.81015e+57
          1955.00240	         5.00393e+57
          1955.80870	         6.26702e+57
          1956.61500	         6.06903e+57
          1957.42130	         5.47876e+57
          1958.22760	         7.12598e+57
          1959.03390	         7.35676e+57
          1959.84020	         7.07674e+57
          1960.64650	         6.73856e+57
          1961.45280	         5.34947e+57
          1962.25910	         5.66609e+57
          1963.06540	         6.60023e+57
          1963.87170	         5.99523e+57
          1964.67800	         6.80191e+57
          1965.48430	         6.88052e+57
          1966.29060	         5.91705e+57
          1967.09690	         6.65049e+57
          1967.90320	         5.91932e+57
          1968.70950	         6.19033e+57
          1969.51580	         6.82424e+57
          1970.32210	         7.41508e+57
          1971.12840	         7.45795e+57
          1971.93470	         4.72411e+57
          1972.74100	         4.92176e+57
          1973.54730	         6.37500e+57
          1974.35360	         6.56940e+57
          1975.15990	         7.13051e+57
          1975.96620	         6.46192e+57
          1976.77250	         7.46626e+57
          1977.57880	         7.40409e+57
          1978.38510	         6.73798e+57
          1979.19140	         7.08945e+57
          1979.99770	         7.62966e+57
          1980.80400	         6.72178e+57
          1981.61030	         7.49625e+57
          1982.41660	         6.19627e+57
          1983.22290	         5.36758e+57
          1984.02920	         3.53383e+57
          1984.83550	         5.61710e+57
          1985.64180	         6.80578e+57
          1986.44810	         6.15255e+57
          1987.25440	         6.11071e+57
          1988.06070	         6.22620e+57
          1988.86700	         6.78973e+57
          1989.67330	         7.09483e+57
          1990.47960	         6.45928e+57
          1991.28590	         5.63592e+57
          1992.09220	         6.27914e+57
          1992.89850	         5.95104e+57
          1993.70480	         5.94902e+57
          1994.51110	         5.46043e+57
          1995.31740	         4.04076e+57
          1996.12370	         4.00538e+57
          1996.93000	         5.70455e+57
          1997.73630	         7.20264e+57
          1998.54260	         7.47012e+57
          1999.34890	         6.70296e+57
          2000.15520	         7.06665e+57
          2000.96150	         7.05995e+57
          2001.76780	         6.65921e+57
          2002.57410	         5.53403e+57
          2003.38040	         7.04745e+57
          2004.18670	         6.74211e+57
          2004.99300	         5.71953e+57
          2005.79930	         6.60557e+57
          2006.60560	         6.28559e+57
          2007.41190	         5.08417e+57
          2008.21820	         6.69422e+57
          2009.02450	         7.28351e+57
          2009.83080	         6.60028e+57
          2010.63710	         7.38825e+57
          2011.44340	         6.93151e+57
          2012.24970	         6.63222e+57
          2013.05600	         6.06054e+57
          2013.86230	         6.34245e+57
          2014.66860	         5.41854e+57
          2015.47490	         5.98913e+57
          2016.28120	         6.55768e+57
          2017.08750	         5.94767e+57
          2017.89380	         5.96327e+57
          2018.70010	         6.98630e+57
          2019.50640	         7.05821e+57
          2020.31270	         6.68664e+57
          2021.11900	         6.97174e+57
          2021.92530	         7.92672e+57
          2022.73160	         7.90205e+57
          2023.53790	         7.99725e+57
          2024.34420	         6.98484e+57
          2025.15050	         6.60121e+57
          2025.95680	         6.52229e+57
          2026.76310	         6.29257e+57
          2027.56940	         6.20094e+57
          2028.37570	         7.02230e+57
          2029.18200	         6.85395e+57
          2029.98830	         6.02560e+57
          2030.79460	         5.12083e+57
          2031.60090	         5.56064e+57
          2032.40720	         4.77184e+57
          2033.21350	         5.41541e+57
          2034.01980	         6.26122e+57
          2034.82610	         5.04867e+57
          2035.63240	         6.10508e+57
          2036.43870	         6.24945e+57
          2037.24500	         6.45815e+57
          2038.05130	         5.86173e+57
          2038.85760	         5.29761e+57
          2039.66390	         5.81342e+57
          2040.47020	         5.12385e+57
          2041.27650	         5.33082e+57
          2042.08280	         5.91587e+57
          2042.88910	         6.34081e+57
          2043.69540	         6.21513e+57
          2044.50170	         5.70676e+57
          2045.30800	         5.34847e+57
          2046.11430	         4.53320e+57
          2046.92060	         5.61913e+57
          2047.72690	         6.15985e+57
          2048.53320	         7.28955e+57
          2049.33950	         5.69717e+57
          2050.14580	         7.82477e+57
          2050.95210	         7.97606e+57
          2051.75840	         7.53889e+57
          2052.56470	         4.30166e+57
          2053.37100	         5.28308e+57
          2054.17730	         4.86523e+57
          2054.98360	         5.28521e+57
          2055.78990	         3.37366e+57
          2056.59620	         2.18756e+57
          2057.40250	         4.88515e+57
          2058.20880	         7.52814e+57
          2059.01510	         7.68577e+57
          2059.82140	         6.19540e+57
          2060.62770	         1.09951e+58
          2061.43400	         1.67849e+58
          2062.24030	         1.06056e+58
          2063.04660	         4.93983e+57
          2063.85290	         2.81825e+57
          2064.65920	        -3.21042e+57
          2065.46550	        -1.12289e+58
          2066.27180	        -7.63089e+57
          2067.07810	         3.80158e+57
          2067.88440	         3.61548e+57
          2068.69070	         4.91434e+57
          2069.49700	         4.99348e+57
          2070.30330	         3.41142e+57
          2071.10960	         6.48677e+57
          2071.91590	         6.81389e+57
          2072.72220	         4.53337e+57
          2073.52850	         5.00448e+57
          2074.33480	         3.27860e+57
          2075.14110	         5.08362e+57
          2075.94740	         6.13090e+57
          2076.75370	         5.88386e+57
          2077.56000	         4.01629e+57
          2078.36630	         4.00863e+57
          2079.17260	         4.85996e+57
          2079.97890	         5.85502e+57
          2080.78520	         4.76328e+57
          2081.59150	         4.53659e+57
          2082.39780	         3.39174e+57
          2083.20410	         2.08033e+57
          2084.01040	         1.85696e+57
          2084.81670	         4.56057e+57
          2085.62300	         4.53978e+57
          2086.42930	         3.70483e+57
          2087.23560	         3.52354e+57
          2088.04190	         3.39186e+57
          2088.84820	         4.10330e+57
          2089.65450	         2.05863e+57
          2090.46080	         7.07419e+56
          2091.26710	         3.05872e+57
          2092.07340	         4.49799e+57
          2092.87970	         3.16306e+57
          2093.68600	        -4.31965e+56
          2094.49230	         2.81745e+57
          2095.29860	         4.98841e+57
          2096.10490	         2.51073e+57
          2096.91120	         6.08275e+56
          2097.71750	        -1.01538e+57
          2098.52380	         1.44396e+57
          2099.33010	         7.72590e+56
          2100.13640	         8.60357e+56
          2100.94270	         7.22540e+56
          2101.74900	         6.96704e+55
          2102.55530	         2.62600e+57
          2103.36160	         2.52482e+57
          2104.16790	         3.97604e+57
          2104.97420	         3.17066e+57
          2105.78050	        -1.62664e+57
          2106.58680	        -2.22543e+57
          2107.39310	        -1.85414e+57
          2108.19940	         6.39759e+56
          2109.00570	        -1.27104e+57
          2109.81200	        -3.63185e+56
          2110.61830	         9.65876e+56
          2111.42460	         1.88181e+57
          2112.23090	         1.92040e+57
          2113.03720	        -1.16493e+57
          2113.84350	        -1.03823e+57
          2114.64980	         1.18485e+57
          2115.45610	        -5.90613e+56
          2116.26240	         1.85505e+57
          2117.06870	         2.04497e+57
          2117.87500	        -4.03554e+57
          2118.68130	        -1.12534e+57
          2119.48760	         1.47027e+57
          2120.29390	         1.62406e+57
          2121.10020	        -2.54460e+57
          2121.90650	        -2.45647e+57
          2122.71280	         4.25493e+57
          2123.51910	         4.96845e+57
          2124.32540	         1.01308e+57
          2125.13170	        -5.16139e+57
          2125.93800	        -4.56951e+57
          2126.74430	        -1.14499e+58
          2127.55060	        -1.14950e+58
          2128.35690	        -5.21419e+57
          2129.16320	        -5.91305e+57
          2129.96950	        -5.02231e+57
          2130.77580	        -6.06651e+57
          2131.58210	         7.91396e+56
          2132.38840	        -1.53768e+56
          2133.19470	         2.52669e+57
          2134.00100	         2.36858e+56
          2134.80730	        -8.65179e+57
          2135.61360	        -7.61960e+57
          2136.41990	        -4.44756e+56
          2137.22620	         3.19854e+57
          2138.03250	         3.99484e+57
          2138.83880	         1.45046e+57
          2139.64510	        -1.29295e+56
          2140.45140	         1.79166e+57
          2141.25770	        -7.12867e+57
          2142.06400	        -8.54626e+57
          2142.87030	         3.33863e+57
          2143.67660	         1.70130e+57
          2144.48290	         6.62567e+57
          2145.28920	         9.10157e+57
          2146.09550	        -7.78532e+57
          2146.90180	        -5.93972e+57
          2147.70810	        -8.51047e+57
          2148.51440	        -5.54558e+57
          2149.32070	        -7.12185e+57
          2150.12700	        -1.39092e+58
          2150.93330	        -9.30049e+57
          2151.73960	        -6.11415e+57
          2152.54590	         6.78359e+57
          2153.35220	         1.00539e+57
          2154.15850	         1.17943e+57
          2154.96480	        -3.46125e+56
          2155.77110	        -9.05361e+57
          2156.57740	        -1.88917e+58
          2157.38370	        -3.78166e+57
          2158.19000	         3.19916e+57
          2158.99630	        -1.59974e+58
          2159.80260	        -1.85175e+58
          2160.60890	        -1.60747e+57
          2161.41520	        -3.50596e+57
          2162.22150	        -1.86634e+57
          2163.02780	        -4.61907e+57
          2163.83410	        -7.32716e+57
          2164.64040	        -9.06722e+57
          2165.44670	        -9.27181e+57
          2166.25300	        -6.14904e+57
          2167.05930	        -4.66862e+57
          2167.86560	        -1.13874e+58
          2168.67190	        -6.99533e+57
          2169.47820	        -2.90204e+57
          2170.28450	        -5.60688e+56
          2171.09080	         3.24508e+57
          2171.89710	        -5.18753e+57
          2172.70340	         8.64299e+56
          2173.50970	        -5.64364e+57
          2174.31600	         2.36464e+57
          2175.12230	         7.94141e+56
          2175.92860	        -5.70264e+57
          2176.73490	        -3.32985e+57
          2177.54120	        -9.09879e+57
          2178.34750	        -3.00228e+56
          2179.15380	                 nan
          2179.96010	                 nan
          2180.76640	                 nan
          2181.57270	                 nan
          2182.37900	                 nan
          2183.18530	                 nan
          2183.99160	                 nan
          2184.79790	                 nan
          2185.60420	                 nan
          2186.41050	                 nan
          2187.21680	                 nan
          2188.02310	                 nan
          2188.82940	                 nan
          2189.63570	                 nan
          2190.44200	                 nan
          2191.24830	                 nan
          2192.05460	                 nan
          2192.86090	                 nan
          2193.66720	                 nan
          2194.47350	                 nan
          2195.27980	                 nan
          2196.08610	                 nan
          2196.89240	                 nan
          2197.69870	                 nan
          2198.50500	                 nan
          2199.31130	                 nan
          2200.11760	                 nan
          2200.92390	                 nan
          2201.73020	                 nan
          2202.53650	                 nan
          2203.34280	                 nan
          2204.14910	                 nan
          2204.95540	                 nan
          2205.76170	                 nan
          2206.56800	                 nan
          2207.37430	                 nan
          2208.18060	                 nan
          2208.98690	                 nan
          2209.79320	                 nan
          2210.59950	                 nan
          2211.40580	                 nan
          2212.21210	                 nan
          2213.01840	                 nan
          2213.82470	                 nan
          2214.63100	                 nan
          2215.43730	         0.00000e+00
