#sample_245_stacked_spectrum_rest_UV-bands_median_H-alpha_noDC.txt
#median Lum: 1.67807e+42
#Rest-frame wavelength (A) | Luminosity (erg/s/A)
#
          1110.00000	         0.00000e+00
          1110.80630	        -3.61581e+59
          1111.61260	         1.00171e+59
          1112.41890	         2.38399e+59
          1113.22520	         2.64957e+59
          1114.03150	        -5.40092e+58
          1114.83780	         1.83297e+58
          1115.64410	         2.18954e+59
          1116.45040	         3.21447e+59
          1117.25670	         1.56444e+59
          1118.06300	         1.58152e+59
          1118.86930	         6.21070e+58
          1119.67560	         4.95092e+58
          1120.48190	        -4.38946e+58
          1121.28820	        -2.31541e+59
          1122.09450	        -1.46588e+58
          1122.90080	         1.12892e+58
          1123.70710	         3.67402e+58
          1124.51340	         9.46188e+58
          1125.31970	        -4.62130e+58
          1126.12600	        -1.52534e+58
          1126.93230	        -2.69306e+58
          1127.73860	        -3.56888e+58
          1128.54490	         2.09186e+58
          1129.35120	         3.88517e+58
          1130.15750	         2.52939e+57
          1130.96380	        -1.35514e+58
          1131.77010	         5.41986e+58
          1132.57640	         3.37073e+58
          1133.38270	         1.94423e+58
          1134.18900	         1.35199e+58
          1134.99530	         2.68091e+58
          1135.80160	         9.10369e+57
          1136.60790	         5.31985e+57
          1137.41420	         6.91280e+57
          1138.22050	         4.62798e+58
          1139.02680	         2.15195e+58
          1139.83310	        -3.96279e+57
          1140.63940	         8.12205e+57
          1141.44570	        -2.18389e+58
          1142.25200	        -1.83248e+58
          1143.05830	         2.65854e+58
          1143.86460	         4.11429e+58
          1144.67090	         3.32984e+58
          1145.47720	         1.78360e+58
          1146.28350	         1.49984e+58
          1147.08980	         1.53055e+58
          1147.89610	         2.98074e+58
          1148.70240	         2.73055e+58
          1149.50870	         8.61165e+57
          1150.31500	         1.22714e+58
          1151.12130	         4.76935e+57
          1151.92760	         6.44700e+57
          1152.73390	         8.07275e+57
          1153.54020	        -1.01260e+57
          1154.34650	         2.15607e+58
          1155.15280	         2.20680e+58
          1155.95910	         4.85033e+56
          1156.76540	         4.29912e+57
          1157.57170	        -8.48239e+57
          1158.37800	        -7.31684e+57
          1159.18430	         2.44284e+57
          1159.99060	         3.32753e+57
          1160.79690	         5.35218e+57
          1161.60320	         7.56744e+57
          1162.40950	         6.77544e+57
          1163.21580	         2.54096e+58
          1164.02210	         1.66837e+58
          1164.82840	         1.73122e+58
          1165.63470	         1.84690e+58
          1166.44100	         2.80534e+58
          1167.24730	         1.59207e+58
          1168.05360	         3.95737e+57
          1168.85990	         8.36400e+57
          1169.66620	         3.35391e+57
          1170.47250	         8.50257e+57
          1171.27880	         1.03343e+58
          1172.08510	         1.72350e+58
          1172.89140	         1.12023e+58
          1173.69770	         1.22662e+58
          1174.50400	         1.86882e+58
          1175.31030	         1.36210e+58
          1176.11660	         1.37839e+58
          1176.92290	         1.38735e+58
          1177.72920	         1.17511e+58
          1178.53550	         7.40193e+57
          1179.34180	         1.57521e+57
          1180.14810	         6.85796e+57
          1180.95440	         7.11199e+57
          1181.76070	         8.00005e+57
          1182.56700	         7.44665e+57
          1183.37330	         1.06927e+58
          1184.17960	         1.33876e+58
          1184.98590	         1.07715e+58
          1185.79220	         6.96900e+57
          1186.59850	         9.37544e+57
          1187.40480	         1.08634e+58
          1188.21110	         1.80251e+58
          1189.01740	         1.16116e+58
          1189.82370	         1.21499e+58
          1190.63000	         1.23758e+58
          1191.43630	         1.21404e+58
          1192.24260	         9.21552e+57
          1193.04890	         1.13632e+58
          1193.85520	         1.42607e+58
          1194.66150	         4.77778e+57
          1195.46780	         1.06890e+58
          1196.27410	         1.58015e+58
          1197.08040	         1.43601e+58
          1197.88670	         1.28636e+58
          1198.69300	         1.67850e+58
          1199.49930	         1.54315e+58
          1200.30560	         1.29341e+58
          1201.11190	         1.17561e+58
          1201.91820	         1.42748e+58
          1202.72450	         1.04395e+58
          1203.53080	         1.47686e+58
          1204.33710	         8.29710e+57
          1205.14340	         7.47242e+57
          1205.94970	         9.04306e+57
          1206.75600	         4.95541e+57
          1207.56230	         5.57707e+57
          1208.36860	         7.26879e+57
          1209.17490	         6.31128e+57
          1209.98120	         6.43145e+57
          1210.78750	         8.41722e+57
          1211.59380	         1.43264e+58
          1212.40010	         1.91990e+58
          1213.20640	         2.00135e+58
          1214.01270	         1.75914e+58
          1214.81900	         2.67068e+58
          1215.62530	         4.77699e+58
          1216.43160	         9.13639e+58
          1217.23790	         1.50171e+59
          1218.04420	         1.12024e+59
          1218.85050	         8.58408e+58
          1219.65680	         5.62463e+58
          1220.46310	         3.33282e+58
          1221.26940	         2.32470e+58
          1222.07570	         1.19010e+58
          1222.88200	         1.27676e+58
          1223.68830	         1.15529e+58
          1224.49460	         9.60292e+57
          1225.30090	         9.34978e+57
          1226.10720	         7.79555e+57
          1226.91350	         6.79908e+57
          1227.71980	         7.53187e+57
          1228.52610	         1.14227e+58
          1229.33240	         8.97366e+57
          1230.13870	         1.10480e+58
          1230.94500	         9.56557e+57
          1231.75130	         6.26313e+57
          1232.55760	         1.02699e+58
          1233.36390	         8.36482e+57
          1234.17020	         7.76264e+57
          1234.97650	         9.29161e+57
          1235.78280	         6.93181e+57
          1236.58910	         5.87354e+57
          1237.39540	         9.27989e+57
          1238.20170	         1.07424e+58
          1239.00800	         1.21325e+58
          1239.81430	         1.42204e+58
          1240.62060	         1.17000e+58
          1241.42690	         1.07739e+58
          1242.23320	         1.04615e+58
          1243.03950	         7.41451e+57
          1243.84580	         7.35784e+57
          1244.65210	         1.02766e+58
          1245.45840	         9.36692e+57
          1246.26470	         8.18407e+57
          1247.07100	         8.58489e+57
          1247.87730	         5.69881e+57
          1248.68360	         3.78056e+57
          1249.48990	         7.78327e+57
          1250.29620	         1.08915e+58
          1251.10250	         1.03852e+58
          1251.90880	         4.55505e+57
          1252.71510	         4.82573e+57
          1253.52140	         5.80023e+57
          1254.32770	         8.91775e+57
          1255.13400	         1.31169e+58
          1255.94030	         1.14025e+58
          1256.74660	         1.02226e+58
          1257.55290	         1.05709e+58
          1258.35920	         7.72614e+57
          1259.16550	         3.90884e+57
          1259.97180	         3.90979e+57
          1260.77810	         8.55493e+57
          1261.58440	         1.08835e+58
          1262.39070	         7.76743e+57
          1263.19700	         8.33272e+57
          1264.00330	         1.07278e+58
          1264.80960	         1.07483e+58
          1265.61590	         1.07746e+58
          1266.42220	         1.06431e+58
          1267.22850	         1.02752e+58
          1268.03480	         1.32472e+58
          1268.84110	         1.43199e+58
          1269.64740	         1.45413e+58
          1270.45370	         1.47808e+58
          1271.26000	         1.29038e+58
          1272.06630	         1.12201e+58
          1272.87260	         1.17852e+58
          1273.67890	         1.10453e+58
          1274.48520	         1.28242e+58
          1275.29150	         1.33814e+58
          1276.09780	         9.77777e+57
          1276.90410	         1.22441e+58
          1277.71040	         1.16503e+58
          1278.51670	         9.72967e+57
          1279.32300	         1.15668e+58
          1280.12930	         1.27722e+58
          1280.93560	         1.07072e+58
          1281.74190	         1.14547e+58
          1282.54820	         1.39430e+58
          1283.35450	         1.16093e+58
          1284.16080	         1.06922e+58
          1284.96710	         1.39133e+58
          1285.77340	         1.14917e+58
          1286.57970	         9.10939e+57
          1287.38600	         1.23773e+58
          1288.19230	         1.60322e+58
          1288.99860	         1.52308e+58
          1289.80490	         1.08370e+58
          1290.61120	         1.33431e+58
          1291.41750	         1.50251e+58
          1292.22380	         1.18309e+58
          1293.03010	         1.12075e+58
          1293.83640	         1.16874e+58
          1294.64270	         1.12010e+58
          1295.44900	         7.15183e+57
          1296.25530	         7.44731e+57
          1297.06160	         8.90237e+57
          1297.86790	         8.95172e+57
          1298.67420	         7.83119e+57
          1299.48050	         7.14469e+57
          1300.28680	         8.05755e+57
          1301.09310	         6.30936e+57
          1301.89940	         6.02735e+57
          1302.70570	         6.30099e+57
          1303.51200	         8.24115e+57
          1304.31830	         1.01206e+58
          1305.12460	         1.14952e+58
          1305.93090	         1.15360e+58
          1306.73720	         1.23280e+58
          1307.54350	         1.34217e+58
          1308.34980	         1.45317e+58
          1309.15610	         1.51874e+58
          1309.96240	         1.64643e+58
          1310.76870	         1.36032e+58
          1311.57500	         9.68352e+57
          1312.38130	         1.06495e+58
          1313.18760	         1.22525e+58
          1313.99390	         1.37811e+58
          1314.80020	         1.45210e+58
          1315.60650	         1.22337e+58
          1316.41280	         1.11148e+58
          1317.21910	         9.70016e+57
          1318.02540	         1.16143e+58
          1318.83170	         1.37289e+58
          1319.63800	         1.33990e+58
          1320.44430	         1.10830e+58
          1321.25060	         1.20454e+58
          1322.05690	         1.26358e+58
          1322.86320	         1.18147e+58
          1323.66950	         9.97715e+57
          1324.47580	         8.16070e+57
          1325.28210	         1.08919e+58
          1326.08840	         1.28195e+58
          1326.89470	         1.30050e+58
          1327.70100	         1.05495e+58
          1328.50730	         7.34967e+57
          1329.31360	         9.95529e+57
          1330.11990	         1.01101e+58
          1330.92620	         8.99534e+57
          1331.73250	         1.09712e+58
          1332.53880	         9.14519e+57
          1333.34510	         7.56454e+57
          1334.15140	         7.46493e+57
          1334.95770	         8.37687e+57
          1335.76400	         1.00677e+58
          1336.57030	         1.08924e+58
          1337.37660	         1.09551e+58
          1338.18290	         1.08499e+58
          1338.98920	         1.21161e+58
          1339.79550	         1.14867e+58
          1340.60180	         1.13862e+58
          1341.40810	         1.32610e+58
          1342.21440	         1.14237e+58
          1343.02070	         1.12345e+58
          1343.82700	         1.36903e+58
          1344.63330	         1.44722e+58
          1345.43960	         1.18816e+58
          1346.24590	         9.54435e+57
          1347.05220	         1.18632e+58
          1347.85850	         1.03161e+58
          1348.66480	         1.09649e+58
          1349.47110	         1.17027e+58
          1350.27740	         1.01459e+58
          1351.08370	         1.13978e+58
          1351.89000	         1.12112e+58
          1352.69630	         1.07085e+58
          1353.50260	         1.15779e+58
          1354.30890	         1.18825e+58
          1355.11520	         1.14627e+58
          1355.92150	         1.05525e+58
          1356.72780	         1.02726e+58
          1357.53410	         1.01094e+58
          1358.34040	         1.14062e+58
          1359.14670	         1.11302e+58
          1359.95300	         1.07517e+58
          1360.75930	         1.06354e+58
          1361.56560	         1.04717e+58
          1362.37190	         1.12081e+58
          1363.17820	         1.09437e+58
          1363.98450	         1.08870e+58
          1364.79080	         1.18022e+58
          1365.59710	         1.08968e+58
          1366.40340	         1.06213e+58
          1367.20970	         1.02206e+58
          1368.01600	         9.33716e+57
          1368.82230	         9.94295e+57
          1369.62860	         1.22257e+58
          1370.43490	         9.47121e+57
          1371.24120	         9.08580e+57
          1372.04750	         9.85323e+57
          1372.85380	         1.17566e+58
          1373.66010	         1.06030e+58
          1374.46640	         1.03761e+58
          1375.27270	         9.92717e+57
          1376.07900	         9.72076e+57
          1376.88530	         9.63726e+57
          1377.69160	         8.15719e+57
          1378.49790	         7.04515e+57
          1379.30420	         7.56764e+57
          1380.11050	         1.00762e+58
          1380.91680	         9.15149e+57
          1381.72310	         8.49831e+57
          1382.52940	         7.44176e+57
          1383.33570	         7.32964e+57
          1384.14200	         9.69154e+57
          1384.94830	         1.02435e+58
          1385.75460	         1.08146e+58
          1386.56090	         1.04742e+58
          1387.36720	         1.05023e+58
          1388.17350	         1.34205e+58
          1388.97980	         1.28969e+58
          1389.78610	         9.34429e+57
          1390.59240	         8.52285e+57
          1391.39870	         8.52189e+57
          1392.20500	         9.02574e+57
          1393.01130	         8.84688e+57
          1393.81760	         8.58104e+57
          1394.62390	         8.99709e+57
          1395.43020	         7.08305e+57
          1396.23650	         5.66761e+57
          1397.04280	         5.94223e+57
          1397.84910	         7.46260e+57
          1398.65540	         8.78511e+57
          1399.46170	         1.01369e+58
          1400.26800	         8.88539e+57
          1401.07430	         7.54103e+57
          1401.88060	         7.58200e+57
          1402.68690	         8.57523e+57
          1403.49320	         9.68820e+57
          1404.29950	         9.12983e+57
          1405.10580	         1.03339e+58
          1405.91210	         1.22733e+58
          1406.71840	         1.15431e+58
          1407.52470	         9.49095e+57
          1408.33100	         9.96176e+57
          1409.13730	         1.14714e+58
          1409.94360	         1.15666e+58
          1410.74990	         1.04695e+58
          1411.55620	         9.23094e+57
          1412.36250	         8.80676e+57
          1413.16880	         9.10426e+57
          1413.97510	         8.77193e+57
          1414.78140	         8.95761e+57
          1415.58770	         9.89977e+57
          1416.39400	         1.00862e+58
          1417.20030	         1.08481e+58
          1418.00660	         9.51295e+57
          1418.81290	         7.24903e+57
          1419.61920	         8.91837e+57
          1420.42550	         1.27472e+58
          1421.23180	         1.34967e+58
          1422.03810	         1.18315e+58
          1422.84440	         1.17646e+58
          1423.65070	         1.24629e+58
          1424.45700	         9.62316e+57
          1425.26330	         7.22114e+57
          1426.06960	         8.66852e+57
          1426.87590	         1.07343e+58
          1427.68220	         9.72679e+57
          1428.48850	         1.03856e+58
          1429.29480	         1.03381e+58
          1430.10110	         9.98229e+57
          1430.90740	         9.37755e+57
          1431.71370	         8.53022e+57
          1432.52000	         8.17489e+57
          1433.32630	         7.44224e+57
          1434.13260	         8.04949e+57
          1434.93890	         8.26239e+57
          1435.74520	         8.97717e+57
          1436.55150	         8.69688e+57
          1437.35780	         8.48655e+57
          1438.16410	         8.75099e+57
          1438.97040	         9.83353e+57
          1439.77670	         9.66367e+57
          1440.58300	         9.94990e+57
          1441.38930	         9.25801e+57
          1442.19560	         9.18940e+57
          1443.00190	         1.01114e+58
          1443.80820	         1.08273e+58
          1444.61450	         1.02859e+58
          1445.42080	         8.12188e+57
          1446.22710	         9.60062e+57
          1447.03340	         1.08835e+58
          1447.83970	         1.08924e+58
          1448.64600	         1.00697e+58
          1449.45230	         1.01866e+58
          1450.25860	         1.04939e+58
          1451.06490	         9.28442e+57
          1451.87120	         7.21569e+57
          1452.67750	         7.03486e+57
          1453.48380	         8.15814e+57
          1454.29010	         7.42375e+57
          1455.09640	         6.77745e+57
          1455.90270	         8.25029e+57
          1456.70900	         9.10523e+57
          1457.51530	         9.96941e+57
          1458.32160	         1.03431e+58
          1459.12790	         1.04835e+58
          1459.93420	         9.63087e+57
          1460.74050	         7.79694e+57
          1461.54680	         7.88308e+57
          1462.35310	         7.60687e+57
          1463.15940	         8.95986e+57
          1463.96570	         1.21866e+58
          1464.77200	         1.24809e+58
          1465.57830	         1.14802e+58
          1466.38460	         1.02324e+58
          1467.19090	         8.32763e+57
          1467.99720	         7.84985e+57
          1468.80350	         9.10386e+57
          1469.60980	         9.67693e+57
          1470.41610	         9.34944e+57
          1471.22240	         8.98861e+57
          1472.02870	         1.02334e+58
          1472.83500	         9.80636e+57
          1473.64130	         9.75727e+57
          1474.44760	         9.56365e+57
          1475.25390	         1.07149e+58
          1476.06020	         1.02460e+58
          1476.86650	         8.10095e+57
          1477.67280	         7.11239e+57
          1478.47910	         6.78061e+57
          1479.28540	         6.42732e+57
          1480.09170	         8.11432e+57
          1480.89800	         9.84908e+57
          1481.70430	         9.13194e+57
          1482.51060	         9.16958e+57
          1483.31690	         8.60082e+57
          1484.12320	         7.39875e+57
          1484.92950	         7.99290e+57
          1485.73580	         7.91919e+57
          1486.54210	         8.32062e+57
          1487.34840	         8.04972e+57
          1488.15470	         7.33672e+57
          1488.96100	         7.78953e+57
          1489.76730	         9.07786e+57
          1490.57360	         8.62030e+57
          1491.37990	         7.07391e+57
          1492.18620	         7.39605e+57
          1492.99250	         7.53021e+57
          1493.79880	         8.11145e+57
          1494.60510	         8.19723e+57
          1495.41140	         6.78763e+57
          1496.21770	         9.41658e+57
          1497.02400	         1.13690e+58
          1497.83030	         8.88127e+57
          1498.63660	         7.49416e+57
          1499.44290	         7.43294e+57
          1500.24920	         7.08379e+57
          1501.05550	         7.88036e+57
          1501.86180	         8.90771e+57
          1502.66810	         9.44231e+57
          1503.47440	         9.61268e+57
          1504.28070	         8.88290e+57
          1505.08700	         8.45746e+57
          1505.89330	         8.09895e+57
          1506.69960	         7.91752e+57
          1507.50590	         8.03945e+57
          1508.31220	         7.93839e+57
          1509.11850	         8.07101e+57
          1509.92480	         8.28035e+57
          1510.73110	         9.33316e+57
          1511.53740	         8.49622e+57
          1512.34370	         8.30970e+57
          1513.15000	         8.98994e+57
          1513.95630	         9.90854e+57
          1514.76260	         9.48343e+57
          1515.56890	         7.88615e+57
          1516.37520	         7.65976e+57
          1517.18150	         7.31934e+57
          1517.98780	         6.79037e+57
          1518.79410	         6.39650e+57
          1519.60040	         7.65015e+57
          1520.40670	         9.32190e+57
          1521.21300	         1.01232e+58
          1522.01930	         9.16625e+57
          1522.82560	         9.05280e+57
          1523.63190	         9.85124e+57
          1524.43820	         8.66394e+57
          1525.24450	         6.96015e+57
          1526.05080	         6.93048e+57
          1526.85710	         6.33921e+57
          1527.66340	         5.97526e+57
          1528.46970	         7.28931e+57
          1529.27600	         7.71591e+57
          1530.08230	         7.47417e+57
          1530.88860	         7.89535e+57
          1531.69490	         8.37868e+57
          1532.50120	         9.46419e+57
          1533.30750	         9.60425e+57
          1534.11380	         8.56815e+57
          1534.92010	         8.39565e+57
          1535.72640	         9.54972e+57
          1536.53270	         9.77738e+57
          1537.33900	         8.09608e+57
          1538.14530	         8.53457e+57
          1538.95160	         9.29554e+57
          1539.75790	         9.25835e+57
          1540.56420	         8.57266e+57
          1541.37050	         8.23891e+57
          1542.17680	         7.08978e+57
          1542.98310	         6.63732e+57
          1543.78940	         7.00094e+57
          1544.59570	         6.64436e+57
          1545.40200	         7.26403e+57
          1546.20830	         8.86748e+57
          1547.01460	         1.08701e+58
          1547.82090	         1.09681e+58
          1548.62720	         1.10589e+58
          1549.43350	         1.13405e+58
          1550.23980	         1.04857e+58
          1551.04610	         1.16008e+58
          1551.85240	         1.19375e+58
          1552.65870	         1.07905e+58
          1553.46500	         9.19990e+57
          1554.27130	         9.17811e+57
          1555.07760	         9.11879e+57
          1555.88390	         8.98459e+57
          1556.69020	         9.83556e+57
          1557.49650	         8.75462e+57
          1558.30280	         7.58311e+57
          1559.10910	         8.42550e+57
          1559.91540	         8.65851e+57
          1560.72170	         8.71188e+57
          1561.52800	         8.66409e+57
          1562.33430	         8.95744e+57
          1563.14060	         8.21983e+57
          1563.94690	         7.92855e+57
          1564.75320	         8.18669e+57
          1565.55950	         6.85505e+57
          1566.36580	         7.31611e+57
          1567.17210	         8.89918e+57
          1567.97840	         8.75801e+57
          1568.78470	         8.53693e+57
          1569.59100	         8.54551e+57
          1570.39730	         7.73962e+57
          1571.20360	         6.07466e+57
          1572.00990	         7.26018e+57
          1572.81620	         9.13187e+57
          1573.62250	         9.84955e+57
          1574.42880	         8.30291e+57
          1575.23510	         7.78442e+57
          1576.04140	         8.72494e+57
          1576.84770	         8.84460e+57
          1577.65400	         8.56011e+57
          1578.46030	         9.72760e+57
          1579.26660	         1.03054e+58
          1580.07290	         8.91652e+57
          1580.87920	         7.46296e+57
          1581.68550	         7.32286e+57
          1582.49180	         7.76037e+57
          1583.29810	         7.86527e+57
          1584.10440	         7.84577e+57
          1584.91070	         7.78925e+57
          1585.71700	         8.06183e+57
          1586.52330	         8.48129e+57
          1587.32960	         8.61679e+57
          1588.13590	         8.53362e+57
          1588.94220	         8.13267e+57
          1589.74850	         8.02998e+57
          1590.55480	         8.78243e+57
          1591.36110	         7.96298e+57
          1592.16740	         8.82037e+57
          1592.97370	         8.67637e+57
          1593.78000	         8.50591e+57
          1594.58630	         9.37657e+57
          1595.39260	         8.11059e+57
          1596.19890	         7.05926e+57
          1597.00520	         8.61650e+57
          1597.81150	         8.82585e+57
          1598.61780	         6.77784e+57
          1599.42410	         6.68897e+57
          1600.23040	         6.86894e+57
          1601.03670	         7.75796e+57
          1601.84300	         6.93776e+57
          1602.64930	         7.65058e+57
          1603.45560	         8.46695e+57
          1604.26190	         8.53143e+57
          1605.06820	         7.52891e+57
          1605.87450	         7.09912e+57
          1606.68080	         7.07295e+57
          1607.48710	         6.25568e+57
          1608.29340	         6.08476e+57
          1609.09970	         6.63503e+57
          1609.90600	         6.86347e+57
          1610.71230	         6.72184e+57
          1611.51860	         7.30180e+57
          1612.32490	         6.55082e+57
          1613.13120	         7.58744e+57
          1613.93750	         8.17021e+57
          1614.74380	         8.72159e+57
          1615.55010	         9.44547e+57
          1616.35640	         9.32798e+57
          1617.16270	         9.47000e+57
          1617.96900	         9.24545e+57
          1618.77530	         8.74617e+57
          1619.58160	         8.63158e+57
          1620.38790	         8.90915e+57
          1621.19420	         9.77553e+57
          1622.00050	         8.67120e+57
          1622.80680	         8.11760e+57
          1623.61310	         7.49599e+57
          1624.41940	         6.90943e+57
          1625.22570	         8.47980e+57
          1626.03200	         7.87369e+57
          1626.83830	         7.20999e+57
          1627.64460	         7.91184e+57
          1628.45090	         7.45440e+57
          1629.25720	         8.14955e+57
          1630.06350	         9.34936e+57
          1630.86980	         6.39810e+57
          1631.67610	         6.18348e+57
          1632.48240	         7.11990e+57
          1633.28870	         7.51175e+57
          1634.09500	         9.31307e+57
          1634.90130	         1.09985e+58
          1635.70760	         8.82186e+57
          1636.51390	         8.83908e+57
          1637.32020	         8.54467e+57
          1638.12650	         8.64688e+57
          1638.93280	         9.95356e+57
          1639.73910	         1.03733e+58
          1640.54540	         1.04867e+58
          1641.35170	         9.35743e+57
          1642.15800	         8.47674e+57
          1642.96430	         7.81517e+57
          1643.77060	         7.76165e+57
          1644.57690	         8.13896e+57
          1645.38320	         9.29795e+57
          1646.18950	         7.54364e+57
          1646.99580	         7.87623e+57
          1647.80210	         6.83865e+57
          1648.60840	         6.27060e+57
          1649.41470	         7.69474e+57
          1650.22100	         7.77057e+57
          1651.02730	         7.50023e+57
          1651.83360	         7.28307e+57
          1652.63990	         7.82630e+57
          1653.44620	         8.37584e+57
          1654.25250	         7.11941e+57
          1655.05880	         7.63263e+57
          1655.86510	         7.85520e+57
          1656.67140	         8.13733e+57
          1657.47770	         8.26384e+57
          1658.28400	         7.57436e+57
          1659.09030	         8.70975e+57
          1659.89660	         1.02939e+58
          1660.70290	         9.93409e+57
          1661.50920	         1.03284e+58
          1662.31550	         9.43022e+57
          1663.12180	         7.69853e+57
          1663.92810	         8.82797e+57
          1664.73440	         1.07687e+58
          1665.54070	         1.11065e+58
          1666.34700	         1.12524e+58
          1667.15330	         1.01242e+58
          1667.95960	         7.96433e+57
          1668.76590	         7.06606e+57
          1669.57220	         7.38210e+57
          1670.37850	         7.82760e+57
          1671.18480	         8.04996e+57
          1671.99110	         7.24973e+57
          1672.79740	         6.90222e+57
          1673.60370	         6.44574e+57
          1674.41000	         6.73732e+57
          1675.21630	         7.57842e+57
          1676.02260	         6.70815e+57
          1676.82890	         6.59037e+57
          1677.63520	         6.82417e+57
          1678.44150	         7.34343e+57
          1679.24780	         8.57363e+57
          1680.05410	         7.48994e+57
          1680.86040	         6.05491e+57
          1681.66670	         6.45347e+57
          1682.47300	         7.68071e+57
          1683.27930	         8.90532e+57
          1684.08560	         8.88871e+57
          1684.89190	         8.77790e+57
          1685.69820	         6.35573e+57
          1686.50450	         5.64492e+57
          1687.31080	         7.23105e+57
          1688.11710	         7.67138e+57
          1688.92340	         6.56953e+57
          1689.72970	         6.50280e+57
          1690.53600	         6.36724e+57
          1691.34230	         6.77685e+57
          1692.14860	         7.72521e+57
          1692.95490	         8.20599e+57
          1693.76120	         7.29323e+57
          1694.56750	         6.91437e+57
          1695.37380	         8.41854e+57
          1696.18010	         8.68471e+57
          1696.98640	         8.16084e+57
          1697.79270	         7.99057e+57
          1698.59900	         7.94704e+57
          1699.40530	         7.17506e+57
          1700.21160	         6.87207e+57
          1701.01790	         8.63767e+57
          1701.82420	         8.60033e+57
          1702.63050	         7.98856e+57
          1703.43680	         7.55236e+57
          1704.24310	         8.05625e+57
          1705.04940	         8.01470e+57
          1705.85570	         7.39928e+57
          1706.66200	         8.07957e+57
          1707.46830	         7.93719e+57
          1708.27460	         6.92182e+57
          1709.08090	         6.47450e+57
          1709.88720	         5.34177e+57
          1710.69350	         5.35892e+57
          1711.49980	         6.59002e+57
          1712.30610	         7.83781e+57
          1713.11240	         8.03581e+57
          1713.91870	         6.59257e+57
          1714.72500	         7.94425e+57
          1715.53130	         8.39846e+57
          1716.33760	         6.82723e+57
          1717.14390	         6.86726e+57
          1717.95020	         7.89463e+57
          1718.75650	         8.06228e+57
          1719.56280	         9.17447e+57
          1720.36910	         8.33714e+57
          1721.17540	         8.29342e+57
          1721.98170	         6.02405e+57
          1722.78800	         5.06106e+57
          1723.59430	         7.07647e+57
          1724.40060	         9.08510e+57
          1725.20690	         8.65810e+57
          1726.01320	         7.60486e+57
          1726.81950	         6.47491e+57
          1727.62580	         5.90847e+57
          1728.43210	         6.76217e+57
          1729.23840	         7.48097e+57
          1730.04470	         7.95054e+57
          1730.85100	         7.91431e+57
          1731.65730	         7.78281e+57
          1732.46360	         7.75200e+57
          1733.26990	         6.11541e+57
          1734.07620	         7.05645e+57
          1734.88250	         7.60505e+57
          1735.68880	         7.13974e+57
          1736.49510	         7.74208e+57
          1737.30140	         7.65230e+57
          1738.10770	         7.07873e+57
          1738.91400	         7.26928e+57
          1739.72030	         7.23452e+57
          1740.52660	         5.59942e+57
          1741.33290	         6.03484e+57
          1742.13920	         6.67389e+57
          1742.94550	         6.85354e+57
          1743.75180	         7.29270e+57
          1744.55810	         7.25905e+57
          1745.36440	         7.07065e+57
          1746.17070	         6.19807e+57
          1746.97700	         5.31920e+57
          1747.78330	         6.83339e+57
          1748.58960	         6.75600e+57
          1749.39590	         6.03012e+57
          1750.20220	         6.31045e+57
          1751.00850	         5.60389e+57
          1751.81480	         5.54833e+57
          1752.62110	         7.11256e+57
          1753.42740	         7.97890e+57
          1754.23370	         6.52565e+57
          1755.04000	         6.23580e+57
          1755.84630	         7.78112e+57
          1756.65260	         8.17862e+57
          1757.45890	         8.76627e+57
          1758.26520	         8.61423e+57
          1759.07150	         9.54407e+57
          1759.87780	         8.54291e+57
          1760.68410	         8.17453e+57
          1761.49040	         8.65448e+57
          1762.29670	         6.37868e+57
          1763.10300	         6.62265e+57
          1763.90930	         7.26507e+57
          1764.71560	         7.09558e+57
          1765.52190	         7.72460e+57
          1766.32820	         9.67766e+57
          1767.13450	         8.69756e+57
          1767.94080	         7.09173e+57
          1768.74710	         7.72389e+57
          1769.55340	         7.44090e+57
          1770.35970	         6.89148e+57
          1771.16600	         7.07280e+57
          1771.97230	         7.84924e+57
          1772.77860	         7.72655e+57
          1773.58490	         6.39696e+57
          1774.39120	         6.34190e+57
          1775.19750	         5.69597e+57
          1776.00380	         6.71000e+57
          1776.81010	         7.30496e+57
          1777.61640	         7.27780e+57
          1778.42270	         6.81267e+57
          1779.22900	         6.06794e+57
          1780.03530	         5.87029e+57
          1780.84160	         6.83441e+57
          1781.64790	         7.94548e+57
          1782.45420	         7.05881e+57
          1783.26050	         6.70845e+57
          1784.06680	         6.96188e+57
          1784.87310	         6.72635e+57
          1785.67940	         6.53598e+57
          1786.48570	         6.44994e+57
          1787.29200	         5.92160e+57
          1788.09830	         5.48418e+57
          1788.90460	         5.43637e+57
          1789.71090	         5.53659e+57
          1790.51720	         5.00528e+57
          1791.32350	         6.52823e+57
          1792.12980	         7.72328e+57
          1792.93610	         7.05870e+57
          1793.74240	         6.91669e+57
          1794.54870	         7.50622e+57
          1795.35500	         8.09273e+57
          1796.16130	         7.65353e+57
          1796.96760	         6.30715e+57
          1797.77390	         7.51662e+57
          1798.58020	         8.44864e+57
          1799.38650	         7.35275e+57
          1800.19280	         6.95996e+57
          1800.99910	         7.59912e+57
          1801.80540	         7.90335e+57
          1802.61170	         7.55268e+57
          1803.41800	         7.04155e+57
          1804.22430	         7.57609e+57
          1805.03060	         7.65533e+57
          1805.83690	         7.81974e+57
          1806.64320	         8.56602e+57
          1807.44950	         8.04522e+57
          1808.25580	         6.91297e+57
          1809.06210	         7.25263e+57
          1809.86840	         7.45234e+57
          1810.67470	         8.36831e+57
          1811.48100	         9.77543e+57
          1812.28730	         8.66685e+57
          1813.09360	         6.94877e+57
          1813.89990	         8.11729e+57
          1814.70620	         7.65120e+57
          1815.51250	         8.13721e+57
          1816.31880	         7.59802e+57
          1817.12510	         6.24789e+57
          1817.93140	         6.27244e+57
          1818.73770	         6.27126e+57
          1819.54400	         7.73691e+57
          1820.35030	         8.24048e+57
          1821.15660	         6.84555e+57
          1821.96290	         7.22046e+57
          1822.76920	         7.30467e+57
          1823.57550	         7.32224e+57
          1824.38180	         6.91096e+57
          1825.18810	         7.05851e+57
          1825.99440	         7.85076e+57
          1826.80070	         7.65172e+57
          1827.60700	         7.30654e+57
          1828.41330	         6.08586e+57
          1829.21960	         5.90657e+57
          1830.02590	         6.51912e+57
          1830.83220	         8.17738e+57
          1831.63850	         7.91081e+57
          1832.44480	         7.88726e+57
          1833.25110	         8.63547e+57
          1834.05740	         8.46937e+57
          1834.86370	         6.37977e+57
          1835.67000	         5.79164e+57
          1836.47630	         7.26973e+57
          1837.28260	         8.37363e+57
          1838.08890	         8.30102e+57
          1838.89520	         7.65480e+57
          1839.70150	         7.60646e+57
          1840.50780	         7.53392e+57
          1841.31410	         7.10349e+57
          1842.12040	         7.26919e+57
          1842.92670	         6.27875e+57
          1843.73300	         6.90577e+57
          1844.53930	         7.50423e+57
          1845.34560	         7.21707e+57
          1846.15190	         7.59639e+57
          1846.95820	         8.04425e+57
          1847.76450	         6.99235e+57
          1848.57080	         5.79758e+57
          1849.37710	         5.88681e+57
          1850.18340	         7.66715e+57
          1850.98970	         8.25816e+57
          1851.79600	         7.91991e+57
          1852.60230	         6.47454e+57
          1853.40860	         6.26268e+57
          1854.21490	         7.89698e+57
          1855.02120	         6.25871e+57
          1855.82750	         4.69836e+57
          1856.63380	         5.99101e+57
          1857.44010	         6.52306e+57
          1858.24640	         7.03993e+57
          1859.05270	         6.15499e+57
          1859.85900	         5.73261e+57
          1860.66530	         5.88506e+57
          1861.47160	         7.09514e+57
          1862.27790	         7.15257e+57
          1863.08420	         7.46637e+57
          1863.89050	         7.87795e+57
          1864.69680	         6.25603e+57
          1865.50310	         6.55393e+57
          1866.30940	         6.65042e+57
          1867.11570	         7.32965e+57
          1867.92200	         7.64856e+57
          1868.72830	         6.76290e+57
          1869.53460	         6.33200e+57
          1870.34090	         6.64394e+57
          1871.14720	         6.71391e+57
          1871.95350	         7.23581e+57
          1872.75980	         7.80598e+57
          1873.56610	         6.54047e+57
          1874.37240	         5.00061e+57
          1875.17870	         5.88902e+57
          1875.98500	         7.21868e+57
          1876.79130	         7.40563e+57
          1877.59760	         7.19854e+57
          1878.40390	         6.11183e+57
          1879.21020	         6.38843e+57
          1880.01650	         7.30412e+57
          1880.82280	         8.45394e+57
          1881.62910	         8.17200e+57
          1882.43540	         1.00737e+58
          1883.24170	         8.49778e+57
          1884.04800	         7.59428e+57
          1884.85430	         7.10082e+57
          1885.66060	         8.13910e+57
          1886.46690	         9.19213e+57
          1887.27320	         8.67471e+57
          1888.07950	         5.82040e+57
          1888.88580	         5.75522e+57
          1889.69210	         8.92701e+57
          1890.49840	         9.42111e+57
          1891.30470	         8.15462e+57
          1892.11100	         8.14326e+57
          1892.91730	         6.88562e+57
          1893.72360	         6.98480e+57
          1894.52990	         7.21069e+57
          1895.33620	         8.18580e+57
          1896.14250	         7.31515e+57
          1896.94880	         5.92963e+57
          1897.75510	         5.54018e+57
          1898.56140	         7.31408e+57
          1899.36770	         7.67463e+57
          1900.17400	         5.78169e+57
          1900.98030	         5.74150e+57
          1901.78660	         7.40468e+57
          1902.59290	         7.10118e+57
          1903.39920	         7.70913e+57
          1904.20550	         8.78124e+57
          1905.01180	         8.86685e+57
          1905.81810	         9.36920e+57
          1906.62440	         1.28111e+58
          1907.43070	         1.49852e+58
          1908.23700	         1.45295e+58
          1909.04330	         1.20532e+58
          1909.84960	         1.10904e+58
          1910.65590	         1.04103e+58
          1911.46220	         9.54089e+57
          1912.26850	         7.71823e+57
          1913.07480	         6.06553e+57
          1913.88110	         6.44803e+57
          1914.68740	         6.76418e+57
          1915.49370	         5.64087e+57
          1916.30000	         5.99353e+57
          1917.10630	         6.74380e+57
          1917.91260	         6.71794e+57
          1918.71890	         5.65551e+57
          1919.52520	         5.22365e+57
          1920.33150	         5.30416e+57
          1921.13780	         7.65146e+57
          1921.94410	         8.93532e+57
          1922.75040	         7.58717e+57
          1923.55670	         7.69034e+57
          1924.36300	         6.96335e+57
          1925.16930	         6.05669e+57
          1925.97560	         5.55494e+57
          1926.78190	         4.83519e+57
          1927.58820	         6.15866e+57
          1928.39450	         4.63714e+57
          1929.20080	         4.11417e+57
          1930.00710	         5.38096e+57
          1930.81340	         7.19180e+57
          1931.61970	         7.39465e+57
          1932.42600	         7.74540e+57
          1933.23230	         8.52537e+57
          1934.03860	         7.78124e+57
          1934.84490	         6.11758e+57
          1935.65120	         6.56700e+57
          1936.45750	         8.14633e+57
          1937.26380	         6.76864e+57
          1938.07010	         7.22677e+57
          1938.87640	         7.22831e+57
          1939.68270	         7.28110e+57
          1940.48900	         7.21244e+57
          1941.29530	         7.57346e+57
          1942.10160	         6.48314e+57
          1942.90790	         5.49138e+57
          1943.71420	         6.69724e+57
          1944.52050	         6.24647e+57
          1945.32680	         5.99206e+57
          1946.13310	         7.43922e+57
          1946.93940	         7.86625e+57
          1947.74570	         7.85118e+57
          1948.55200	         6.77110e+57
          1949.35830	         6.26972e+57
          1950.16460	         5.84245e+57
          1950.97090	         5.56973e+57
          1951.77720	         7.24309e+57
          1952.58350	         8.64059e+57
          1953.38980	         6.39164e+57
          1954.19610	         4.50174e+57
          1955.00240	         5.32007e+57
          1955.80870	         5.65519e+57
          1956.61500	         5.89785e+57
          1957.42130	         5.69393e+57
          1958.22760	         5.85957e+57
          1959.03390	         7.53323e+57
          1959.84020	         7.66416e+57
          1960.64650	         6.71493e+57
          1961.45280	         7.09827e+57
          1962.25910	         6.72130e+57
          1963.06540	         6.89422e+57
          1963.87170	         6.24257e+57
          1964.67800	         7.38538e+57
          1965.48430	         6.36766e+57
          1966.29060	         6.90440e+57
          1967.09690	         8.02193e+57
          1967.90320	         7.24967e+57
          1968.70950	         6.23492e+57
          1969.51580	         5.98377e+57
          1970.32210	         6.76695e+57
          1971.12840	         6.45146e+57
          1971.93470	         4.57044e+57
          1972.74100	         5.17224e+57
          1973.54730	         6.30617e+57
          1974.35360	         7.69515e+57
          1975.15990	         8.24696e+57
          1975.96620	         5.61498e+57
          1976.77250	         6.83084e+57
          1977.57880	         7.82011e+57
          1978.38510	         5.85247e+57
          1979.19140	         6.75196e+57
          1979.99770	         7.94107e+57
          1980.80400	         7.49246e+57
          1981.61030	         6.49947e+57
          1982.41660	         5.93473e+57
          1983.22290	         6.61291e+57
          1984.02920	         5.97345e+57
          1984.83550	         5.34097e+57
          1985.64180	         5.61719e+57
          1986.44810	         7.13962e+57
          1987.25440	         5.65135e+57
          1988.06070	         5.59385e+57
          1988.86700	         5.31037e+57
          1989.67330	         6.36835e+57
          1990.47960	         6.96159e+57
          1991.28590	         6.64099e+57
          1992.09220	         5.94920e+57
          1992.89850	         5.63481e+57
          1993.70480	         5.20901e+57
          1994.51110	         3.92409e+57
          1995.31740	         4.79745e+57
          1996.12370	         4.77816e+57
          1996.93000	         5.59335e+57
          1997.73630	         7.11601e+57
          1998.54260	         8.14109e+57
          1999.34890	         6.21040e+57
          2000.15520	         5.40038e+57
          2000.96150	         7.07742e+57
          2001.76780	         5.44296e+57
          2002.57410	         5.30945e+57
          2003.38040	         6.58462e+57
          2004.18670	         6.89076e+57
          2004.99300	         6.24653e+57
          2005.79930	         7.41519e+57
          2006.60560	         6.15459e+57
          2007.41190	         5.66921e+57
          2008.21820	         6.28904e+57
          2009.02450	         5.46996e+57
          2009.83080	         4.92066e+57
          2010.63710	         6.59376e+57
          2011.44340	         6.88448e+57
          2012.24970	         6.45763e+57
          2013.05600	         6.94144e+57
          2013.86230	         6.72766e+57
          2014.66860	         6.31493e+57
          2015.47490	         6.91072e+57
          2016.28120	         5.36171e+57
          2017.08750	         5.38688e+57
          2017.89380	         5.23703e+57
          2018.70010	         5.54117e+57
          2019.50640	         5.61553e+57
          2020.31270	         6.57566e+57
          2021.11900	         7.66860e+57
          2021.92530	         7.76591e+57
          2022.73160	         7.24286e+57
          2023.53790	         6.86191e+57
          2024.34420	         6.93904e+57
          2025.15050	         5.25499e+57
          2025.95680	         4.56105e+57
          2026.76310	         6.49676e+57
          2027.56940	         5.90617e+57
          2028.37570	         5.85323e+57
          2029.18200	         5.46759e+57
          2029.98830	         5.39033e+57
          2030.79460	         6.25052e+57
          2031.60090	         6.79422e+57
          2032.40720	         5.81984e+57
          2033.21350	         5.64386e+57
          2034.01980	         5.59974e+57
          2034.82610	         3.82186e+57
          2035.63240	         4.69843e+57
          2036.43870	         5.60936e+57
          2037.24500	         6.23822e+57
          2038.05130	         6.53994e+57
          2038.85760	         5.83747e+57
          2039.66390	         6.06659e+57
          2040.47020	         5.33748e+57
          2041.27650	         6.64690e+57
          2042.08280	         6.84194e+57
          2042.88910	         5.77769e+57
          2043.69540	         6.19681e+57
          2044.50170	         4.67263e+57
          2045.30800	         4.20675e+57
          2046.11430	         3.94682e+57
          2046.92060	         4.74260e+57
          2047.72690	         6.27306e+57
          2048.53320	         6.25235e+57
          2049.33950	         4.91166e+57
          2050.14580	         6.24432e+57
          2050.95210	         5.01702e+57
          2051.75840	         6.70707e+57
          2052.56470	         5.45060e+57
          2053.37100	         4.34806e+57
          2054.17730	         5.07454e+57
          2054.98360	         4.39018e+57
          2055.78990	         3.01056e+57
          2056.59620	         1.74039e+57
          2057.40250	         4.87006e+57
          2058.20880	         6.97514e+57
          2059.01510	         6.67745e+57
          2059.82140	         6.47407e+57
          2060.62770	         1.05717e+58
          2061.43400	         1.29148e+58
          2062.24030	         1.22868e+58
          2063.04660	         6.25652e+57
          2063.85290	         3.04266e+57
          2064.65920	        -1.71400e+57
          2065.46550	        -8.51787e+57
          2066.27180	        -8.34195e+57
          2067.07810	         2.20721e+57
          2067.88440	         4.34228e+57
          2068.69070	         5.99255e+57
          2069.49700	         5.98953e+57
          2070.30330	         5.53118e+57
          2071.10960	         4.55534e+57
          2071.91590	         6.16695e+57
          2072.72220	         4.38865e+57
          2073.52850	         5.74885e+57
          2074.33480	         4.55858e+57
          2075.14110	         4.41220e+57
          2075.94740	         5.38552e+57
          2076.75370	         3.87332e+57
          2077.56000	         4.92713e+57
          2078.36630	         5.21799e+57
          2079.17260	         4.40806e+57
          2079.97890	         4.58973e+57
          2080.78520	         5.35208e+57
          2081.59150	         5.96486e+57
          2082.39780	         4.92489e+57
          2083.20410	         2.17142e+57
          2084.01040	         1.22443e+57
          2084.81670	         1.88623e+57
          2085.62300	         2.72797e+57
          2086.42930	         2.87144e+57
          2087.23560	         2.53898e+57
          2088.04190	         2.99507e+57
          2088.84820	         3.76903e+57
          2089.65450	         3.99504e+57
          2090.46080	         1.94962e+57
          2091.26710	         1.42269e+57
          2092.07340	         1.55195e+57
          2092.87970	         1.90807e+57
          2093.68600	        -1.07185e+57
          2094.49230	         2.16562e+57
          2095.29860	         2.51062e+57
          2096.10490	         2.65827e+57
          2096.91120	         2.09527e+57
          2097.71750	         1.39031e+57
          2098.52380	         1.46544e+57
          2099.33010	         7.65167e+56
          2100.13640	         6.77921e+56
          2100.94270	         2.24598e+57
          2101.74900	         1.64811e+57
          2102.55530	         1.42880e+57
          2103.36160	         1.18753e+57
          2104.16790	         3.35797e+57
          2104.97420	         1.20921e+57
          2105.78050	         3.00978e+56
          2106.58680	         2.58721e+57
          2107.39310	         1.14913e+57
          2108.19940	         3.20347e+57
          2109.00570	         1.74049e+57
          2109.81200	        -2.44103e+57
          2110.61830	         4.91542e+56
          2111.42460	         1.65158e+57
          2112.23090	         6.85935e+56
          2113.03720	        -2.61524e+57
          2113.84350	         1.59657e+56
          2114.64980	         3.07682e+56
          2115.45610	        -5.31720e+56
          2116.26240	        -6.75995e+57
          2117.06870	        -1.42210e+57
          2117.87500	        -1.07897e+57
          2118.68130	        -3.16345e+57
          2119.48760	        -4.08798e+57
          2120.29390	         2.27327e+57
          2121.10020	        -1.86080e+57
          2121.90650	         2.04354e+57
          2122.71280	         6.25823e+57
          2123.51910	         3.78249e+57
          2124.32540	         3.87343e+57
          2125.13170	         1.43898e+56
          2125.93800	        -1.06103e+57
          2126.74430	        -2.43016e+56
          2127.55060	        -6.04194e+57
          2128.35690	        -2.55918e+57
          2129.16320	         2.50667e+57
          2129.96950	        -2.12517e+55
          2130.77580	        -5.70512e+56
          2131.58210	        -4.47529e+57
          2132.38840	         1.57697e+57
          2133.19470	        -4.89711e+57
          2134.00100	        -5.12576e+57
          2134.80730	        -6.65202e+57
          2135.61360	         1.16267e+58
          2136.41990	         9.80744e+57
          2137.22620	         5.46607e+57
          2138.03250	         4.44636e+56
          2138.83880	         1.16563e+57
          2139.64510	         3.78568e+57
          2140.45140	        -8.01712e+57
          2141.25770	        -1.22478e+58
          2142.06400	        -7.22593e+57
          2142.87030	         5.72255e+57
          2143.67660	         4.31895e+57
          2144.48290	         2.91831e+57
          2145.28920	         1.09041e+58
          2146.09550	         3.70019e+57
          2146.90180	        -1.47236e+58
          2147.70810	        -1.48105e+58
          2148.51440	        -6.81283e+57
          2149.32070	        -6.70971e+57
          2150.12700	        -7.93556e+57
          2150.93330	        -4.24946e+57
          2151.73960	         1.34832e+57
          2152.54590	        -8.51242e+57
          2153.35220	        -5.45580e+57
          2154.15850	        -3.42688e+57
          2154.96480	         1.34685e+56
          2155.77110	        -2.06868e+57
          2156.57740	         6.20090e+57
          2157.38370	         1.19878e+58
          2158.19000	        -4.25733e+57
          2158.99630	        -3.50290e+57
          2159.80260	        -1.94912e+58
          2160.60890	        -1.34781e+58
          2161.41520	         3.06038e+57
          2162.22150	        -4.44958e+57
          2163.02780	        -8.31784e+57
          2163.83410	        -6.14207e+57
          2164.64040	        -7.67046e+57
          2165.44670	        -1.02864e+58
          2166.25300	        -2.19729e+57
          2167.05930	        -2.75613e+57
          2167.86560	        -1.67484e+58
          2168.67190	        -1.81575e+58
          2169.47820	        -1.48849e+58
          2170.28450	        -1.58887e+58
          2171.09080	        -2.53854e+57
          2171.89710	        -8.11569e+57
          2172.70340	        -8.29255e+57
          2173.50970	        -9.17923e+57
          2174.31600	        -1.35248e+57
          2175.12230	        -4.07265e+56
          2175.92860	        -3.82470e+57
          2176.73490	        -4.29822e+57
          2177.54120	        -1.42025e+57
          2178.34750	        -2.70038e+57
          2179.15380	                 nan
          2179.96010	                 nan
          2180.76640	                 nan
          2181.57270	                 nan
          2182.37900	                 nan
          2183.18530	                 nan
          2183.99160	                 nan
          2184.79790	                 nan
          2185.60420	                 nan
          2186.41050	                 nan
          2187.21680	                 nan
          2188.02310	                 nan
          2188.82940	                 nan
          2189.63570	                 nan
          2190.44200	                 nan
          2191.24830	                 nan
          2192.05460	                 nan
          2192.86090	                 nan
          2193.66720	                 nan
          2194.47350	                 nan
          2195.27980	                 nan
          2196.08610	                 nan
          2196.89240	                 nan
          2197.69870	                 nan
          2198.50500	                 nan
          2199.31130	                 nan
          2200.11760	                 nan
          2200.92390	                 nan
          2201.73020	                 nan
          2202.53650	                 nan
          2203.34280	                 nan
          2204.14910	                 nan
          2204.95540	                 nan
          2205.76170	                 nan
          2206.56800	                 nan
          2207.37430	                 nan
          2208.18060	                 nan
          2208.98690	                 nan
          2209.79320	                 nan
          2210.59950	                 nan
          2211.40580	                 nan
          2212.21210	                 nan
          2213.01840	                 nan
          2213.82470	                 nan
          2214.63100	                 nan
          2215.43730	         0.00000e+00
