#sample_288_stacked_spectrum_rest_UV-bands_median_H-alpha_noDC.txt
#median Lum: 1.70854e+42
#Rest-frame wavelength (A) | Luminosity (erg/s/A)
#
          1110.00000	         0.00000e+00
          1110.80630	         5.35694e+59
          1111.61260	         3.79101e+59
          1112.41890	         3.46997e+57
          1113.22520	         3.21221e+59
          1114.03150	        -7.28178e+58
          1114.83780	         2.85910e+59
          1115.64410	         1.81403e+59
          1116.45040	         2.16652e+58
          1117.25670	        -1.27555e+59
          1118.06300	         1.48976e+59
          1118.86930	         1.14006e+58
          1119.67560	        -2.15790e+58
          1120.48190	        -1.80971e+58
          1121.28820	        -1.65323e+59
          1122.09450	        -8.07407e+58
          1122.90080	        -3.97857e+58
          1123.70710	         3.31294e+58
          1124.51340	         3.83799e+58
          1125.31970	         4.63221e+58
          1126.12600	         4.59822e+58
          1126.93230	        -5.77554e+58
          1127.73860	        -8.55510e+58
          1128.54490	        -1.18816e+58
          1129.35120	         4.27147e+58
          1130.15750	        -7.83904e+57
          1130.96380	        -4.01800e+57
          1131.77010	         5.36570e+58
          1132.57640	         2.08251e+58
          1133.38270	         2.32834e+58
          1134.18900	         3.47358e+58
          1134.99530	         3.64120e+58
          1135.80160	         3.46064e+58
          1136.60790	         2.24249e+58
          1137.41420	        -2.40747e+58
          1138.22050	         4.08093e+58
          1139.02680	         2.25126e+58
          1139.83310	         2.39516e+57
          1140.63940	         5.91175e+57
          1141.44570	        -1.30789e+58
          1142.25200	        -2.02723e+58
          1143.05830	         5.57530e+57
          1143.86460	         3.22404e+58
          1144.67090	         3.58365e+58
          1145.47720	         2.45421e+58
          1146.28350	         8.96848e+57
          1147.08980	         8.03061e+57
          1147.89610	         1.90445e+58
          1148.70240	         2.42971e+58
          1149.50870	         2.62770e+58
          1150.31500	         2.03821e+58
          1151.12130	         9.78772e+57
          1151.92760	         3.63034e+57
          1152.73390	         1.45012e+57
          1153.54020	         1.69634e+57
          1154.34650	         1.70678e+58
          1155.15280	         1.28124e+58
          1155.95910	         1.46385e+58
          1156.76540	         1.30737e+58
          1157.57170	        -1.00202e+58
          1158.37800	        -6.10276e+57
          1159.18430	        -1.73178e+57
          1159.99060	         6.15104e+57
          1160.79690	         2.15346e+56
          1161.60320	         8.04638e+57
          1162.40950	         1.73134e+58
          1163.21580	         2.05125e+58
          1164.02210	         1.58077e+58
          1164.82840	         4.75551e+57
          1165.63470	         9.30908e+57
          1166.44100	         2.90765e+58
          1167.24730	         2.20940e+58
          1168.05360	        -2.54912e+56
          1168.85990	         3.25120e+57
          1169.66620	         2.16400e+57
          1170.47250	         9.15844e+57
          1171.27880	         6.62403e+57
          1172.08510	         1.36188e+58
          1172.89140	         1.62336e+58
          1173.69770	         4.54310e+57
          1174.50400	         1.22368e+58
          1175.31030	         2.37238e+58
          1176.11660	         2.33295e+58
          1176.92290	         1.23287e+58
          1177.72920	         9.49483e+57
          1178.53550	         6.33936e+57
          1179.34180	         2.80808e+57
          1180.14810	         6.84609e+57
          1180.95440	         8.39861e+57
          1181.76070	         5.41429e+57
          1182.56700	         8.10730e+57
          1183.37330	         8.98165e+57
          1184.17960	         1.22803e+58
          1184.98590	         1.06313e+58
          1185.79220	         9.92086e+57
          1186.59850	         1.28244e+58
          1187.40480	         1.36033e+58
          1188.21110	         1.70954e+58
          1189.01740	         1.19317e+58
          1189.82370	         1.43796e+58
          1190.63000	         1.46118e+58
          1191.43630	         1.53849e+58
          1192.24260	         9.51606e+57
          1193.04890	         1.22443e+58
          1193.85520	         7.32341e+57
          1194.66150	         4.98070e+57
          1195.46780	         1.39098e+58
          1196.27410	         1.61901e+58
          1197.08040	         1.25414e+58
          1197.88670	         1.53809e+58
          1198.69300	         1.74217e+58
          1199.49930	         1.39078e+58
          1200.30560	         1.05485e+58
          1201.11190	         1.38222e+58
          1201.91820	         1.35540e+58
          1202.72450	         9.64908e+57
          1203.53080	         1.55491e+58
          1204.33710	         7.77090e+57
          1205.14340	         1.00482e+58
          1205.94970	         7.53225e+57
          1206.75600	         7.67255e+57
          1207.56230	         5.60541e+57
          1208.36860	         6.89791e+57
          1209.17490	         4.98133e+57
          1209.98120	         8.52868e+57
          1210.78750	         9.78583e+57
          1211.59380	         6.21663e+57
          1212.40010	         1.66350e+58
          1213.20640	         1.70393e+58
          1214.01270	         1.86170e+58
          1214.81900	         2.59815e+58
          1215.62530	         4.31864e+58
          1216.43160	         8.86981e+58
          1217.23790	         1.50148e+59
          1218.04420	         1.16045e+59
          1218.85050	         8.71259e+58
          1219.65680	         5.75345e+58
          1220.46310	         3.46252e+58
          1221.26940	         2.56404e+58
          1222.07570	         1.34420e+58
          1222.88200	         1.06299e+58
          1223.68830	         6.77555e+57
          1224.49460	         3.93026e+57
          1225.30090	         6.39559e+57
          1226.10720	         8.32552e+57
          1226.91350	         6.00969e+57
          1227.71980	         6.86613e+57
          1228.52610	         1.00342e+58
          1229.33240	         1.06906e+58
          1230.13870	         1.17801e+58
          1230.94500	         1.06260e+58
          1231.75130	         7.04441e+57
          1232.55760	         1.14851e+58
          1233.36390	         1.09045e+58
          1234.17020	         9.48004e+57
          1234.97650	         6.87142e+57
          1235.78280	         6.73247e+57
          1236.58910	         9.80728e+57
          1237.39540	         1.12218e+58
          1238.20170	         1.05950e+58
          1239.00800	         1.20202e+58
          1239.81430	         1.36924e+58
          1240.62060	         1.12629e+58
          1241.42690	         1.04560e+58
          1242.23320	         1.35950e+58
          1243.03950	         9.64922e+57
          1243.84580	         8.89264e+57
          1244.65210	         1.05506e+58
          1245.45840	         9.48902e+57
          1246.26470	         9.11684e+57
          1247.07100	         5.63891e+57
          1247.87730	         6.22848e+57
          1248.68360	         3.18332e+57
          1249.48990	         5.58948e+57
          1250.29620	         9.81327e+57
          1251.10250	         7.41278e+57
          1251.90880	         4.45435e+57
          1252.71510	         3.70039e+57
          1253.52140	         4.16653e+57
          1254.32770	         8.52900e+57
          1255.13400	         1.18177e+58
          1255.94030	         1.04607e+58
          1256.74660	         1.17926e+58
          1257.55290	         1.24145e+58
          1258.35920	         8.10249e+57
          1259.16550	         6.06145e+57
          1259.97180	         7.61303e+57
          1260.77810	         7.54210e+57
          1261.58440	         1.12139e+58
          1262.39070	         8.81837e+57
          1263.19700	         7.61952e+57
          1264.00330	         7.20962e+57
          1264.80960	         8.72580e+57
          1265.61590	         1.09945e+58
          1266.42220	         1.26735e+58
          1267.22850	         1.14007e+58
          1268.03480	         1.32875e+58
          1268.84110	         1.28198e+58
          1269.64740	         1.21554e+58
          1270.45370	         1.12330e+58
          1271.26000	         9.74571e+57
          1272.06630	         1.14737e+58
          1272.87260	         1.22341e+58
          1273.67890	         1.33883e+58
          1274.48520	         1.28154e+58
          1275.29150	         1.27546e+58
          1276.09780	         1.07920e+58
          1276.90410	         1.51867e+58
          1277.71040	         1.41722e+58
          1278.51670	         1.06578e+58
          1279.32300	         1.22586e+58
          1280.12930	         1.15824e+58
          1280.93560	         1.15206e+58
          1281.74190	         1.29433e+58
          1282.54820	         1.33326e+58
          1283.35450	         1.16021e+58
          1284.16080	         1.33348e+58
          1284.96710	         1.66578e+58
          1285.77340	         1.41416e+58
          1286.57970	         1.33454e+58
          1287.38600	         1.52451e+58
          1288.19230	         1.58434e+58
          1288.99860	         1.42399e+58
          1289.80490	         1.18626e+58
          1290.61120	         1.52158e+58
          1291.41750	         1.52259e+58
          1292.22380	         1.21092e+58
          1293.03010	         1.09304e+58
          1293.83640	         1.18496e+58
          1294.64270	         9.22942e+57
          1295.44900	         6.58068e+57
          1296.25530	         7.23948e+57
          1297.06160	         9.93591e+57
          1297.86790	         1.17479e+58
          1298.67420	         9.73967e+57
          1299.48050	         9.05327e+57
          1300.28680	         1.03107e+58
          1301.09310	         7.04120e+57
          1301.89940	         3.74630e+57
          1302.70570	         6.87994e+57
          1303.51200	         8.91861e+57
          1304.31830	         1.08337e+58
          1305.12460	         1.13141e+58
          1305.93090	         1.14286e+58
          1306.73720	         1.17639e+58
          1307.54350	         1.38229e+58
          1308.34980	         1.59019e+58
          1309.15610	         1.55089e+58
          1309.96240	         1.50340e+58
          1310.76870	         1.30447e+58
          1311.57500	         1.17503e+58
          1312.38130	         1.07751e+58
          1313.18760	         1.38038e+58
          1313.99390	         1.61074e+58
          1314.80020	         1.64636e+58
          1315.60650	         1.55594e+58
          1316.41280	         1.30542e+58
          1317.21910	         1.02225e+58
          1318.02540	         1.06421e+58
          1318.83170	         1.18484e+58
          1319.63800	         1.07845e+58
          1320.44430	         1.19591e+58
          1321.25060	         1.33397e+58
          1322.05690	         1.34421e+58
          1322.86320	         1.23081e+58
          1323.66950	         9.66100e+57
          1324.47580	         8.65459e+57
          1325.28210	         9.68027e+57
          1326.08840	         1.13969e+58
          1326.89470	         1.30417e+58
          1327.70100	         1.12214e+58
          1328.50730	         9.01039e+57
          1329.31360	         1.17788e+58
          1330.11990	         1.18258e+58
          1330.92620	         8.51312e+57
          1331.73250	         1.06157e+58
          1332.53880	         1.04314e+58
          1333.34510	         8.11301e+57
          1334.15140	         8.31576e+57
          1334.95770	         8.82370e+57
          1335.76400	         1.05571e+58
          1336.57030	         1.09541e+58
          1337.37660	         9.81228e+57
          1338.18290	         1.07614e+58
          1338.98920	         1.26982e+58
          1339.79550	         1.23334e+58
          1340.60180	         1.19004e+58
          1341.40810	         1.32932e+58
          1342.21440	         1.19887e+58
          1343.02070	         1.24020e+58
          1343.82700	         1.44070e+58
          1344.63330	         1.34865e+58
          1345.43960	         1.27088e+58
          1346.24590	         1.12714e+58
          1347.05220	         1.27258e+58
          1347.85850	         1.11778e+58
          1348.66480	         1.14962e+58
          1349.47110	         1.22468e+58
          1350.27740	         1.08610e+58
          1351.08370	         1.05577e+58
          1351.89000	         1.17480e+58
          1352.69630	         1.19893e+58
          1353.50260	         1.22736e+58
          1354.30890	         1.33470e+58
          1355.11520	         1.26280e+58
          1355.92150	         1.08888e+58
          1356.72780	         1.02885e+58
          1357.53410	         1.02320e+58
          1358.34040	         1.20493e+58
          1359.14670	         1.11014e+58
          1359.95300	         8.91348e+57
          1360.75930	         1.00968e+58
          1361.56560	         9.97707e+57
          1362.37190	         1.09126e+58
          1363.17820	         1.09173e+58
          1363.98450	         1.13566e+58
          1364.79080	         1.35987e+58
          1365.59710	         1.28096e+58
          1366.40340	         1.10406e+58
          1367.20970	         1.01115e+58
          1368.01600	         1.00689e+58
          1368.82230	         1.04873e+58
          1369.62860	         1.15533e+58
          1370.43490	         9.90263e+57
          1371.24120	         7.71615e+57
          1372.04750	         8.17697e+57
          1372.85380	         1.07455e+58
          1373.66010	         1.11103e+58
          1374.46640	         1.07666e+58
          1375.27270	         9.91000e+57
          1376.07900	         9.08403e+57
          1376.88530	         9.01625e+57
          1377.69160	         7.46807e+57
          1378.49790	         6.79485e+57
          1379.30420	         8.65462e+57
          1380.11050	         1.04600e+58
          1380.91680	         9.07390e+57
          1381.72310	         8.31616e+57
          1382.52940	         7.51085e+57
          1383.33570	         7.39272e+57
          1384.14200	         1.01221e+58
          1384.94830	         1.11186e+58
          1385.75460	         9.94745e+57
          1386.56090	         9.79654e+57
          1387.36720	         9.40921e+57
          1388.17350	         1.15767e+58
          1388.97980	         1.11874e+58
          1389.78610	         9.45962e+57
          1390.59240	         9.89969e+57
          1391.39870	         7.61268e+57
          1392.20500	         8.44106e+57
          1393.01130	         8.42700e+57
          1393.81760	         7.06592e+57
          1394.62390	         6.26326e+57
          1395.43020	         5.51753e+57
          1396.23650	         5.86898e+57
          1397.04280	         6.75515e+57
          1397.84910	         8.87619e+57
          1398.65540	         9.82494e+57
          1399.46170	         9.70765e+57
          1400.26800	         8.22782e+57
          1401.07430	         8.14026e+57
          1401.88060	         8.20761e+57
          1402.68690	         9.50020e+57
          1403.49320	         1.01322e+58
          1404.29950	         9.80001e+57
          1405.10580	         1.04968e+58
          1405.91210	         1.12440e+58
          1406.71840	         1.06203e+58
          1407.52470	         1.08502e+58
          1408.33100	         1.12675e+58
          1409.13730	         1.26159e+58
          1409.94360	         1.19408e+58
          1410.74990	         1.12685e+58
          1411.55620	         1.02285e+58
          1412.36250	         9.58879e+57
          1413.16880	         9.32234e+57
          1413.97510	         8.06427e+57
          1414.78140	         8.40734e+57
          1415.58770	         1.14592e+58
          1416.39400	         1.20829e+58
          1417.20030	         1.23122e+58
          1418.00660	         9.62510e+57
          1418.81290	         9.95366e+57
          1419.61920	         1.20275e+58
          1420.42550	         1.26668e+58
          1421.23180	         1.28569e+58
          1422.03810	         1.16433e+58
          1422.84440	         1.06448e+58
          1423.65070	         1.28539e+58
          1424.45700	         1.15471e+58
          1425.26330	         9.83859e+57
          1426.06960	         9.13008e+57
          1426.87590	         1.01288e+58
          1427.68220	         9.94318e+57
          1428.48850	         1.06437e+58
          1429.29480	         1.11968e+58
          1430.10110	         1.05666e+58
          1430.90740	         9.22085e+57
          1431.71370	         8.27171e+57
          1432.52000	         7.77522e+57
          1433.32630	         7.57160e+57
          1434.13260	         7.56753e+57
          1434.93890	         7.70600e+57
          1435.74520	         9.19470e+57
          1436.55150	         9.59904e+57
          1437.35780	         9.28739e+57
          1438.16410	         9.20583e+57
          1438.97040	         8.64333e+57
          1439.77670	         8.43479e+57
          1440.58300	         8.01409e+57
          1441.38930	         9.24895e+57
          1442.19560	         8.99880e+57
          1443.00190	         9.11482e+57
          1443.80820	         1.13884e+58
          1444.61450	         1.03476e+58
          1445.42080	         8.38838e+57
          1446.22710	         1.03684e+58
          1447.03340	         9.91370e+57
          1447.83970	         1.05039e+58
          1448.64600	         9.64780e+57
          1449.45230	         9.47859e+57
          1450.25860	         1.03941e+58
          1451.06490	         9.41700e+57
          1451.87120	         8.96522e+57
          1452.67750	         8.51744e+57
          1453.48380	         9.32593e+57
          1454.29010	         7.70548e+57
          1455.09640	         6.26340e+57
          1455.90270	         7.92766e+57
          1456.70900	         9.77686e+57
          1457.51530	         9.66213e+57
          1458.32160	         1.13543e+58
          1459.12790	         1.20617e+58
          1459.93420	         1.04599e+58
          1460.74050	         8.89228e+57
          1461.54680	         1.00226e+58
          1462.35310	         9.51635e+57
          1463.15940	         1.00118e+58
          1463.96570	         1.02098e+58
          1464.77200	         1.10089e+58
          1465.57830	         1.07494e+58
          1466.38460	         9.69956e+57
          1467.19090	         9.01347e+57
          1467.99720	         8.51372e+57
          1468.80350	         8.78472e+57
          1469.60980	         1.04302e+58
          1470.41610	         1.09178e+58
          1471.22240	         9.78442e+57
          1472.02870	         1.05296e+58
          1472.83500	         1.01594e+58
          1473.64130	         9.65511e+57
          1474.44760	         9.81321e+57
          1475.25390	         9.29116e+57
          1476.06020	         7.79098e+57
          1476.86650	         8.05422e+57
          1477.67280	         8.40682e+57
          1478.47910	         8.81917e+57
          1479.28540	         7.22895e+57
          1480.09170	         8.73138e+57
          1480.89800	         1.01618e+58
          1481.70430	         9.37829e+57
          1482.51060	         8.91602e+57
          1483.31690	         8.69684e+57
          1484.12320	         8.01396e+57
          1484.92950	         8.37703e+57
          1485.73580	         7.79719e+57
          1486.54210	         8.17375e+57
          1487.34840	         8.87907e+57
          1488.15470	         8.44683e+57
          1488.96100	         8.35901e+57
          1489.76730	         8.44110e+57
          1490.57360	         8.90073e+57
          1491.37990	         8.30267e+57
          1492.18620	         8.24190e+57
          1492.99250	         9.03425e+57
          1493.79880	         8.92461e+57
          1494.60510	         8.20848e+57
          1495.41140	         7.64962e+57
          1496.21770	         8.66493e+57
          1497.02400	         1.04104e+58
          1497.83030	         9.29761e+57
          1498.63660	         7.11402e+57
          1499.44290	         6.52673e+57
          1500.24920	         7.82131e+57
          1501.05550	         8.56236e+57
          1501.86180	         8.25889e+57
          1502.66810	         8.29244e+57
          1503.47440	         8.22808e+57
          1504.28070	         9.06685e+57
          1505.08700	         9.66970e+57
          1505.89330	         8.81355e+57
          1506.69960	         8.41952e+57
          1507.50590	         8.15156e+57
          1508.31220	         8.46857e+57
          1509.11850	         8.26522e+57
          1509.92480	         9.09175e+57
          1510.73110	         8.70324e+57
          1511.53740	         7.19364e+57
          1512.34370	         7.29178e+57
          1513.15000	         9.62297e+57
          1513.95630	         1.05340e+58
          1514.76260	         8.64921e+57
          1515.56890	         7.59581e+57
          1516.37520	         8.51609e+57
          1517.18150	         8.83635e+57
          1517.98780	         7.26651e+57
          1518.79410	         6.54778e+57
          1519.60040	         7.54959e+57
          1520.40670	         9.33517e+57
          1521.21300	         8.76120e+57
          1522.01930	         8.32550e+57
          1522.82560	         9.49609e+57
          1523.63190	         1.04746e+58
          1524.43820	         9.11894e+57
          1525.24450	         6.13378e+57
          1526.05080	         4.97117e+57
          1526.85710	         6.67105e+57
          1527.66340	         7.46441e+57
          1528.46970	         8.17157e+57
          1529.27600	         7.62029e+57
          1530.08230	         7.17024e+57
          1530.88860	         8.13431e+57
          1531.69490	         9.31190e+57
          1532.50120	         9.80436e+57
          1533.30750	         1.04631e+58
          1534.11380	         9.35615e+57
          1534.92010	         8.70312e+57
          1535.72640	         1.01128e+58
          1536.53270	         1.03020e+58
          1537.33900	         8.69606e+57
          1538.14530	         8.31689e+57
          1538.95160	         9.35617e+57
          1539.75790	         8.42209e+57
          1540.56420	         8.32328e+57
          1541.37050	         7.97503e+57
          1542.17680	         7.70393e+57
          1542.98310	         7.40796e+57
          1543.78940	         7.54143e+57
          1544.59570	         6.90253e+57
          1545.40200	         7.88133e+57
          1546.20830	         9.06259e+57
          1547.01460	         1.07407e+58
          1547.82090	         1.07987e+58
          1548.62720	         1.18582e+58
          1549.43350	         1.21919e+58
          1550.23980	         1.08526e+58
          1551.04610	         1.21281e+58
          1551.85240	         1.25712e+58
          1552.65870	         1.18452e+58
          1553.46500	         1.00943e+58
          1554.27130	         9.88450e+57
          1555.07760	         9.65471e+57
          1555.88390	         7.62345e+57
          1556.69020	         8.28085e+57
          1557.49650	         8.63882e+57
          1558.30280	         8.30374e+57
          1559.10910	         9.12606e+57
          1559.91540	         9.85269e+57
          1560.72170	         9.25241e+57
          1561.52800	         8.48863e+57
          1562.33430	         8.76020e+57
          1563.14060	         9.01048e+57
          1563.94690	         8.59037e+57
          1564.75320	         8.08976e+57
          1565.55950	         7.05224e+57
          1566.36580	         7.47892e+57
          1567.17210	         8.74641e+57
          1567.97840	         8.59881e+57
          1568.78470	         7.79592e+57
          1569.59100	         8.66565e+57
          1570.39730	         8.57264e+57
          1571.20360	         6.93846e+57
          1572.00990	         6.61657e+57
          1572.81620	         8.17951e+57
          1573.62250	         9.54844e+57
          1574.42880	         8.46603e+57
          1575.23510	         7.71829e+57
          1576.04140	         8.32892e+57
          1576.84770	         9.01275e+57
          1577.65400	         9.67736e+57
          1578.46030	         1.03039e+58
          1579.26660	         1.00645e+58
          1580.07290	         9.38906e+57
          1580.87920	         7.88518e+57
          1581.68550	         7.75600e+57
          1582.49180	         7.82805e+57
          1583.29810	         8.02394e+57
          1584.10440	         8.78173e+57
          1584.91070	         8.76159e+57
          1585.71700	         8.03427e+57
          1586.52330	         8.27450e+57
          1587.32960	         8.42173e+57
          1588.13590	         8.91090e+57
          1588.94220	         8.91613e+57
          1589.74850	         9.22465e+57
          1590.55480	         9.26043e+57
          1591.36110	         8.74716e+57
          1592.16740	         8.53143e+57
          1592.97370	         8.54558e+57
          1593.78000	         9.31260e+57
          1594.58630	         9.44669e+57
          1595.39260	         7.98101e+57
          1596.19890	         9.06657e+57
          1597.00520	         1.02165e+58
          1597.81150	         8.98037e+57
          1598.61780	         7.17030e+57
          1599.42410	         6.48247e+57
          1600.23040	         6.42043e+57
          1601.03670	         7.92660e+57
          1601.84300	         7.82763e+57
          1602.64930	         9.61809e+57
          1603.45560	         9.74850e+57
          1604.26190	         8.32738e+57
          1605.06820	         7.93719e+57
          1605.87450	         7.54368e+57
          1606.68080	         7.42539e+57
          1607.48710	         5.91687e+57
          1608.29340	         5.41521e+57
          1609.09970	         6.12403e+57
          1609.90600	         7.36116e+57
          1610.71230	         7.44552e+57
          1611.51860	         7.08550e+57
          1612.32490	         6.74659e+57
          1613.13120	         7.49025e+57
          1613.93750	         7.98770e+57
          1614.74380	         7.78271e+57
          1615.55010	         7.96650e+57
          1616.35640	         9.41527e+57
          1617.16270	         9.92319e+57
          1617.96900	         9.71883e+57
          1618.77530	         8.96997e+57
          1619.58160	         8.93327e+57
          1620.38790	         9.10294e+57
          1621.19420	         9.35967e+57
          1622.00050	         8.44297e+57
          1622.80680	         8.23583e+57
          1623.61310	         7.10537e+57
          1624.41940	         7.57226e+57
          1625.22570	         9.63339e+57
          1626.03200	         8.29896e+57
          1626.83830	         7.84967e+57
          1627.64460	         7.73410e+57
          1628.45090	         7.41810e+57
          1629.25720	         9.24168e+57
          1630.06350	         9.30214e+57
          1630.86980	         5.96003e+57
          1631.67610	         7.64588e+57
          1632.48240	         8.84892e+57
          1633.28870	         7.61591e+57
          1634.09500	         8.79247e+57
          1634.90130	         1.17264e+58
          1635.70760	         9.21900e+57
          1636.51390	         6.93510e+57
          1637.32020	         7.61059e+57
          1638.12650	         9.10854e+57
          1638.93280	         9.86960e+57
          1639.73910	         1.02492e+58
          1640.54540	         9.96615e+57
          1641.35170	         9.20708e+57
          1642.15800	         9.64960e+57
          1642.96430	         9.56204e+57
          1643.77060	         9.22788e+57
          1644.57690	         8.31054e+57
          1645.38320	         8.47950e+57
          1646.18950	         6.91599e+57
          1646.99580	         7.29007e+57
          1647.80210	         8.11524e+57
          1648.60840	         7.97212e+57
          1649.41470	         8.17095e+57
          1650.22100	         7.65625e+57
          1651.02730	         8.12328e+57
          1651.83360	         7.63454e+57
          1652.63990	         7.87642e+57
          1653.44620	         8.70375e+57
          1654.25250	         8.03686e+57
          1655.05880	         6.71843e+57
          1655.86510	         7.72261e+57
          1656.67140	         9.27108e+57
          1657.47770	         9.34032e+57
          1658.28400	         8.10772e+57
          1659.09030	         8.12242e+57
          1659.89660	         9.42927e+57
          1660.70290	         9.77602e+57
          1661.50920	         9.47910e+57
          1662.31550	         8.50568e+57
          1663.12180	         8.46873e+57
          1663.92810	         9.40507e+57
          1664.73440	         1.03572e+58
          1665.54070	         1.16043e+58
          1666.34700	         1.22985e+58
          1667.15330	         1.15667e+58
          1667.95960	         1.02036e+58
          1668.76590	         9.04673e+57
          1669.57220	         7.48089e+57
          1670.37850	         6.66210e+57
          1671.18480	         7.34899e+57
          1671.99110	         8.37371e+57
          1672.79740	         7.95948e+57
          1673.60370	         7.67630e+57
          1674.41000	         8.01241e+57
          1675.21630	         7.02673e+57
          1676.02260	         6.82392e+57
          1676.82890	         7.06525e+57
          1677.63520	         6.97943e+57
          1678.44150	         8.17028e+57
          1679.24780	         9.90421e+57
          1680.05410	         8.09547e+57
          1680.86040	         6.04384e+57
          1681.66670	         6.95902e+57
          1682.47300	         8.04057e+57
          1683.27930	         8.33477e+57
          1684.08560	         8.69532e+57
          1684.89190	         8.09600e+57
          1685.69820	         6.14241e+57
          1686.50450	         5.65950e+57
          1687.31080	         6.02550e+57
          1688.11710	         7.31618e+57
          1688.92340	         6.13218e+57
          1689.72970	         5.71524e+57
          1690.53600	         7.18631e+57
          1691.34230	         6.68890e+57
          1692.14860	         7.57481e+57
          1692.95490	         7.61957e+57
          1693.76120	         7.39320e+57
          1694.56750	         7.33644e+57
          1695.37380	         8.92202e+57
          1696.18010	         9.08791e+57
          1696.98640	         8.43176e+57
          1697.79270	         7.69428e+57
          1698.59900	         7.61603e+57
          1699.40530	         6.98960e+57
          1700.21160	         7.40941e+57
          1701.01790	         8.24789e+57
          1701.82420	         6.99266e+57
          1702.63050	         7.74875e+57
          1703.43680	         9.24312e+57
          1704.24310	         8.75122e+57
          1705.04940	         8.06460e+57
          1705.85570	         7.55387e+57
          1706.66200	         7.70475e+57
          1707.46830	         7.62782e+57
          1708.27460	         6.87797e+57
          1709.08090	         6.67045e+57
          1709.88720	         6.65232e+57
          1710.69350	         6.50347e+57
          1711.49980	         5.83767e+57
          1712.30610	         7.11554e+57
          1713.11240	         7.14847e+57
          1713.91870	         6.83588e+57
          1714.72500	         7.40925e+57
          1715.53130	         8.69567e+57
          1716.33760	         8.47617e+57
          1717.14390	         7.16343e+57
          1717.95020	         8.36694e+57
          1718.75650	         8.96137e+57
          1719.56280	         8.27294e+57
          1720.36910	         7.27464e+57
          1721.17540	         7.11958e+57
          1721.98170	         5.41344e+57
          1722.78800	         5.35502e+57
          1723.59430	         6.85995e+57
          1724.40060	         8.10301e+57
          1725.20690	         8.26925e+57
          1726.01320	         7.72268e+57
          1726.81950	         7.37883e+57
          1727.62580	         7.43402e+57
          1728.43210	         6.80152e+57
          1729.23840	         7.33413e+57
          1730.04470	         8.41032e+57
          1730.85100	         9.23471e+57
          1731.65730	         9.02427e+57
          1732.46360	         8.25255e+57
          1733.26990	         6.58725e+57
          1734.07620	         6.34849e+57
          1734.88250	         7.58872e+57
          1735.68880	         7.73057e+57
          1736.49510	         7.54432e+57
          1737.30140	         7.77564e+57
          1738.10770	         6.43308e+57
          1738.91400	         6.94289e+57
          1739.72030	         7.40390e+57
          1740.52660	         6.26239e+57
          1741.33290	         6.30551e+57
          1742.13920	         6.22631e+57
          1742.94550	         7.23511e+57
          1743.75180	         7.67320e+57
          1744.55810	         8.75836e+57
          1745.36440	         8.65473e+57
          1746.17070	         6.61399e+57
          1746.97700	         6.65715e+57
          1747.78330	         6.90302e+57
          1748.58960	         6.37286e+57
          1749.39590	         6.94706e+57
          1750.20220	         6.49826e+57
          1751.00850	         5.54083e+57
          1751.81480	         5.66516e+57
          1752.62110	         6.68661e+57
          1753.42740	         7.02395e+57
          1754.23370	         7.25646e+57
          1755.04000	         8.27651e+57
          1755.84630	         8.60988e+57
          1756.65260	         8.92830e+57
          1757.45890	         8.41373e+57
          1758.26520	         6.82362e+57
          1759.07150	         8.48981e+57
          1759.87780	         8.52118e+57
          1760.68410	         7.66885e+57
          1761.49040	         8.15131e+57
          1762.29670	         6.57259e+57
          1763.10300	         5.75186e+57
          1763.90930	         6.95043e+57
          1764.71560	         7.13529e+57
          1765.52190	         7.08016e+57
          1766.32820	         7.06222e+57
          1767.13450	         8.17000e+57
          1767.94080	         7.35065e+57
          1768.74710	         5.90552e+57
          1769.55340	         7.30493e+57
          1770.35970	         6.39363e+57
          1771.16600	         6.52210e+57
          1771.97230	         7.70985e+57
          1772.77860	         8.08398e+57
          1773.58490	         7.79014e+57
          1774.39120	         6.03520e+57
          1775.19750	         5.62363e+57
          1776.00380	         6.50665e+57
          1776.81010	         6.02422e+57
          1777.61640	         5.64488e+57
          1778.42270	         6.45817e+57
          1779.22900	         6.45738e+57
          1780.03530	         6.91939e+57
          1780.84160	         7.14489e+57
          1781.64790	         8.15771e+57
          1782.45420	         7.47953e+57
          1783.26050	         5.62514e+57
          1784.06680	         7.24330e+57
          1784.87310	         7.95093e+57
          1785.67940	         7.92163e+57
          1786.48570	         7.92535e+57
          1787.29200	         7.32935e+57
          1788.09830	         5.90748e+57
          1788.90460	         6.11601e+57
          1789.71090	         5.60829e+57
          1790.51720	         5.35013e+57
          1791.32350	         7.06868e+57
          1792.12980	         8.73916e+57
          1792.93610	         8.08079e+57
          1793.74240	         7.34894e+57
          1794.54870	         8.01045e+57
          1795.35500	         8.68825e+57
          1796.16130	         8.90783e+57
          1796.96760	         6.95723e+57
          1797.77390	         6.49773e+57
          1798.58020	         7.12940e+57
          1799.38650	         6.87150e+57
          1800.19280	         6.94792e+57
          1800.99910	         7.42065e+57
          1801.80540	         6.86867e+57
          1802.61170	         8.37657e+57
          1803.41800	         8.81611e+57
          1804.22430	         8.44821e+57
          1805.03060	         7.74595e+57
          1805.83690	         7.12762e+57
          1806.64320	         7.53866e+57
          1807.44950	         7.61180e+57
          1808.25580	         7.48710e+57
          1809.06210	         7.60638e+57
          1809.86840	         6.94196e+57
          1810.67470	         7.27325e+57
          1811.48100	         8.69614e+57
          1812.28730	         8.51784e+57
          1813.09360	         7.39519e+57
          1813.89990	         8.41591e+57
          1814.70620	         6.98226e+57
          1815.51250	         7.84780e+57
          1816.31880	         7.85195e+57
          1817.12510	         6.47328e+57
          1817.93140	         6.17725e+57
          1818.73770	         6.60152e+57
          1819.54400	         8.02332e+57
          1820.35030	         8.11847e+57
          1821.15660	         5.80065e+57
          1821.96290	         6.05910e+57
          1822.76920	         7.50992e+57
          1823.57550	         8.02655e+57
          1824.38180	         7.13193e+57
          1825.18810	         7.39831e+57
          1825.99440	         8.63418e+57
          1826.80070	         7.77532e+57
          1827.60700	         6.51207e+57
          1828.41330	         5.36335e+57
          1829.21960	         6.25636e+57
          1830.02590	         6.38888e+57
          1830.83220	         7.43079e+57
          1831.63850	         7.43243e+57
          1832.44480	         7.20389e+57
          1833.25110	         8.71409e+57
          1834.05740	         8.53010e+57
          1834.86370	         7.63180e+57
          1835.67000	         5.77815e+57
          1836.47630	         7.09680e+57
          1837.28260	         9.06908e+57
          1838.08890	         8.93122e+57
          1838.89520	         8.97825e+57
          1839.70150	         8.65757e+57
          1840.50780	         7.77423e+57
          1841.31410	         7.48495e+57
          1842.12040	         7.28428e+57
          1842.92670	         6.94186e+57
          1843.73300	         6.35048e+57
          1844.53930	         6.50014e+57
          1845.34560	         6.66173e+57
          1846.15190	         6.37837e+57
          1846.95820	         6.98919e+57
          1847.76450	         8.02700e+57
          1848.57080	         5.62980e+57
          1849.37710	         5.82612e+57
          1850.18340	         8.27721e+57
          1850.98970	         8.13671e+57
          1851.79600	         8.46941e+57
          1852.60230	         7.81134e+57
          1853.40860	         7.98237e+57
          1854.21490	         6.47990e+57
          1855.02120	         5.98669e+57
          1855.82750	         5.05913e+57
          1856.63380	         5.36789e+57
          1857.44010	         7.66635e+57
          1858.24640	         7.58448e+57
          1859.05270	         6.72778e+57
          1859.85900	         5.52332e+57
          1860.66530	         5.49039e+57
          1861.47160	         6.59151e+57
          1862.27790	         8.16852e+57
          1863.08420	         8.85656e+57
          1863.89050	         8.38601e+57
          1864.69680	         7.49640e+57
          1865.50310	         7.14645e+57
          1866.30940	         5.98588e+57
          1867.11570	         6.02585e+57
          1867.92200	         6.94310e+57
          1868.72830	         7.11351e+57
          1869.53460	         6.93712e+57
          1870.34090	         7.36442e+57
          1871.14720	         7.82924e+57
          1871.95350	         7.73699e+57
          1872.75980	         7.90706e+57
          1873.56610	         7.05241e+57
          1874.37240	         5.72208e+57
          1875.17870	         5.78531e+57
          1875.98500	         7.64616e+57
          1876.79130	         7.32398e+57
          1877.59760	         6.75232e+57
          1878.40390	         6.19641e+57
          1879.21020	         5.33963e+57
          1880.01650	         6.69948e+57
          1880.82280	         9.03745e+57
          1881.62910	         8.83924e+57
          1882.43540	         9.26064e+57
          1883.24170	         8.12023e+57
          1884.04800	         6.84239e+57
          1884.85430	         7.70071e+57
          1885.66060	         8.79422e+57
          1886.46690	         7.85498e+57
          1887.27320	         7.06286e+57
          1888.07950	         6.37251e+57
          1888.88580	         7.45930e+57
          1889.69210	         8.83245e+57
          1890.49840	         8.55337e+57
          1891.30470	         7.96335e+57
          1892.11100	         8.03491e+57
          1892.91730	         7.11434e+57
          1893.72360	         7.32270e+57
          1894.52990	         7.37970e+57
          1895.33620	         7.70174e+57
          1896.14250	         5.91841e+57
          1896.94880	         5.68507e+57
          1897.75510	         5.51858e+57
          1898.56140	         5.68829e+57
          1899.36770	         8.22255e+57
          1900.17400	         6.56359e+57
          1900.98030	         5.75941e+57
          1901.78660	         7.03271e+57
          1902.59290	         7.20329e+57
          1903.39920	         8.63550e+57
          1904.20550	         1.02009e+58
          1905.01180	         9.47297e+57
          1905.81810	         1.00262e+58
          1906.62440	         1.16280e+58
          1907.43070	         1.44875e+58
          1908.23700	         1.43093e+58
          1909.04330	         1.37014e+58
          1909.84960	         1.14050e+58
          1910.65590	         9.47267e+57
          1911.46220	         9.26012e+57
          1912.26850	         7.21842e+57
          1913.07480	         5.25955e+57
          1913.88110	         5.34627e+57
          1914.68740	         6.09052e+57
          1915.49370	         4.91302e+57
          1916.30000	         5.72688e+57
          1917.10630	         6.99783e+57
          1917.91260	         6.23936e+57
          1918.71890	         6.57885e+57
          1919.52520	         6.48629e+57
          1920.33150	         5.56882e+57
          1921.13780	         6.73028e+57
          1921.94410	         7.85585e+57
          1922.75040	         8.24892e+57
          1923.55670	         8.53931e+57
          1924.36300	         8.18265e+57
          1925.16930	         6.55439e+57
          1925.97560	         5.23953e+57
          1926.78190	         4.33439e+57
          1927.58820	         5.77859e+57
          1928.39450	         6.74801e+57
          1929.20080	         6.23244e+57
          1930.00710	         7.50894e+57
          1930.81340	         7.79974e+57
          1931.61970	         6.72406e+57
          1932.42600	         7.77971e+57
          1933.23230	         7.72168e+57
          1934.03860	         7.01851e+57
          1934.84490	         5.89171e+57
          1935.65120	         7.36780e+57
          1936.45750	         9.20548e+57
          1937.26380	         7.04109e+57
          1938.07010	         7.11542e+57
          1938.87640	         6.50563e+57
          1939.68270	         7.40100e+57
          1940.48900	         8.74214e+57
          1941.29530	         8.47157e+57
          1942.10160	         7.37496e+57
          1942.90790	         6.26425e+57
          1943.71420	         6.95543e+57
          1944.52050	         6.76489e+57
          1945.32680	         5.68217e+57
          1946.13310	         6.63301e+57
          1946.93940	         6.94007e+57
          1947.74570	         6.73206e+57
          1948.55200	         6.50408e+57
          1949.35830	         6.25384e+57
          1950.16460	         6.08319e+57
          1950.97090	         6.20988e+57
          1951.77720	         6.87993e+57
          1952.58350	         7.78259e+57
          1953.38980	         6.27585e+57
          1954.19610	         4.62455e+57
          1955.00240	         5.77182e+57
          1955.80870	         6.47265e+57
          1956.61500	         5.51432e+57
          1957.42130	         5.99660e+57
          1958.22760	         7.30351e+57
          1959.03390	         6.91777e+57
          1959.84020	         5.61950e+57
          1960.64650	         6.13061e+57
          1961.45280	         5.86117e+57
          1962.25910	         5.34654e+57
          1963.06540	         6.76325e+57
          1963.87170	         6.86558e+57
          1964.67800	         7.02772e+57
          1965.48430	         6.67130e+57
          1966.29060	         6.24064e+57
          1967.09690	         7.82579e+57
          1967.90320	         6.18969e+57
          1968.70950	         6.36033e+57
          1969.51580	         6.17769e+57
          1970.32210	         7.42661e+57
          1971.12840	         7.71537e+57
          1971.93470	         5.34632e+57
          1972.74100	         6.36969e+57
          1973.54730	         7.32002e+57
          1974.35360	         7.28725e+57
          1975.15990	         7.09781e+57
          1975.96620	         6.47871e+57
          1976.77250	         7.03528e+57
          1977.57880	         7.61262e+57
          1978.38510	         6.59424e+57
          1979.19140	         7.30487e+57
          1979.99770	         7.78733e+57
          1980.80400	         7.60832e+57
          1981.61030	         6.34656e+57
          1982.41660	         5.80823e+57
          1983.22290	         6.33983e+57
          1984.02920	         5.78923e+57
          1984.83550	         6.10956e+57
          1985.64180	         6.86611e+57
          1986.44810	         6.86636e+57
          1987.25440	         5.42578e+57
          1988.06070	         4.42468e+57
          1988.86700	         5.91778e+57
          1989.67330	         7.28379e+57
          1990.47960	         7.33724e+57
          1991.28590	         6.82941e+57
          1992.09220	         5.88033e+57
          1992.89850	         4.72970e+57
          1993.70480	         4.57566e+57
          1994.51110	         5.01077e+57
          1995.31740	         5.18582e+57
          1996.12370	         5.12441e+57
          1996.93000	         5.98038e+57
          1997.73630	         6.10665e+57
          1998.54260	         6.86881e+57
          1999.34890	         7.67155e+57
          2000.15520	         7.07596e+57
          2000.96150	         6.75208e+57
          2001.76780	         5.04422e+57
          2002.57410	         4.91887e+57
          2003.38040	         6.55683e+57
          2004.18670	         6.69737e+57
          2004.99300	         5.85645e+57
          2005.79930	         6.77450e+57
          2006.60560	         7.13800e+57
          2007.41190	         6.58742e+57
          2008.21820	         6.66530e+57
          2009.02450	         6.68808e+57
          2009.83080	         6.56710e+57
          2010.63710	         6.54772e+57
          2011.44340	         7.43558e+57
          2012.24970	         7.44934e+57
          2013.05600	         7.03039e+57
          2013.86230	         6.39813e+57
          2014.66860	         4.96350e+57
          2015.47490	         6.35713e+57
          2016.28120	         5.12950e+57
          2017.08750	         4.71850e+57
          2017.89380	         6.07884e+57
          2018.70010	         7.62859e+57
          2019.50640	         6.01216e+57
          2020.31270	         6.85239e+57
          2021.11900	         6.79227e+57
          2021.92530	         6.81524e+57
          2022.73160	         8.15075e+57
          2023.53790	         7.99245e+57
          2024.34420	         6.33538e+57
          2025.15050	         5.71440e+57
          2025.95680	         5.51172e+57
          2026.76310	         4.80140e+57
          2027.56940	         5.18091e+57
          2028.37570	         5.63264e+57
          2029.18200	         5.82400e+57
          2029.98830	         7.04479e+57
          2030.79460	         6.74978e+57
          2031.60090	         5.39138e+57
          2032.40720	         5.48401e+57
          2033.21350	         6.58868e+57
          2034.01980	         5.48189e+57
          2034.82610	         3.87717e+57
          2035.63240	         5.43211e+57
          2036.43870	         5.49123e+57
          2037.24500	         6.15078e+57
          2038.05130	         6.51966e+57
          2038.85760	         5.10485e+57
          2039.66390	         5.65538e+57
          2040.47020	         5.97566e+57
          2041.27650	         5.32661e+57
          2042.08280	         5.06172e+57
          2042.88910	         4.80321e+57
          2043.69540	         4.17830e+57
          2044.50170	         5.47320e+57
          2045.30800	         5.58907e+57
          2046.11430	         3.86813e+57
          2046.92060	         4.62671e+57
          2047.72690	         6.66328e+57
          2048.53320	         5.20127e+57
          2049.33950	         4.91599e+57
          2050.14580	         5.15316e+57
          2050.95210	         5.91976e+57
          2051.75840	         7.53541e+57
          2052.56470	         5.93628e+57
          2053.37100	         3.68790e+57
          2054.17730	         4.90625e+57
          2054.98360	         4.93073e+57
          2055.78990	         2.96637e+57
          2056.59620	         3.06622e+57
          2057.40250	         5.48281e+57
          2058.20880	         7.02490e+57
          2059.01510	         5.88849e+57
          2059.82140	         6.13950e+57
          2060.62770	         1.08125e+58
          2061.43400	         1.59059e+58
          2062.24030	         1.40910e+58
          2063.04660	         4.20114e+57
          2063.85290	         2.72480e+57
          2064.65920	        -3.31839e+57
          2065.46550	        -9.54219e+57
          2066.27180	        -1.04076e+58
          2067.07810	         2.34288e+57
          2067.88440	         4.59015e+57
          2068.69070	         5.21125e+57
          2069.49700	         5.30548e+57
          2070.30330	         3.74933e+57
          2071.10960	         5.88765e+57
          2071.91590	         6.12740e+57
          2072.72220	         3.86237e+57
          2073.52850	         5.26264e+57
          2074.33480	         5.05041e+57
          2075.14110	         5.93368e+57
          2075.94740	         4.50591e+57
          2076.75370	         5.09138e+57
          2077.56000	         4.19940e+57
          2078.36630	         5.35814e+57
          2079.17260	         4.67744e+57
          2079.97890	         5.22997e+57
          2080.78520	         6.52269e+57
          2081.59150	         4.99430e+57
          2082.39780	         4.34211e+57
          2083.20410	         2.74106e+57
          2084.01040	         2.30652e+57
          2084.81670	         4.64243e+57
          2085.62300	         3.71355e+57
          2086.42930	         2.91317e+57
          2087.23560	         2.46758e+57
          2088.04190	         2.69300e+57
          2088.84820	         3.60406e+57
          2089.65450	         3.64603e+57
          2090.46080	         3.80674e+57
          2091.26710	         3.52777e+57
          2092.07340	         2.34632e+57
          2092.87970	         2.48169e+57
          2093.68600	        -1.71947e+57
          2094.49230	         2.39333e+57
          2095.29860	         4.20747e+57
          2096.10490	         3.34154e+57
          2096.91120	         1.27782e+57
          2097.71750	         8.25816e+56
          2098.52380	        -9.43406e+56
          2099.33010	         1.22630e+57
          2100.13640	         1.72701e+57
          2100.94270	         7.98483e+56
          2101.74900	         3.14929e+57
          2102.55530	         2.22541e+57
          2103.36160	         9.26967e+56
          2104.16790	         3.34723e+57
          2104.97420	         4.19619e+57
          2105.78050	         1.65024e+57
          2106.58680	        -2.18797e+56
          2107.39310	        -2.31140e+57
          2108.19940	         6.17511e+55
          2109.00570	         1.35653e+57
          2109.81200	         1.43138e+57
          2110.61830	         1.15718e+57
          2111.42460	         1.41456e+57
          2112.23090	         3.19133e+56
          2113.03720	         2.22491e+56
          2113.84350	        -8.23258e+56
          2114.64980	         3.69152e+57
          2115.45610	        -8.76769e+56
          2116.26240	        -2.17014e+57
          2117.06870	        -1.32006e+57
          2117.87500	        -2.30081e+57
          2118.68130	        -2.81626e+57
          2119.48760	         9.77068e+56
          2120.29390	        -2.31119e+56
          2121.10020	        -3.12726e+57
          2121.90650	        -4.61357e+57
          2122.71280	        -3.35631e+57
          2123.51910	         9.95951e+56
          2124.32540	        -1.01574e+57
          2125.13170	        -3.02080e+57
          2125.93800	         2.57716e+57
          2126.74430	         4.23261e+57
          2127.55060	        -6.13816e+57
          2128.35690	        -2.51726e+57
          2129.16320	        -1.36770e+57
          2129.96950	         7.53318e+56
          2130.77580	        -4.04597e+57
          2131.58210	        -4.63415e+57
          2132.38840	         9.41948e+56
          2133.19470	         1.91408e+57
          2134.00100	         8.34301e+56
          2134.80730	        -7.96367e+57
          2135.61360	         8.05316e+57
          2136.41990	         7.62762e+57
          2137.22620	         2.37635e+57
          2138.03250	         1.31438e+57
          2138.83880	        -1.03799e+58
          2139.64510	        -4.86995e+57
          2140.45140	        -6.19666e+57
          2141.25770	        -1.33958e+58
          2142.06400	        -3.93049e+57
          2142.87030	         4.86882e+57
          2143.67660	         1.91256e+57
          2144.48290	         2.60487e+57
          2145.28920	         1.52383e+58
          2146.09550	        -8.90164e+57
          2146.90180	        -1.17424e+58
          2147.70810	        -2.17582e+57
          2148.51440	        -6.37235e+57
          2149.32070	        -1.01232e+58
          2150.12700	        -1.24891e+58
          2150.93330	        -5.57148e+57
          2151.73960	         3.09485e+57
          2152.54590	         3.96066e+57
          2153.35220	         6.48747e+57
          2154.15850	        -4.01713e+57
          2154.96480	         4.92281e+57
          2155.77110	        -6.71695e+57
          2156.57740	        -3.59295e+57
          2157.38370	         3.29795e+57
          2158.19000	        -2.59077e+57
          2158.99630	         3.61335e+57
          2159.80260	        -9.58586e+57
          2160.60890	        -9.78660e+57
          2161.41520	        -3.46440e+57
          2162.22150	        -7.13482e+57
          2163.02780	         6.78057e+56
          2163.83410	        -8.21311e+57
          2164.64040	        -1.12302e+58
          2165.44670	        -1.08543e+58
          2166.25300	        -5.96115e+57
          2167.05930	        -5.93056e+57
          2167.86560	        -3.22555e+57
          2168.67190	        -8.94350e+56
          2169.47820	        -7.47325e+57
          2170.28450	        -5.83412e+57
          2171.09080	         1.87894e+57
          2171.89710	        -5.05671e+55
          2172.70340	         4.14086e+57
          2173.50970	        -1.91833e+57
          2174.31600	        -5.38711e+57
          2175.12230	        -1.23728e+57
          2175.92860	        -3.45410e+57
          2176.73490	        -4.07749e+57
          2177.54120	        -7.36658e+57
          2178.34750	        -4.37337e+57
          2179.15380	                 nan
          2179.96010	                 nan
          2180.76640	                 nan
          2181.57270	                 nan
          2182.37900	                 nan
          2183.18530	                 nan
          2183.99160	                 nan
          2184.79790	                 nan
          2185.60420	                 nan
          2186.41050	                 nan
          2187.21680	                 nan
          2188.02310	                 nan
          2188.82940	                 nan
          2189.63570	                 nan
          2190.44200	                 nan
          2191.24830	                 nan
          2192.05460	                 nan
          2192.86090	                 nan
          2193.66720	                 nan
          2194.47350	                 nan
          2195.27980	                 nan
          2196.08610	                 nan
          2196.89240	                 nan
          2197.69870	                 nan
          2198.50500	                 nan
          2199.31130	                 nan
          2200.11760	                 nan
          2200.92390	                 nan
          2201.73020	                 nan
          2202.53650	                 nan
          2203.34280	                 nan
          2204.14910	                 nan
          2204.95540	                 nan
          2205.76170	                 nan
          2206.56800	                 nan
          2207.37430	                 nan
          2208.18060	                 nan
          2208.98690	                 nan
          2209.79320	                 nan
          2210.59950	                 nan
          2211.40580	                 nan
          2212.21210	                 nan
          2213.01840	                 nan
          2213.82470	                 nan
          2214.63100	                 nan
          2215.43730	         0.00000e+00
