#sample_147_stacked_spectrum_rest_UV-bands_median_H-alpha_noDC.txt
#median Lum: 1.68140e+42
#Rest-frame wavelength (A) | Luminosity (erg/s/A)
#
          1110.00000	         0.00000e+00
          1110.80630	         4.19354e+59
          1111.61260	         2.34492e+59
          1112.41890	        -3.14293e+59
          1113.22520	        -2.46775e+59
          1114.03150	        -1.08975e+59
          1114.83780	         2.87515e+59
          1115.64410	         3.09310e+59
          1116.45040	         1.42148e+59
          1117.25670	         3.83113e+58
          1118.06300	         1.00681e+59
          1118.86930	         3.25533e+58
          1119.67560	         1.04366e+59
          1120.48190	        -4.21737e+58
          1121.28820	        -1.35300e+59
          1122.09450	         2.72835e+58
          1122.90080	         2.53281e+58
          1123.70710	         6.16968e+58
          1124.51340	         1.50079e+59
          1125.31970	         3.01967e+58
          1126.12600	         3.22361e+56
          1126.93230	        -5.57379e+58
          1127.73860	        -1.03855e+59
          1128.54490	        -4.08030e+58
          1129.35120	         1.50300e+58
          1130.15750	        -4.22257e+58
          1130.96380	        -3.62061e+58
          1131.77010	         4.36601e+58
          1132.57640	         7.87039e+58
          1133.38270	         5.09633e+58
          1134.18900	         1.00678e+58
          1134.99530	         1.56410e+57
          1135.80160	         3.65885e+58
          1136.60790	         2.89698e+58
          1137.41420	        -1.04866e+57
          1138.22050	         3.51498e+58
          1139.02680	         3.11312e+58
          1139.83310	         2.49404e+58
          1140.63940	         2.26736e+58
          1141.44570	         1.13012e+57
          1142.25200	        -7.58034e+57
          1143.05830	         4.73655e+57
          1143.86460	         2.82228e+58
          1144.67090	         4.49114e+58
          1145.47720	         2.01880e+58
          1146.28350	         8.32741e+57
          1147.08980	         1.85643e+58
          1147.89610	         2.33477e+58
          1148.70240	         3.00455e+58
          1149.50870	         2.32072e+58
          1150.31500	         1.19856e+58
          1151.12130	         1.15926e+58
          1151.92760	         5.65842e+57
          1152.73390	        -4.07247e+57
          1153.54020	         3.78139e+57
          1154.34650	         2.75972e+58
          1155.15280	         2.75776e+58
          1155.95910	         8.08012e+57
          1156.76540	         1.74933e+58
          1157.57170	         9.02253e+57
          1158.37800	         4.96150e+57
          1159.18430	         1.30997e+58
          1159.99060	         1.38117e+58
          1160.79690	        -1.03064e+57
          1161.60320	         3.94434e+57
          1162.40950	         1.52946e+58
          1163.21580	         1.61004e+58
          1164.02210	         1.57094e+58
          1164.82840	         9.64473e+57
          1165.63470	         2.22188e+58
          1166.44100	         3.38770e+58
          1167.24730	         1.53227e+58
          1168.05360	         4.34419e+57
          1168.85990	         9.31964e+57
          1169.66620	         1.14444e+58
          1170.47250	         4.41503e+57
          1171.27880	         1.43370e+58
          1172.08510	         2.19174e+58
          1172.89140	         7.51808e+57
          1173.69770	         1.10631e+58
          1174.50400	         1.51100e+58
          1175.31030	         1.79103e+58
          1176.11660	         1.90583e+58
          1176.92290	         1.73199e+58
          1177.72920	         1.25795e+58
          1178.53550	         8.78072e+57
          1179.34180	         3.69986e+57
          1180.14810	         3.33804e+57
          1180.95440	         7.88491e+57
          1181.76070	         9.88617e+57
          1182.56700	         8.96480e+57
          1183.37330	         4.29232e+57
          1184.17960	         1.02555e+58
          1184.98590	         9.74343e+57
          1185.79220	         3.38364e+57
          1186.59850	         5.92676e+57
          1187.40480	         5.69423e+57
          1188.21110	         9.21009e+57
          1189.01740	         7.82709e+57
          1189.82370	         1.27664e+58
          1190.63000	         1.55212e+58
          1191.43630	         1.53602e+58
          1192.24260	         9.57883e+57
          1193.04890	         9.23929e+57
          1193.85520	         1.32966e+58
          1194.66150	         4.33005e+57
          1195.46780	         9.52504e+57
          1196.27410	         1.22109e+58
          1197.08040	         1.01716e+58
          1197.88670	         1.35548e+58
          1198.69300	         1.44176e+58
          1199.49930	         1.51316e+58
          1200.30560	         1.16437e+58
          1201.11190	         9.91729e+57
          1201.91820	         7.83715e+57
          1202.72450	         9.36052e+57
          1203.53080	         1.57436e+58
          1204.33710	         9.61683e+57
          1205.14340	         5.17769e+57
          1205.94970	         6.15589e+57
          1206.75600	         4.71870e+57
          1207.56230	         5.32303e+57
          1208.36860	         5.99541e+57
          1209.17490	         5.13351e+57
          1209.98120	         7.89570e+57
          1210.78750	         9.01618e+57
          1211.59380	         1.21771e+58
          1212.40010	         1.58183e+58
          1213.20640	         1.81933e+58
          1214.01270	         1.75395e+58
          1214.81900	         2.57923e+58
          1215.62530	         4.68609e+58
          1216.43160	         9.55827e+58
          1217.23790	         1.51507e+59
          1218.04420	         1.14470e+59
          1218.85050	         8.62278e+58
          1219.65680	         5.64741e+58
          1220.46310	         3.46621e+58
          1221.26940	         2.63648e+58
          1222.07570	         1.59467e+58
          1222.88200	         1.22537e+58
          1223.68830	         8.50728e+57
          1224.49460	         4.61752e+57
          1225.30090	         4.76198e+57
          1226.10720	         4.19105e+57
          1226.91350	         6.24485e+57
          1227.71980	         1.30189e+58
          1228.52610	         1.24388e+58
          1229.33240	         1.27749e+58
          1230.13870	         9.74441e+57
          1230.94500	         8.06782e+57
          1231.75130	         7.73380e+57
          1232.55760	         9.83540e+57
          1233.36390	         9.93299e+57
          1234.17020	         1.03528e+58
          1234.97650	         9.79369e+57
          1235.78280	         1.00464e+58
          1236.58910	         9.32978e+57
          1237.39540	         9.18429e+57
          1238.20170	         9.55598e+57
          1239.00800	         1.19572e+58
          1239.81430	         1.39109e+58
          1240.62060	         9.42551e+57
          1241.42690	         1.20353e+58
          1242.23320	         1.28910e+58
          1243.03950	         6.75248e+57
          1243.84580	         5.95639e+57
          1244.65210	         7.79578e+57
          1245.45840	         8.80877e+57
          1246.26470	         6.72328e+57
          1247.07100	         4.88459e+57
          1247.87730	         7.65902e+57
          1248.68360	         8.33275e+57
          1249.48990	         1.08463e+58
          1250.29620	         1.24787e+58
          1251.10250	         9.04100e+57
          1251.90880	         5.12148e+57
          1252.71510	         4.92049e+57
          1253.52140	         8.30691e+57
          1254.32770	         1.07310e+58
          1255.13400	         1.28191e+58
          1255.94030	         1.13733e+58
          1256.74660	         1.08436e+58
          1257.55290	         1.21671e+58
          1258.35920	         7.83277e+57
          1259.16550	         5.05691e+57
          1259.97180	         4.83242e+57
          1260.77810	         8.30183e+57
          1261.58440	         9.99323e+57
          1262.39070	         7.84935e+57
          1263.19700	         8.40962e+57
          1264.00330	         7.13569e+57
          1264.80960	         7.30792e+57
          1265.61590	         1.14125e+58
          1266.42220	         1.10354e+58
          1267.22850	         1.12587e+58
          1268.03480	         1.43780e+58
          1268.84110	         1.44240e+58
          1269.64740	         1.44917e+58
          1270.45370	         1.51352e+58
          1271.26000	         1.19335e+58
          1272.06630	         1.09152e+58
          1272.87260	         1.31439e+58
          1273.67890	         1.34266e+58
          1274.48520	         1.32468e+58
          1275.29150	         1.32170e+58
          1276.09780	         1.12895e+58
          1276.90410	         1.47398e+58
          1277.71040	         1.43268e+58
          1278.51670	         1.11274e+58
          1279.32300	         1.36369e+58
          1280.12930	         1.22731e+58
          1280.93560	         9.77527e+57
          1281.74190	         1.14176e+58
          1282.54820	         1.23968e+58
          1283.35450	         1.03545e+58
          1284.16080	         1.05285e+58
          1284.96710	         1.43891e+58
          1285.77340	         1.16949e+58
          1286.57970	         1.05403e+58
          1287.38600	         1.61077e+58
          1288.19230	         1.87713e+58
          1288.99860	         1.49517e+58
          1289.80490	         1.15843e+58
          1290.61120	         1.36916e+58
          1291.41750	         1.31723e+58
          1292.22380	         1.13148e+58
          1293.03010	         1.03863e+58
          1293.83640	         1.12407e+58
          1294.64270	         8.44416e+57
          1295.44900	         5.37163e+57
          1296.25530	         7.53324e+57
          1297.06160	         8.75758e+57
          1297.86790	         8.29972e+57
          1298.67420	         7.26662e+57
          1299.48050	         8.63223e+57
          1300.28680	         1.06877e+58
          1301.09310	         8.27188e+57
          1301.89940	         4.20355e+57
          1302.70570	         6.46832e+57
          1303.51200	         9.66617e+57
          1304.31830	         1.10679e+58
          1305.12460	         1.02874e+58
          1305.93090	         1.02703e+58
          1306.73720	         1.11349e+58
          1307.54350	         1.27321e+58
          1308.34980	         1.32207e+58
          1309.15610	         1.43075e+58
          1309.96240	         1.49535e+58
          1310.76870	         1.37100e+58
          1311.57500	         1.19177e+58
          1312.38130	         1.17100e+58
          1313.18760	         1.28297e+58
          1313.99390	         1.40706e+58
          1314.80020	         1.52759e+58
          1315.60650	         1.34017e+58
          1316.41280	         1.21381e+58
          1317.21910	         1.14339e+58
          1318.02540	         1.12533e+58
          1318.83170	         1.18359e+58
          1319.63800	         1.07495e+58
          1320.44430	         1.00323e+58
          1321.25060	         1.18818e+58
          1322.05690	         1.13774e+58
          1322.86320	         1.16109e+58
          1323.66950	         1.20390e+58
          1324.47580	         8.98004e+57
          1325.28210	         9.17125e+57
          1326.08840	         1.12341e+58
          1326.89470	         1.13434e+58
          1327.70100	         1.00220e+58
          1328.50730	         9.50126e+57
          1329.31360	         1.14187e+58
          1330.11990	         1.09199e+58
          1330.92620	         9.19396e+57
          1331.73250	         1.09486e+58
          1332.53880	         1.02808e+58
          1333.34510	         8.79802e+57
          1334.15140	         9.26661e+57
          1334.95770	         1.00568e+58
          1335.76400	         1.01861e+58
          1336.57030	         1.07473e+58
          1337.37660	         1.10820e+58
          1338.18290	         1.04914e+58
          1338.98920	         1.18474e+58
          1339.79550	         1.04750e+58
          1340.60180	         9.92625e+57
          1341.40810	         1.34351e+58
          1342.21440	         1.25747e+58
          1343.02070	         1.19782e+58
          1343.82700	         1.40438e+58
          1344.63330	         1.28313e+58
          1345.43960	         1.10580e+58
          1346.24590	         9.62618e+57
          1347.05220	         1.25555e+58
          1347.85850	         1.03334e+58
          1348.66480	         1.22175e+58
          1349.47110	         1.36821e+58
          1350.27740	         1.16073e+58
          1351.08370	         1.01691e+58
          1351.89000	         1.22084e+58
          1352.69630	         1.26254e+58
          1353.50260	         1.18248e+58
          1354.30890	         1.22509e+58
          1355.11520	         1.23239e+58
          1355.92150	         1.14369e+58
          1356.72780	         1.09666e+58
          1357.53410	         1.03588e+58
          1358.34040	         1.11710e+58
          1359.14670	         1.06629e+58
          1359.95300	         1.12951e+58
          1360.75930	         1.04098e+58
          1361.56560	         9.74081e+57
          1362.37190	         1.06492e+58
          1363.17820	         1.15482e+58
          1363.98450	         1.25324e+58
          1364.79080	         1.22234e+58
          1365.59710	         1.14513e+58
          1366.40340	         1.10024e+58
          1367.20970	         9.14194e+57
          1368.01600	         8.00472e+57
          1368.82230	         1.02892e+58
          1369.62860	         9.91579e+57
          1370.43490	         7.48109e+57
          1371.24120	         9.36205e+57
          1372.04750	         9.37329e+57
          1372.85380	         1.05507e+58
          1373.66010	         1.11331e+58
          1374.46640	         1.03439e+58
          1375.27270	         9.69391e+57
          1376.07900	         9.21417e+57
          1376.88530	         8.66039e+57
          1377.69160	         8.36396e+57
          1378.49790	         7.80294e+57
          1379.30420	         8.37640e+57
          1380.11050	         9.64382e+57
          1380.91680	         9.07344e+57
          1381.72310	         6.59356e+57
          1382.52940	         6.47967e+57
          1383.33570	         6.46216e+57
          1384.14200	         8.61172e+57
          1384.94830	         1.01563e+58
          1385.75460	         1.04125e+58
          1386.56090	         1.13566e+58
          1387.36720	         1.09185e+58
          1388.17350	         1.18730e+58
          1388.97980	         1.10011e+58
          1389.78610	         1.02819e+58
          1390.59240	         9.23792e+57
          1391.39870	         8.90959e+57
          1392.20500	         8.68609e+57
          1393.01130	         6.79475e+57
          1393.81760	         6.47056e+57
          1394.62390	         7.31809e+57
          1395.43020	         5.64416e+57
          1396.23650	         5.24744e+57
          1397.04280	         6.44331e+57
          1397.84910	         8.04220e+57
          1398.65540	         7.53934e+57
          1399.46170	         7.80371e+57
          1400.26800	         8.06561e+57
          1401.07430	         7.13988e+57
          1401.88060	         7.65027e+57
          1402.68690	         9.20494e+57
          1403.49320	         9.50113e+57
          1404.29950	         9.47234e+57
          1405.10580	         9.83659e+57
          1405.91210	         1.00613e+58
          1406.71840	         9.62989e+57
          1407.52470	         9.72321e+57
          1408.33100	         1.02957e+58
          1409.13730	         1.13956e+58
          1409.94360	         1.10541e+58
          1410.74990	         1.11328e+58
          1411.55620	         9.78908e+57
          1412.36250	         8.95598e+57
          1413.16880	         9.41805e+57
          1413.97510	         8.27236e+57
          1414.78140	         8.12643e+57
          1415.58770	         1.05673e+58
          1416.39400	         1.09329e+58
          1417.20030	         9.76479e+57
          1418.00660	         8.06428e+57
          1418.81290	         9.69982e+57
          1419.61920	         1.08538e+58
          1420.42550	         1.25208e+58
          1421.23180	         1.29972e+58
          1422.03810	         1.15783e+58
          1422.84440	         1.07403e+58
          1423.65070	         1.16032e+58
          1424.45700	         1.15075e+58
          1425.26330	         9.08119e+57
          1426.06960	         9.07044e+57
          1426.87590	         9.67226e+57
          1427.68220	         9.76409e+57
          1428.48850	         1.05550e+58
          1429.29480	         1.09709e+58
          1430.10110	         1.09443e+58
          1430.90740	         9.08242e+57
          1431.71370	         8.65813e+57
          1432.52000	         9.19482e+57
          1433.32630	         8.73112e+57
          1434.13260	         7.63418e+57
          1434.93890	         6.95508e+57
          1435.74520	         8.74065e+57
          1436.55150	         9.81622e+57
          1437.35780	         9.64404e+57
          1438.16410	         9.19924e+57
          1438.97040	         8.41008e+57
          1439.77670	         8.94641e+57
          1440.58300	         9.18725e+57
          1441.38930	         9.14232e+57
          1442.19560	         9.98516e+57
          1443.00190	         1.04292e+58
          1443.80820	         1.11300e+58
          1444.61450	         9.34682e+57
          1445.42080	         7.29278e+57
          1446.22710	         9.14072e+57
          1447.03340	         9.98189e+57
          1447.83970	         1.05196e+58
          1448.64600	         1.09049e+58
          1449.45230	         9.60960e+57
          1450.25860	         9.97368e+57
          1451.06490	         9.15503e+57
          1451.87120	         7.51323e+57
          1452.67750	         7.57874e+57
          1453.48380	         9.40311e+57
          1454.29010	         8.78101e+57
          1455.09640	         7.56984e+57
          1455.90270	         7.89174e+57
          1456.70900	         8.71221e+57
          1457.51530	         1.03063e+58
          1458.32160	         1.15140e+58
          1459.12790	         1.16085e+58
          1459.93420	         1.03814e+58
          1460.74050	         7.99197e+57
          1461.54680	         8.52032e+57
          1462.35310	         8.61288e+57
          1463.15940	         9.34616e+57
          1463.96570	         1.11804e+58
          1464.77200	         1.21133e+58
          1465.57830	         1.05984e+58
          1466.38460	         9.17225e+57
          1467.19090	         8.37523e+57
          1467.99720	         8.91378e+57
          1468.80350	         9.74386e+57
          1469.60980	         9.50991e+57
          1470.41610	         9.53638e+57
          1471.22240	         8.65630e+57
          1472.02870	         8.90674e+57
          1472.83500	         1.03581e+58
          1473.64130	         9.95242e+57
          1474.44760	         9.28633e+57
          1475.25390	         9.11500e+57
          1476.06020	         8.39333e+57
          1476.86650	         8.17918e+57
          1477.67280	         8.02066e+57
          1478.47910	         7.34819e+57
          1479.28540	         7.30422e+57
          1480.09170	         8.56712e+57
          1480.89800	         8.46027e+57
          1481.70430	         8.16181e+57
          1482.51060	         8.45004e+57
          1483.31690	         8.65459e+57
          1484.12320	         6.96051e+57
          1484.92950	         7.87206e+57
          1485.73580	         8.33314e+57
          1486.54210	         8.33392e+57
          1487.34840	         8.57100e+57
          1488.15470	         7.30351e+57
          1488.96100	         7.62065e+57
          1489.76730	         8.81069e+57
          1490.57360	         8.53736e+57
          1491.37990	         7.65971e+57
          1492.18620	         7.85517e+57
          1492.99250	         8.50226e+57
          1493.79880	         8.20777e+57
          1494.60510	         8.33764e+57
          1495.41140	         7.48118e+57
          1496.21770	         8.93480e+57
          1497.02400	         1.09456e+58
          1497.83030	         9.57649e+57
          1498.63660	         6.95524e+57
          1499.44290	         7.04861e+57
          1500.24920	         8.04768e+57
          1501.05550	         8.13964e+57
          1501.86180	         8.86344e+57
          1502.66810	         9.17514e+57
          1503.47440	         8.25821e+57
          1504.28070	         8.54569e+57
          1505.08700	         9.10172e+57
          1505.89330	         8.66648e+57
          1506.69960	         8.72341e+57
          1507.50590	         8.58200e+57
          1508.31220	         8.23026e+57
          1509.11850	         8.18793e+57
          1509.92480	         8.35473e+57
          1510.73110	         8.96500e+57
          1511.53740	         7.48308e+57
          1512.34370	         6.57573e+57
          1513.15000	         8.79427e+57
          1513.95630	         9.96437e+57
          1514.76260	         8.44731e+57
          1515.56890	         7.95185e+57
          1516.37520	         8.30648e+57
          1517.18150	         8.12055e+57
          1517.98780	         7.82454e+57
          1518.79410	         5.98700e+57
          1519.60040	         7.27700e+57
          1520.40670	         9.79628e+57
          1521.21300	         9.11903e+57
          1522.01930	         8.46517e+57
          1522.82560	         8.95599e+57
          1523.63190	         9.80286e+57
          1524.43820	         8.03416e+57
          1525.24450	         6.59951e+57
          1526.05080	         6.70121e+57
          1526.85710	         6.84555e+57
          1527.66340	         7.16386e+57
          1528.46970	         8.48902e+57
          1529.27600	         8.18662e+57
          1530.08230	         7.53077e+57
          1530.88860	         7.42258e+57
          1531.69490	         8.61377e+57
          1532.50120	         9.34150e+57
          1533.30750	         8.89130e+57
          1534.11380	         9.64424e+57
          1534.92010	         9.87192e+57
          1535.72640	         9.44148e+57
          1536.53270	         9.48510e+57
          1537.33900	         8.54777e+57
          1538.14530	         7.63971e+57
          1538.95160	         8.12732e+57
          1539.75790	         8.79213e+57
          1540.56420	         8.24038e+57
          1541.37050	         8.01032e+57
          1542.17680	         7.93486e+57
          1542.98310	         7.01178e+57
          1543.78940	         6.86913e+57
          1544.59570	         7.30282e+57
          1545.40200	         8.39918e+57
          1546.20830	         8.92682e+57
          1547.01460	         1.01682e+58
          1547.82090	         1.10728e+58
          1548.62720	         1.28253e+58
          1549.43350	         1.31204e+58
          1550.23980	         1.17308e+58
          1551.04610	         1.23311e+58
          1551.85240	         1.30995e+58
          1552.65870	         1.21790e+58
          1553.46500	         1.04785e+58
          1554.27130	         9.57240e+57
          1555.07760	         9.51518e+57
          1555.88390	         8.59284e+57
          1556.69020	         9.07604e+57
          1557.49650	         9.50322e+57
          1558.30280	         8.68659e+57
          1559.10910	         8.79163e+57
          1559.91540	         9.12557e+57
          1560.72170	         8.58480e+57
          1561.52800	         7.58242e+57
          1562.33430	         7.98302e+57
          1563.14060	         8.58554e+57
          1563.94690	         8.70769e+57
          1564.75320	         8.23533e+57
          1565.55950	         7.07420e+57
          1566.36580	         6.96393e+57
          1567.17210	         8.71180e+57
          1567.97840	         9.34722e+57
          1568.78470	         8.20911e+57
          1569.59100	         8.69141e+57
          1570.39730	         9.23976e+57
          1571.20360	         7.94326e+57
          1572.00990	         7.47927e+57
          1572.81620	         9.15212e+57
          1573.62250	         9.97267e+57
          1574.42880	         8.95262e+57
          1575.23510	         7.26223e+57
          1576.04140	         7.60211e+57
          1576.84770	         8.34513e+57
          1577.65400	         8.48857e+57
          1578.46030	         8.88698e+57
          1579.26660	         9.17286e+57
          1580.07290	         8.98839e+57
          1580.87920	         7.78273e+57
          1581.68550	         7.78041e+57
          1582.49180	         8.24250e+57
          1583.29810	         8.43132e+57
          1584.10440	         7.80664e+57
          1584.91070	         7.62015e+57
          1585.71700	         7.82594e+57
          1586.52330	         8.46161e+57
          1587.32960	         8.18799e+57
          1588.13590	         8.29453e+57
          1588.94220	         7.64530e+57
          1589.74850	         8.53746e+57
          1590.55480	         9.05574e+57
          1591.36110	         8.34999e+57
          1592.16740	         8.60774e+57
          1592.97370	         8.19817e+57
          1593.78000	         8.42233e+57
          1594.58630	         8.82473e+57
          1595.39260	         8.57603e+57
          1596.19890	         9.33524e+57
          1597.00520	         9.62612e+57
          1597.81150	         8.65758e+57
          1598.61780	         6.73064e+57
          1599.42410	         6.33636e+57
          1600.23040	         6.51368e+57
          1601.03670	         7.84038e+57
          1601.84300	         7.68920e+57
          1602.64930	         7.96099e+57
          1603.45560	         7.58896e+57
          1604.26190	         7.31879e+57
          1605.06820	         7.15510e+57
          1605.87450	         7.69129e+57
          1606.68080	         8.66205e+57
          1607.48710	         7.00902e+57
          1608.29340	         5.61671e+57
          1609.09970	         6.66738e+57
          1609.90600	         7.13956e+57
          1610.71230	         7.40708e+57
          1611.51860	         7.80602e+57
          1612.32490	         7.12394e+57
          1613.13120	         7.27806e+57
          1613.93750	         8.24118e+57
          1614.74380	         8.48758e+57
          1615.55010	         8.86846e+57
          1616.35640	         8.75261e+57
          1617.16270	         9.27775e+57
          1617.96900	         9.47640e+57
          1618.77530	         7.70419e+57
          1619.58160	         7.93258e+57
          1620.38790	         9.21224e+57
          1621.19420	         9.36476e+57
          1622.00050	         7.48396e+57
          1622.80680	         8.08610e+57
          1623.61310	         8.54490e+57
          1624.41940	         9.04917e+57
          1625.22570	         9.22500e+57
          1626.03200	         8.46741e+57
          1626.83830	         7.02955e+57
          1627.64460	         6.87983e+57
          1628.45090	         6.92377e+57
          1629.25720	         7.93684e+57
          1630.06350	         9.39264e+57
          1630.86980	         6.57295e+57
          1631.67610	         7.37643e+57
          1632.48240	         9.22380e+57
          1633.28870	         9.15410e+57
          1634.09500	         9.08657e+57
          1634.90130	         9.32808e+57
          1635.70760	         7.71253e+57
          1636.51390	         6.80174e+57
          1637.32020	         6.49866e+57
          1638.12650	         8.84488e+57
          1638.93280	         8.79566e+57
          1639.73910	         9.57603e+57
          1640.54540	         1.00636e+58
          1641.35170	         7.63021e+57
          1642.15800	         8.09303e+57
          1642.96430	         8.91690e+57
          1643.77060	         8.35787e+57
          1644.57690	         8.18365e+57
          1645.38320	         8.79277e+57
          1646.18950	         6.24315e+57
          1646.99580	         8.52842e+57
          1647.80210	         9.10545e+57
          1648.60840	         7.24065e+57
          1649.41470	         7.51046e+57
          1650.22100	         6.27729e+57
          1651.02730	         6.56554e+57
          1651.83360	         6.74636e+57
          1652.63990	         6.84502e+57
          1653.44620	         8.26328e+57
          1654.25250	         7.96490e+57
          1655.05880	         7.49503e+57
          1655.86510	         7.45788e+57
          1656.67140	         7.64733e+57
          1657.47770	         7.64721e+57
          1658.28400	         8.25446e+57
          1659.09030	         8.91495e+57
          1659.89660	         9.05859e+57
          1660.70290	         9.51549e+57
          1661.50920	         9.09914e+57
          1662.31550	         8.08116e+57
          1663.12180	         7.81773e+57
          1663.92810	         8.49773e+57
          1664.73440	         1.12598e+58
          1665.54070	         1.14678e+58
          1666.34700	         1.20917e+58
          1667.15330	         1.06773e+58
          1667.95960	         9.12540e+57
          1668.76590	         8.19716e+57
          1669.57220	         7.24342e+57
          1670.37850	         6.51718e+57
          1671.18480	         7.59911e+57
          1671.99110	         7.58393e+57
          1672.79740	         6.84462e+57
          1673.60370	         6.82307e+57
          1674.41000	         6.78897e+57
          1675.21630	         7.31085e+57
          1676.02260	         6.67329e+57
          1676.82890	         6.83697e+57
          1677.63520	         7.75306e+57
          1678.44150	         7.36636e+57
          1679.24780	         8.23595e+57
          1680.05410	         7.64512e+57
          1680.86040	         6.17580e+57
          1681.66670	         6.75118e+57
          1682.47300	         7.76508e+57
          1683.27930	         8.03477e+57
          1684.08560	         7.95973e+57
          1684.89190	         7.09896e+57
          1685.69820	         5.46439e+57
          1686.50450	         5.03911e+57
          1687.31080	         6.78385e+57
          1688.11710	         7.52615e+57
          1688.92340	         6.65067e+57
          1689.72970	         7.09696e+57
          1690.53600	         6.99161e+57
          1691.34230	         6.59899e+57
          1692.14860	         6.80633e+57
          1692.95490	         7.06295e+57
          1693.76120	         6.83805e+57
          1694.56750	         7.10096e+57
          1695.37380	         8.99656e+57
          1696.18010	         9.01730e+57
          1696.98640	         8.79881e+57
          1697.79270	         8.42821e+57
          1698.59900	         8.61519e+57
          1699.40530	         8.05986e+57
          1700.21160	         7.37249e+57
          1701.01790	         7.73126e+57
          1701.82420	         7.65839e+57
          1702.63050	         7.32273e+57
          1703.43680	         7.51708e+57
          1704.24310	         7.53730e+57
          1705.04940	         8.17628e+57
          1705.85570	         8.85748e+57
          1706.66200	         9.06371e+57
          1707.46830	         7.70791e+57
          1708.27460	         6.98064e+57
          1709.08090	         6.60759e+57
          1709.88720	         6.19065e+57
          1710.69350	         5.95523e+57
          1711.49980	         7.13633e+57
          1712.30610	         8.34387e+57
          1713.11240	         9.15563e+57
          1713.91870	         8.23668e+57
          1714.72500	         8.03248e+57
          1715.53130	         8.58838e+57
          1716.33760	         7.68707e+57
          1717.14390	         7.85108e+57
          1717.95020	         8.34022e+57
          1718.75650	         9.17055e+57
          1719.56280	         9.04629e+57
          1720.36910	         6.89920e+57
          1721.17540	         7.52744e+57
          1721.98170	         7.21993e+57
          1722.78800	         5.95818e+57
          1723.59430	         7.19990e+57
          1724.40060	         7.68916e+57
          1725.20690	         8.28663e+57
          1726.01320	         8.41543e+57
          1726.81950	         7.90551e+57
          1727.62580	         7.70714e+57
          1728.43210	         6.49055e+57
          1729.23840	         7.17766e+57
          1730.04470	         8.26944e+57
          1730.85100	         8.44832e+57
          1731.65730	         8.14162e+57
          1732.46360	         8.03265e+57
          1733.26990	         7.21396e+57
          1734.07620	         7.07820e+57
          1734.88250	         8.01473e+57
          1735.68880	         7.54604e+57
          1736.49510	         7.92192e+57
          1737.30140	         7.82289e+57
          1738.10770	         7.03150e+57
          1738.91400	         6.82222e+57
          1739.72030	         7.09218e+57
          1740.52660	         5.38751e+57
          1741.33290	         5.16703e+57
          1742.13920	         5.38172e+57
          1742.94550	         7.69578e+57
          1743.75180	         9.24716e+57
          1744.55810	         7.80607e+57
          1745.36440	         6.65157e+57
          1746.17070	         5.28731e+57
          1746.97700	         5.43900e+57
          1747.78330	         6.07043e+57
          1748.58960	         6.08244e+57
          1749.39590	         6.11573e+57
          1750.20220	         5.75103e+57
          1751.00850	         6.71195e+57
          1751.81480	         5.86255e+57
          1752.62110	         5.77419e+57
          1753.42740	         7.59439e+57
          1754.23370	         7.63213e+57
          1755.04000	         7.55530e+57
          1755.84630	         8.05709e+57
          1756.65260	         8.53434e+57
          1757.45890	         9.27260e+57
          1758.26520	         6.95707e+57
          1759.07150	         8.13612e+57
          1759.87780	         9.49303e+57
          1760.68410	         8.18151e+57
          1761.49040	         8.11086e+57
          1762.29670	         7.57983e+57
          1763.10300	         7.28952e+57
          1763.90930	         7.83421e+57
          1764.71560	         8.22167e+57
          1765.52190	         8.52818e+57
          1766.32820	         8.75530e+57
          1767.13450	         8.09356e+57
          1767.94080	         6.71260e+57
          1768.74710	         5.56766e+57
          1769.55340	         6.01003e+57
          1770.35970	         5.91988e+57
          1771.16600	         7.09356e+57
          1771.97230	         7.95527e+57
          1772.77860	         8.40033e+57
          1773.58490	         6.84718e+57
          1774.39120	         5.80709e+57
          1775.19750	         4.50956e+57
          1776.00380	         5.32923e+57
          1776.81010	         6.81158e+57
          1777.61640	         5.89660e+57
          1778.42270	         5.93875e+57
          1779.22900	         6.82558e+57
          1780.03530	         6.61407e+57
          1780.84160	         7.20721e+57
          1781.64790	         8.08163e+57
          1782.45420	         7.14447e+57
          1783.26050	         6.26510e+57
          1784.06680	         6.69462e+57
          1784.87310	         6.86843e+57
          1785.67940	         7.68682e+57
          1786.48570	         7.10118e+57
          1787.29200	         6.40379e+57
          1788.09830	         6.26262e+57
          1788.90460	         5.49434e+57
          1789.71090	         5.08808e+57
          1790.51720	         4.87196e+57
          1791.32350	         6.71611e+57
          1792.12980	         8.44093e+57
          1792.93610	         8.55168e+57
          1793.74240	         7.62129e+57
          1794.54870	         7.17450e+57
          1795.35500	         8.15753e+57
          1796.16130	         8.95786e+57
          1796.96760	         7.95964e+57
          1797.77390	         7.30613e+57
          1798.58020	         7.35454e+57
          1799.38650	         6.98762e+57
          1800.19280	         7.45658e+57
          1800.99910	         8.14802e+57
          1801.80540	         7.37460e+57
          1802.61170	         7.80810e+57
          1803.41800	         8.00292e+57
          1804.22430	         7.25370e+57
          1805.03060	         7.72143e+57
          1805.83690	         7.20756e+57
          1806.64320	         7.50599e+57
          1807.44950	         7.27797e+57
          1808.25580	         8.23963e+57
          1809.06210	         9.40916e+57
          1809.86840	         7.36667e+57
          1810.67470	         7.76337e+57
          1811.48100	         8.04768e+57
          1812.28730	         8.36357e+57
          1813.09360	         8.06524e+57
          1813.89990	         8.73867e+57
          1814.70620	         7.64900e+57
          1815.51250	         8.12682e+57
          1816.31880	         8.97556e+57
          1817.12510	         7.86887e+57
          1817.93140	         6.30788e+57
          1818.73770	         6.33769e+57
          1819.54400	         8.25383e+57
          1820.35030	         8.27657e+57
          1821.15660	         5.75764e+57
          1821.96290	         6.12779e+57
          1822.76920	         7.37724e+57
          1823.57550	         7.64014e+57
          1824.38180	         6.77861e+57
          1825.18810	         7.64995e+57
          1825.99440	         7.71090e+57
          1826.80070	         7.88802e+57
          1827.60700	         6.95493e+57
          1828.41330	         5.85659e+57
          1829.21960	         5.85211e+57
          1830.02590	         6.51575e+57
          1830.83220	         7.61755e+57
          1831.63850	         7.78080e+57
          1832.44480	         7.66080e+57
          1833.25110	         8.26590e+57
          1834.05740	         8.51018e+57
          1834.86370	         7.08446e+57
          1835.67000	         6.38613e+57
          1836.47630	         8.27474e+57
          1837.28260	         8.06574e+57
          1838.08890	         7.30469e+57
          1838.89520	         7.61142e+57
          1839.70150	         7.65970e+57
          1840.50780	         7.66417e+57
          1841.31410	         6.96318e+57
          1842.12040	         6.15328e+57
          1842.92670	         6.60107e+57
          1843.73300	         6.77304e+57
          1844.53930	         6.78563e+57
          1845.34560	         7.79612e+57
          1846.15190	         7.79496e+57
          1846.95820	         6.83225e+57
          1847.76450	         6.61124e+57
          1848.57080	         6.98457e+57
          1849.37710	         6.52509e+57
          1850.18340	         7.05215e+57
          1850.98970	         7.14026e+57
          1851.79600	         7.26206e+57
          1852.60230	         7.41178e+57
          1853.40860	         6.67529e+57
          1854.21490	         6.79244e+57
          1855.02120	         6.73203e+57
          1855.82750	         6.04368e+57
          1856.63380	         6.82344e+57
          1857.44010	         6.85909e+57
          1858.24640	         7.17693e+57
          1859.05270	         7.79959e+57
          1859.85900	         5.77926e+57
          1860.66530	         5.64330e+57
          1861.47160	         6.69178e+57
          1862.27790	         6.40930e+57
          1863.08420	         7.37796e+57
          1863.89050	         7.70523e+57
          1864.69680	         7.49774e+57
          1865.50310	         7.69318e+57
          1866.30940	         6.91092e+57
          1867.11570	         6.71347e+57
          1867.92200	         7.58293e+57
          1868.72830	         6.94715e+57
          1869.53460	         6.07374e+57
          1870.34090	         7.10671e+57
          1871.14720	         6.98738e+57
          1871.95350	         6.31252e+57
          1872.75980	         6.50519e+57
          1873.56610	         6.66711e+57
          1874.37240	         5.53134e+57
          1875.17870	         5.96973e+57
          1875.98500	         7.32719e+57
          1876.79130	         7.06404e+57
          1877.59760	         6.36708e+57
          1878.40390	         5.64892e+57
          1879.21020	         5.48556e+57
          1880.01650	         6.78573e+57
          1880.82280	         8.27153e+57
          1881.62910	         9.13944e+57
          1882.43540	         8.63853e+57
          1883.24170	         7.49191e+57
          1884.04800	         7.64044e+57
          1884.85430	         8.58373e+57
          1885.66060	         8.35887e+57
          1886.46690	         7.71368e+57
          1887.27320	         7.20883e+57
          1888.07950	         7.06696e+57
          1888.88580	         7.91371e+57
          1889.69210	         9.33731e+57
          1890.49840	         8.51588e+57
          1891.30470	         7.72583e+57
          1892.11100	         8.22614e+57
          1892.91730	         7.49653e+57
          1893.72360	         6.69019e+57
          1894.52990	         7.84560e+57
          1895.33620	         8.05727e+57
          1896.14250	         7.68199e+57
          1896.94880	         5.76437e+57
          1897.75510	         4.63944e+57
          1898.56140	         6.74753e+57
          1899.36770	         8.02280e+57
          1900.17400	         5.74184e+57
          1900.98030	         5.03600e+57
          1901.78660	         6.85251e+57
          1902.59290	         7.19017e+57
          1903.39920	         8.46436e+57
          1904.20550	         9.57678e+57
          1905.01180	         8.95382e+57
          1905.81810	         9.47808e+57
          1906.62440	         1.28192e+58
          1907.43070	         1.59025e+58
          1908.23700	         1.46439e+58
          1909.04330	         1.29903e+58
          1909.84960	         1.09282e+58
          1910.65590	         9.73546e+57
          1911.46220	         9.71090e+57
          1912.26850	         7.89108e+57
          1913.07480	         5.90887e+57
          1913.88110	         5.81822e+57
          1914.68740	         5.38020e+57
          1915.49370	         4.51212e+57
          1916.30000	         6.13746e+57
          1917.10630	         7.69950e+57
          1917.91260	         7.51458e+57
          1918.71890	         7.60819e+57
          1919.52520	         6.93441e+57
          1920.33150	         5.28758e+57
          1921.13780	         5.83713e+57
          1921.94410	         8.11377e+57
          1922.75040	         7.16214e+57
          1923.55670	         6.86156e+57
          1924.36300	         7.33702e+57
          1925.16930	         6.48536e+57
          1925.97560	         5.53980e+57
          1926.78190	         4.69982e+57
          1927.58820	         5.56477e+57
          1928.39450	         5.39954e+57
          1929.20080	         5.28389e+57
          1930.00710	         7.31018e+57
          1930.81340	         8.25337e+57
          1931.61970	         6.43000e+57
          1932.42600	         6.22741e+57
          1933.23230	         7.59830e+57
          1934.03860	         6.27799e+57
          1934.84490	         6.08766e+57
          1935.65120	         8.66823e+57
          1936.45750	         9.34441e+57
          1937.26380	         7.15668e+57
          1938.07010	         7.32561e+57
          1938.87640	         7.35692e+57
          1939.68270	         6.96153e+57
          1940.48900	         7.50859e+57
          1941.29530	         7.99722e+57
          1942.10160	         7.69117e+57
          1942.90790	         6.42095e+57
          1943.71420	         5.95928e+57
          1944.52050	         5.71243e+57
          1945.32680	         6.06412e+57
          1946.13310	         7.44396e+57
          1946.93940	         8.17653e+57
          1947.74570	         7.31183e+57
          1948.55200	         7.06791e+57
          1949.35830	         6.88414e+57
          1950.16460	         5.99177e+57
          1950.97090	         6.00049e+57
          1951.77720	         7.03256e+57
          1952.58350	         7.13342e+57
          1953.38980	         4.57279e+57
          1954.19610	         2.98789e+57
          1955.00240	         4.84491e+57
          1955.80870	         6.29644e+57
          1956.61500	         5.97442e+57
          1957.42130	         5.92003e+57
          1958.22760	         6.42872e+57
          1959.03390	         8.16098e+57
          1959.84020	         7.83365e+57
          1960.64650	         7.52540e+57
          1961.45280	         6.88492e+57
          1962.25910	         5.45284e+57
          1963.06540	         5.29524e+57
          1963.87170	         5.69569e+57
          1964.67800	         6.82423e+57
          1965.48430	         6.73685e+57
          1966.29060	         6.54741e+57
          1967.09690	         8.10876e+57
          1967.90320	         7.01057e+57
          1968.70950	         5.31619e+57
          1969.51580	         4.78423e+57
          1970.32210	         7.01478e+57
          1971.12840	         7.10632e+57
          1971.93470	         4.55031e+57
          1972.74100	         4.97467e+57
          1973.54730	         6.77186e+57
          1974.35360	         6.66724e+57
          1975.15990	         7.06139e+57
          1975.96620	         6.52553e+57
          1976.77250	         6.93671e+57
          1977.57880	         7.33358e+57
          1978.38510	         6.29777e+57
          1979.19140	         6.34338e+57
          1979.99770	         6.96947e+57
          1980.80400	         7.69982e+57
          1981.61030	         6.53110e+57
          1982.41660	         5.82357e+57
          1983.22290	         6.26789e+57
          1984.02920	         5.55344e+57
          1984.83550	         5.34069e+57
          1985.64180	         6.08294e+57
          1986.44810	         6.31955e+57
          1987.25440	         5.95226e+57
          1988.06070	         5.37582e+57
          1988.86700	         5.89814e+57
          1989.67330	         6.07849e+57
          1990.47960	         6.32239e+57
          1991.28590	         6.95927e+57
          1992.09220	         6.00912e+57
          1992.89850	         5.53004e+57
          1993.70480	         4.67000e+57
          1994.51110	         4.44047e+57
          1995.31740	         4.92658e+57
          1996.12370	         5.68893e+57
          1996.93000	         5.94347e+57
          1997.73630	         7.32667e+57
          1998.54260	         7.78589e+57
          1999.34890	         7.08794e+57
          2000.15520	         6.34531e+57
          2000.96150	         6.71910e+57
          2001.76780	         6.01560e+57
          2002.57410	         5.30046e+57
          2003.38040	         6.71926e+57
          2004.18670	         7.23538e+57
          2004.99300	         6.61127e+57
          2005.79930	         7.75373e+57
          2006.60560	         7.48909e+57
          2007.41190	         6.49397e+57
          2008.21820	         6.15039e+57
          2009.02450	         6.92183e+57
          2009.83080	         6.50253e+57
          2010.63710	         6.59632e+57
          2011.44340	         6.96097e+57
          2012.24970	         7.76038e+57
          2013.05600	         7.58415e+57
          2013.86230	         6.85725e+57
          2014.66860	         6.23761e+57
          2015.47490	         7.06862e+57
          2016.28120	         6.49266e+57
          2017.08750	         6.42828e+57
          2017.89380	         6.90175e+57
          2018.70010	         7.27475e+57
          2019.50640	         5.79194e+57
          2020.31270	         6.13938e+57
          2021.11900	         6.52356e+57
          2021.92530	         7.48263e+57
          2022.73160	         6.95031e+57
          2023.53790	         7.06580e+57
          2024.34420	         7.60148e+57
          2025.15050	         6.56491e+57
          2025.95680	         6.49492e+57
          2026.76310	         5.66488e+57
          2027.56940	         5.60019e+57
          2028.37570	         7.28852e+57
          2029.18200	         6.67471e+57
          2029.98830	         6.38684e+57
          2030.79460	         7.01025e+57
          2031.60090	         7.02833e+57
          2032.40720	         4.81127e+57
          2033.21350	         5.14557e+57
          2034.01980	         5.20578e+57
          2034.82610	         4.39655e+57
          2035.63240	         4.59203e+57
          2036.43870	         6.04106e+57
          2037.24500	         6.53864e+57
          2038.05130	         6.73242e+57
          2038.85760	         5.83604e+57
          2039.66390	         5.30953e+57
          2040.47020	         6.07861e+57
          2041.27650	         6.17616e+57
          2042.08280	         5.72393e+57
          2042.88910	         4.89320e+57
          2043.69540	         5.28387e+57
          2044.50170	         6.51880e+57
          2045.30800	         5.85229e+57
          2046.11430	         4.59536e+57
          2046.92060	         4.88304e+57
          2047.72690	         5.89727e+57
          2048.53320	         6.33972e+57
          2049.33950	         5.18001e+57
          2050.14580	         5.71444e+57
          2050.95210	         6.23355e+57
          2051.75840	         8.48884e+57
          2052.56470	         6.75865e+57
          2053.37100	         5.00346e+57
          2054.17730	         5.02475e+57
          2054.98360	         3.41874e+57
          2055.78990	         2.83960e+57
          2056.59620	         3.15551e+57
          2057.40250	         5.00450e+57
          2058.20880	         6.80787e+57
          2059.01510	         6.59707e+57
          2059.82140	         6.62008e+57
          2060.62770	         1.06460e+58
          2061.43400	         1.59203e+58
          2062.24030	         1.15165e+58
          2063.04660	         4.27271e+57
          2063.85290	         1.76913e+57
          2064.65920	        -3.33619e+57
          2065.46550	        -6.55986e+57
          2066.27180	        -8.15145e+57
          2067.07810	         5.44251e+57
          2067.88440	         6.19515e+57
          2068.69070	         5.99184e+57
          2069.49700	         4.95626e+57
          2070.30330	         3.05421e+57
          2071.10960	         5.91624e+57
          2071.91590	         6.98349e+57
          2072.72220	         4.50983e+57
          2073.52850	         3.77056e+57
          2074.33480	         3.63278e+57
          2075.14110	         5.00253e+57
          2075.94740	         4.29309e+57
          2076.75370	         4.60987e+57
          2077.56000	         5.05669e+57
          2078.36630	         4.56897e+57
          2079.17260	         5.83779e+57
          2079.97890	         4.90972e+57
          2080.78520	         5.41616e+57
          2081.59150	         5.21019e+57
          2082.39780	         5.17771e+57
          2083.20410	         3.67881e+57
          2084.01040	         2.28386e+57
          2084.81670	         4.42831e+57
          2085.62300	         4.42769e+57
          2086.42930	         3.25541e+57
          2087.23560	         4.01429e+57
          2088.04190	         4.16440e+57
          2088.84820	         4.61699e+57
          2089.65450	         2.51962e+57
          2090.46080	         8.43401e+56
          2091.26710	         3.17603e+57
          2092.07340	         4.33139e+57
          2092.87970	         3.74864e+57
          2093.68600	         4.59979e+56
          2094.49230	        -1.23176e+56
          2095.29860	         3.73883e+57
          2096.10490	         3.19730e+57
          2096.91120	         3.30537e+57
          2097.71750	         1.56124e+56
          2098.52380	         1.12593e+57
          2099.33010	         3.09708e+56
          2100.13640	         1.64656e+57
          2100.94270	         3.01579e+57
          2101.74900	         2.51984e+57
          2102.55530	         1.43146e+57
          2103.36160	         1.25280e+57
          2104.16790	         1.59153e+57
          2104.97420	         2.40595e+56
          2105.78050	         8.87416e+56
          2106.58680	         9.64215e+56
          2107.39310	        -9.83605e+56
          2108.19940	         5.38318e+56
          2109.00570	        -1.63010e+57
          2109.81200	        -1.16030e+57
          2110.61830	         1.69745e+57
          2111.42460	         7.00217e+56
          2112.23090	        -1.26336e+56
          2113.03720	         5.00616e+56
          2113.84350	         2.21138e+57
          2114.64980	         7.87090e+57
          2115.45610	        -1.05806e+57
          2116.26240	        -4.08398e+57
          2117.06870	        -3.51942e+57
          2117.87500	        -3.90158e+57
          2118.68130	        -1.63238e+57
          2119.48760	         1.39601e+57
          2120.29390	         3.09451e+57
          2121.10020	        -3.92958e+57
          2121.90650	        -3.35334e+57
          2122.71280	        -7.84619e+56
          2123.51910	         4.60444e+57
          2124.32540	         4.93435e+57
          2125.13170	        -7.01507e+56
          2125.93800	        -3.30575e+57
          2126.74430	        -5.56399e+57
          2127.55060	        -7.32359e+57
          2128.35690	        -7.25076e+57
          2129.16320	        -1.28338e+57
          2129.96950	        -2.90284e+57
          2130.77580	        -2.71604e+57
          2131.58210	        -3.75513e+57
          2132.38840	         6.66828e+55
          2133.19470	         1.32170e+57
          2134.00100	        -8.45993e+56
          2134.80730	        -7.14293e+57
          2135.61360	         8.32738e+57
          2136.41990	         7.59384e+57
          2137.22620	         8.24432e+57
          2138.03250	         8.54828e+56
          2138.83880	         2.51593e+57
          2139.64510	        -8.39472e+56
          2140.45140	        -5.68887e+57
          2141.25770	        -1.30722e+58
          2142.06400	        -7.80524e+57
          2142.87030	         4.92265e+57
          2143.67660	         4.87557e+57
          2144.48290	         3.34327e+57
          2145.28920	         7.24942e+57
          2146.09550	        -7.05372e+57
          2146.90180	        -6.76336e+57
          2147.70810	         3.09382e+56
          2148.51440	         6.53057e+57
          2149.32070	        -2.67620e+57
          2150.12700	        -1.28040e+58
          2150.93330	        -1.09580e+58
          2151.73960	         6.51504e+57
          2152.54590	         1.35406e+57
          2153.35220	        -1.08311e+57
          2154.15850	        -6.44282e+57
          2154.96480	         2.65537e+57
          2155.77110	        -6.30713e+57
          2156.57740	        -7.39934e+57
          2157.38370	        -5.09010e+57
          2158.19000	        -2.33784e+57
          2158.99630	        -7.32311e+56
          2159.80260	        -1.27422e+58
          2160.60890	        -3.63191e+57
          2161.41520	        -4.73158e+57
          2162.22150	        -9.75803e+57
          2163.02780	         3.65569e+57
          2163.83410	        -2.86122e+56
          2164.64040	        -4.05080e+57
          2165.44670	        -1.06246e+58
          2166.25300	        -1.24549e+58
          2167.05930	        -1.11021e+58
          2167.86560	        -3.20790e+57
          2168.67190	        -1.04379e+58
          2169.47820	        -1.13968e+58
          2170.28450	        -1.05218e+58
          2171.09080	         2.39901e+57
          2171.89710	        -5.64607e+57
          2172.70340	         1.02038e+57
          2173.50970	        -5.57542e+57
          2174.31600	        -3.03911e+57
          2175.12230	        -8.62024e+56
          2175.92860	        -2.74378e+57
          2176.73490	        -9.56209e+57
          2177.54120	        -4.41307e+57
          2178.34750	        -4.66937e+57
          2179.15380	                 nan
          2179.96010	                 nan
          2180.76640	                 nan
          2181.57270	                 nan
          2182.37900	                 nan
          2183.18530	                 nan
          2183.99160	                 nan
          2184.79790	                 nan
          2185.60420	                 nan
          2186.41050	                 nan
          2187.21680	                 nan
          2188.02310	                 nan
          2188.82940	                 nan
          2189.63570	                 nan
          2190.44200	                 nan
          2191.24830	                 nan
          2192.05460	                 nan
          2192.86090	                 nan
          2193.66720	                 nan
          2194.47350	                 nan
          2195.27980	                 nan
          2196.08610	                 nan
          2196.89240	                 nan
          2197.69870	                 nan
          2198.50500	                 nan
          2199.31130	                 nan
          2200.11760	                 nan
          2200.92390	                 nan
          2201.73020	                 nan
          2202.53650	                 nan
          2203.34280	                 nan
          2204.14910	                 nan
          2204.95540	                 nan
          2205.76170	                 nan
          2206.56800	                 nan
          2207.37430	                 nan
          2208.18060	                 nan
          2208.98690	                 nan
          2209.79320	                 nan
          2210.59950	                 nan
          2211.40580	                 nan
          2212.21210	                 nan
          2213.01840	                 nan
          2213.82470	                 nan
          2214.63100	                 nan
          2215.43730	         0.00000e+00
