#sample_394_stacked_spectrum_rest_UV-bands_median_H-alpha_noDC.txt
#median Lum: 1.66828e+42
#Rest-frame wavelength (A) | Luminosity (erg/s/A)
#
          1110.00000	         0.00000e+00
          1110.80630	         1.58631e+59
          1111.61260	        -6.73968e+58
          1112.41890	        -4.20869e+58
          1113.22520	        -6.86536e+58
          1114.03150	        -2.36676e+58
          1114.83780	         3.69197e+59
          1115.64410	         2.49322e+59
          1116.45040	         2.00542e+59
          1117.25670	         1.22772e+58
          1118.06300	         1.11461e+59
          1118.86930	         4.54388e+58
          1119.67560	         1.25009e+59
          1120.48190	         2.48028e+58
          1121.28820	        -1.56714e+59
          1122.09450	        -2.84226e+58
          1122.90080	        -2.71055e+58
          1123.70710	         6.59054e+58
          1124.51340	         7.77181e+58
          1125.31970	        -2.68807e+58
          1126.12600	         1.14901e+58
          1126.93230	        -4.65589e+58
          1127.73860	        -3.85702e+58
          1128.54490	        -5.15180e+56
          1129.35120	         3.74232e+58
          1130.15750	         3.31500e+57
          1130.96380	         2.20862e+57
          1131.77010	         5.51824e+58
          1132.57640	         5.30315e+58
          1133.38270	         5.87167e+58
          1134.18900	         1.38698e+58
          1134.99530	        -4.74889e+57
          1135.80160	         8.09924e+57
          1136.60790	         8.83192e+57
          1137.41420	        -1.77873e+58
          1138.22050	         4.33970e+58
          1139.02680	         4.04657e+58
          1139.83310	         3.55302e+58
          1140.63940	         1.14925e+58
          1141.44570	        -3.09676e+58
          1142.25200	        -1.88800e+57
          1143.05830	        -2.92085e+57
          1143.86460	         1.27578e+58
          1144.67090	         4.99733e+58
          1145.47720	         2.51088e+58
          1146.28350	         8.22313e+57
          1147.08980	         6.16805e+57
          1147.89610	         1.61113e+58
          1148.70240	         3.43475e+58
          1149.50870	         2.67127e+58
          1150.31500	         1.75923e+58
          1151.12130	         5.14632e+57
          1151.92760	         1.05855e+58
          1152.73390	         4.41397e+57
          1153.54020	         9.73918e+57
          1154.34650	         2.97840e+58
          1155.15280	         2.26301e+58
          1155.95910	         6.94257e+57
          1156.76540	         5.30882e+57
          1157.57170	         1.19081e+57
          1158.37800	        -4.62129e+57
          1159.18430	         8.78121e+56
          1159.99060	         1.89653e+57
          1160.79690	         1.31956e+57
          1161.60320	         3.79241e+57
          1162.40950	         1.36373e+58
          1163.21580	         1.11586e+58
          1164.02210	         1.35792e+58
          1164.82840	         1.87416e+58
          1165.63470	         2.32430e+58
          1166.44100	         3.09596e+58
          1167.24730	         2.67020e+58
          1168.05360	         2.01605e+58
          1168.85990	         6.11558e+57
          1169.66620	         4.47602e+57
          1170.47250	         1.26116e+58
          1171.27880	         1.74903e+58
          1172.08510	         1.33355e+58
          1172.89140	         2.96570e+57
          1173.69770	         3.04959e+57
          1174.50400	         1.20512e+58
          1175.31030	         1.82406e+58
          1176.11660	         1.39682e+58
          1176.92290	         1.45000e+58
          1177.72920	         1.11938e+58
          1178.53550	         4.34165e+57
          1179.34180	         3.44546e+57
          1180.14810	         5.43745e+57
          1180.95440	         6.73444e+57
          1181.76070	         7.05443e+57
          1182.56700	         8.04546e+57
          1183.37330	         6.61595e+57
          1184.17960	         1.12869e+58
          1184.98590	         1.20266e+58
          1185.79220	         6.51223e+57
          1186.59850	         8.28086e+57
          1187.40480	         7.06474e+57
          1188.21110	         1.48566e+58
          1189.01740	         1.22290e+58
          1189.82370	         1.37101e+58
          1190.63000	         1.64909e+58
          1191.43630	         1.68164e+58
          1192.24260	         8.67158e+57
          1193.04890	         1.52372e+58
          1193.85520	         1.18487e+58
          1194.66150	         8.55670e+57
          1195.46780	         1.26770e+58
          1196.27410	         1.26801e+58
          1197.08040	         8.95570e+57
          1197.88670	         1.38949e+58
          1198.69300	         1.36362e+58
          1199.49930	         1.03495e+58
          1200.30560	         1.04680e+58
          1201.11190	         1.28402e+58
          1201.91820	         9.58586e+57
          1202.72450	         5.96207e+57
          1203.53080	         1.36104e+58
          1204.33710	         7.10791e+57
          1205.14340	         6.28218e+57
          1205.94970	         7.02545e+57
          1206.75600	         4.30636e+57
          1207.56230	         3.49676e+57
          1208.36860	         4.36922e+57
          1209.17490	         9.31306e+56
          1209.98120	         5.16949e+57
          1210.78750	         1.22469e+58
          1211.59380	         1.34825e+58
          1212.40010	         1.39468e+58
          1213.20640	         1.76183e+58
          1214.01270	         2.01431e+58
          1214.81900	         2.54594e+58
          1215.62530	         4.31830e+58
          1216.43160	         8.80923e+58
          1217.23790	         1.46633e+59
          1218.04420	         1.14468e+59
          1218.85050	         8.81866e+58
          1219.65680	         5.72045e+58
          1220.46310	         3.00425e+58
          1221.26940	         2.36526e+58
          1222.07570	         1.64227e+58
          1222.88200	         9.70107e+57
          1223.68830	         8.83222e+57
          1224.49460	         8.07449e+57
          1225.30090	         7.33955e+57
          1226.10720	         7.62264e+57
          1226.91350	         7.01389e+57
          1227.71980	         8.74830e+57
          1228.52610	         1.22585e+58
          1229.33240	         8.35153e+57
          1230.13870	         9.25325e+57
          1230.94500	         1.00001e+58
          1231.75130	         6.87967e+57
          1232.55760	         7.52788e+57
          1233.36390	         8.58466e+57
          1234.17020	         7.01667e+57
          1234.97650	         7.39230e+57
          1235.78280	         8.65582e+57
          1236.58910	         9.38209e+57
          1237.39540	         1.01125e+58
          1238.20170	         8.72522e+57
          1239.00800	         1.02651e+58
          1239.81430	         1.42152e+58
          1240.62060	         9.63553e+57
          1241.42690	         8.72200e+57
          1242.23320	         1.13260e+58
          1243.03950	         6.75682e+57
          1243.84580	         8.62909e+57
          1244.65210	         1.29638e+58
          1245.45840	         1.32708e+58
          1246.26470	         1.04854e+58
          1247.07100	         9.14607e+57
          1247.87730	         7.84213e+57
          1248.68360	         3.98733e+57
          1249.48990	         6.59292e+57
          1250.29620	         1.17793e+58
          1251.10250	         1.15869e+58
          1251.90880	         5.95360e+57
          1252.71510	         7.84131e+57
          1253.52140	         9.38471e+57
          1254.32770	         1.19641e+58
          1255.13400	         1.51855e+58
          1255.94030	         1.24345e+58
          1256.74660	         1.21451e+58
          1257.55290	         1.23631e+58
          1258.35920	         9.00672e+57
          1259.16550	         5.85740e+57
          1259.97180	         4.11759e+57
          1260.77810	         6.71677e+57
          1261.58440	         1.02838e+58
          1262.39070	         8.47411e+57
          1263.19700	         6.36202e+57
          1264.00330	         7.32615e+57
          1264.80960	         1.04383e+58
          1265.61590	         1.33766e+58
          1266.42220	         1.21244e+58
          1267.22850	         1.10748e+58
          1268.03480	         1.32002e+58
          1268.84110	         1.30094e+58
          1269.64740	         1.09614e+58
          1270.45370	         1.09268e+58
          1271.26000	         1.25293e+58
          1272.06630	         1.45116e+58
          1272.87260	         1.24054e+58
          1273.67890	         1.15957e+58
          1274.48520	         1.32518e+58
          1275.29150	         1.31253e+58
          1276.09780	         1.15861e+58
          1276.90410	         1.42934e+58
          1277.71040	         1.31600e+58
          1278.51670	         1.27581e+58
          1279.32300	         1.43813e+58
          1280.12930	         1.33440e+58
          1280.93560	         1.05830e+58
          1281.74190	         1.24138e+58
          1282.54820	         1.32532e+58
          1283.35450	         1.05073e+58
          1284.16080	         1.20534e+58
          1284.96710	         1.56054e+58
          1285.77340	         1.44772e+58
          1286.57970	         1.29263e+58
          1287.38600	         1.47414e+58
          1288.19230	         1.68573e+58
          1288.99860	         1.54045e+58
          1289.80490	         1.06293e+58
          1290.61120	         1.04088e+58
          1291.41750	         1.16146e+58
          1292.22380	         1.02800e+58
          1293.03010	         1.10084e+58
          1293.83640	         1.07422e+58
          1294.64270	         8.71203e+57
          1295.44900	         5.94395e+57
          1296.25530	         6.87631e+57
          1297.06160	         1.06554e+58
          1297.86790	         1.19730e+58
          1298.67420	         1.14899e+58
          1299.48050	         1.13358e+58
          1300.28680	         1.03144e+58
          1301.09310	         7.10111e+57
          1301.89940	         3.59173e+57
          1302.70570	         5.70039e+57
          1303.51200	         8.18549e+57
          1304.31830	         9.78434e+57
          1305.12460	         1.15675e+58
          1305.93090	         1.11593e+58
          1306.73720	         1.26670e+58
          1307.54350	         1.45538e+58
          1308.34980	         1.59649e+58
          1309.15610	         1.58242e+58
          1309.96240	         1.53639e+58
          1310.76870	         1.48816e+58
          1311.57500	         1.28590e+58
          1312.38130	         1.24607e+58
          1313.18760	         1.19843e+58
          1313.99390	         1.40885e+58
          1314.80020	         1.80234e+58
          1315.60650	         1.59735e+58
          1316.41280	         1.31913e+58
          1317.21910	         1.05081e+58
          1318.02540	         1.18776e+58
          1318.83170	         1.31681e+58
          1319.63800	         1.11039e+58
          1320.44430	         1.03444e+58
          1321.25060	         1.19622e+58
          1322.05690	         1.37372e+58
          1322.86320	         1.25021e+58
          1323.66950	         1.06111e+58
          1324.47580	         1.01375e+58
          1325.28210	         1.05943e+58
          1326.08840	         1.21527e+58
          1326.89470	         1.38424e+58
          1327.70100	         1.10291e+58
          1328.50730	         8.14753e+57
          1329.31360	         8.35846e+57
          1330.11990	         9.31675e+57
          1330.92620	         1.11738e+58
          1331.73250	         1.25792e+58
          1332.53880	         9.04834e+57
          1333.34510	         9.49844e+57
          1334.15140	         9.28022e+57
          1334.95770	         8.94109e+57
          1335.76400	         1.05928e+58
          1336.57030	         1.09232e+58
          1337.37660	         1.08040e+58
          1338.18290	         1.16497e+58
          1338.98920	         1.21403e+58
          1339.79550	         1.28812e+58
          1340.60180	         1.35731e+58
          1341.40810	         1.41288e+58
          1342.21440	         1.22497e+58
          1343.02070	         1.07997e+58
          1343.82700	         1.24431e+58
          1344.63330	         1.41641e+58
          1345.43960	         1.51000e+58
          1346.24590	         1.15613e+58
          1347.05220	         1.12248e+58
          1347.85850	         1.07103e+58
          1348.66480	         1.12803e+58
          1349.47110	         1.23769e+58
          1350.27740	         1.16117e+58
          1351.08370	         1.18276e+58
          1351.89000	         1.19453e+58
          1352.69630	         1.29780e+58
          1353.50260	         1.21610e+58
          1354.30890	         1.28010e+58
          1355.11520	         1.42594e+58
          1355.92150	         1.36527e+58
          1356.72780	         1.19506e+58
          1357.53410	         1.05239e+58
          1358.34040	         1.02696e+58
          1359.14670	         1.12987e+58
          1359.95300	         1.29580e+58
          1360.75930	         1.16799e+58
          1361.56560	         1.06163e+58
          1362.37190	         1.22393e+58
          1363.17820	         1.22176e+58
          1363.98450	         1.23651e+58
          1364.79080	         1.24832e+58
          1365.59710	         1.21494e+58
          1366.40340	         1.14929e+58
          1367.20970	         9.17605e+57
          1368.01600	         9.52552e+57
          1368.82230	         9.68302e+57
          1369.62860	         8.59169e+57
          1370.43490	         9.19017e+57
          1371.24120	         9.43294e+57
          1372.04750	         8.66859e+57
          1372.85380	         1.13448e+58
          1373.66010	         1.15824e+58
          1374.46640	         9.98762e+57
          1375.27270	         1.02470e+58
          1376.07900	         9.14094e+57
          1376.88530	         7.77127e+57
          1377.69160	         8.01331e+57
          1378.49790	         6.25500e+57
          1379.30420	         7.60497e+57
          1380.11050	         1.00913e+58
          1380.91680	         7.70362e+57
          1381.72310	         7.56930e+57
          1382.52940	         8.50528e+57
          1383.33570	         8.72700e+57
          1384.14200	         9.80378e+57
          1384.94830	         1.15095e+58
          1385.75460	         1.11837e+58
          1386.56090	         1.24241e+58
          1387.36720	         1.29274e+58
          1388.17350	         1.35893e+58
          1388.97980	         1.34561e+58
          1389.78610	         1.13524e+58
          1390.59240	         7.66700e+57
          1391.39870	         6.86270e+57
          1392.20500	         8.10149e+57
          1393.01130	         7.35243e+57
          1393.81760	         7.82777e+57
          1394.62390	         8.38949e+57
          1395.43020	         5.33111e+57
          1396.23650	         6.76226e+57
          1397.04280	         8.90718e+57
          1397.84910	         9.28533e+57
          1398.65540	         9.21881e+57
          1399.46170	         9.53657e+57
          1400.26800	         8.37925e+57
          1401.07430	         7.26488e+57
          1401.88060	         8.54323e+57
          1402.68690	         9.30310e+57
          1403.49320	         9.88285e+57
          1404.29950	         9.20270e+57
          1405.10580	         1.04578e+58
          1405.91210	         1.15822e+58
          1406.71840	         1.09044e+58
          1407.52470	         1.09990e+58
          1408.33100	         1.11581e+58
          1409.13730	         1.26381e+58
          1409.94360	         1.21480e+58
          1410.74990	         1.11378e+58
          1411.55620	         1.05032e+58
          1412.36250	         1.11128e+58
          1413.16880	         1.08828e+58
          1413.97510	         8.73899e+57
          1414.78140	         8.87095e+57
          1415.58770	         1.04070e+58
          1416.39400	         1.11409e+58
          1417.20030	         1.09632e+58
          1418.00660	         9.17084e+57
          1418.81290	         1.01750e+58
          1419.61920	         9.61074e+57
          1420.42550	         1.22215e+58
          1421.23180	         1.42704e+58
          1422.03810	         1.26295e+58
          1422.84440	         1.16444e+58
          1423.65070	         1.34544e+58
          1424.45700	         1.26871e+58
          1425.26330	         9.06495e+57
          1426.06960	         8.76012e+57
          1426.87590	         1.05863e+58
          1427.68220	         9.77021e+57
          1428.48850	         1.05739e+58
          1429.29480	         1.14114e+58
          1430.10110	         1.10378e+58
          1430.90740	         9.10801e+57
          1431.71370	         8.31235e+57
          1432.52000	         9.46491e+57
          1433.32630	         8.29581e+57
          1434.13260	         7.16675e+57
          1434.93890	         8.49232e+57
          1435.74520	         9.70243e+57
          1436.55150	         9.33321e+57
          1437.35780	         8.80682e+57
          1438.16410	         8.78934e+57
          1438.97040	         8.86854e+57
          1439.77670	         9.02080e+57
          1440.58300	         8.87884e+57
          1441.38930	         9.59526e+57
          1442.19560	         1.08069e+58
          1443.00190	         1.05292e+58
          1443.80820	         1.12948e+58
          1444.61450	         1.08931e+58
          1445.42080	         9.91773e+57
          1446.22710	         9.46850e+57
          1447.03340	         9.15374e+57
          1447.83970	         9.38380e+57
          1448.64600	         1.03714e+58
          1449.45230	         1.02238e+58
          1450.25860	         1.01269e+58
          1451.06490	         8.67930e+57
          1451.87120	         7.36113e+57
          1452.67750	         7.58678e+57
          1453.48380	         8.38585e+57
          1454.29010	         8.54924e+57
          1455.09640	         8.76738e+57
          1455.90270	         9.70003e+57
          1456.70900	         1.04107e+58
          1457.51530	         1.02638e+58
          1458.32160	         1.23879e+58
          1459.12790	         1.26057e+58
          1459.93420	         1.09959e+58
          1460.74050	         9.33373e+57
          1461.54680	         7.97458e+57
          1462.35310	         8.25532e+57
          1463.15940	         1.02573e+58
          1463.96570	         1.17337e+58
          1464.77200	         1.21527e+58
          1465.57830	         1.16621e+58
          1466.38460	         9.30086e+57
          1467.19090	         7.93475e+57
          1467.99720	         9.50879e+57
          1468.80350	         1.04596e+58
          1469.60980	         1.01055e+58
          1470.41610	         1.03341e+58
          1471.22240	         9.44885e+57
          1472.02870	         1.06409e+58
          1472.83500	         9.52565e+57
          1473.64130	         9.85630e+57
          1474.44760	         1.10064e+58
          1475.25390	         8.98767e+57
          1476.06020	         8.15942e+57
          1476.86650	         7.95349e+57
          1477.67280	         8.32049e+57
          1478.47910	         8.20896e+57
          1479.28540	         8.19618e+57
          1480.09170	         9.48466e+57
          1480.89800	         9.00378e+57
          1481.70430	         9.73309e+57
          1482.51060	         9.23642e+57
          1483.31690	         7.48146e+57
          1484.12320	         8.31633e+57
          1484.92950	         9.01015e+57
          1485.73580	         9.12432e+57
          1486.54210	         9.01789e+57
          1487.34840	         8.69178e+57
          1488.15470	         8.28481e+57
          1488.96100	         8.72933e+57
          1489.76730	         8.74403e+57
          1490.57360	         8.19998e+57
          1491.37990	         7.14280e+57
          1492.18620	         8.41806e+57
          1492.99250	         8.83651e+57
          1493.79880	         8.67129e+57
          1494.60510	         8.73917e+57
          1495.41140	         7.92089e+57
          1496.21770	         8.74789e+57
          1497.02400	         1.06991e+58
          1497.83030	         8.49591e+57
          1498.63660	         6.23431e+57
          1499.44290	         7.28612e+57
          1500.24920	         8.07157e+57
          1501.05550	         8.31621e+57
          1501.86180	         8.36096e+57
          1502.66810	         9.21078e+57
          1503.47440	         8.81829e+57
          1504.28070	         8.74414e+57
          1505.08700	         8.79591e+57
          1505.89330	         8.50020e+57
          1506.69960	         7.86561e+57
          1507.50590	         8.40625e+57
          1508.31220	         8.90372e+57
          1509.11850	         9.04679e+57
          1509.92480	         9.31292e+57
          1510.73110	         9.93378e+57
          1511.53740	         9.33167e+57
          1512.34370	         7.92392e+57
          1513.15000	         9.21554e+57
          1513.95630	         9.76625e+57
          1514.76260	         8.81027e+57
          1515.56890	         8.84021e+57
          1516.37520	         9.37090e+57
          1517.18150	         8.38305e+57
          1517.98780	         7.81239e+57
          1518.79410	         7.37291e+57
          1519.60040	         8.55428e+57
          1520.40670	         9.71820e+57
          1521.21300	         1.01677e+58
          1522.01930	         9.96859e+57
          1522.82560	         1.01445e+58
          1523.63190	         1.03146e+58
          1524.43820	         9.01210e+57
          1525.24450	         6.87901e+57
          1526.05080	         5.29833e+57
          1526.85710	         5.79780e+57
          1527.66340	         7.83173e+57
          1528.46970	         8.57800e+57
          1529.27600	         8.32624e+57
          1530.08230	         8.15698e+57
          1530.88860	         7.67033e+57
          1531.69490	         8.13599e+57
          1532.50120	         8.52218e+57
          1533.30750	         8.90999e+57
          1534.11380	         9.70414e+57
          1534.92010	         9.61967e+57
          1535.72640	         8.94798e+57
          1536.53270	         9.52800e+57
          1537.33900	         9.40655e+57
          1538.14530	         9.39362e+57
          1538.95160	         9.79680e+57
          1539.75790	         9.51698e+57
          1540.56420	         9.41913e+57
          1541.37050	         8.95216e+57
          1542.17680	         7.52600e+57
          1542.98310	         8.34077e+57
          1543.78940	         9.42868e+57
          1544.59570	         7.35779e+57
          1545.40200	         7.89696e+57
          1546.20830	         1.03730e+58
          1547.01460	         1.11286e+58
          1547.82090	         1.14987e+58
          1548.62720	         1.21401e+58
          1549.43350	         1.19039e+58
          1550.23980	         1.14782e+58
          1551.04610	         1.14014e+58
          1551.85240	         1.22868e+58
          1552.65870	         1.17322e+58
          1553.46500	         1.10263e+58
          1554.27130	         1.09280e+58
          1555.07760	         1.06125e+58
          1555.88390	         9.09297e+57
          1556.69020	         9.52064e+57
          1557.49650	         9.24238e+57
          1558.30280	         8.37792e+57
          1559.10910	         8.89513e+57
          1559.91540	         8.99568e+57
          1560.72170	         9.19561e+57
          1561.52800	         8.69571e+57
          1562.33430	         9.07575e+57
          1563.14060	         9.11886e+57
          1563.94690	         8.76848e+57
          1564.75320	         8.19206e+57
          1565.55950	         6.56699e+57
          1566.36580	         7.42219e+57
          1567.17210	         9.58222e+57
          1567.97840	         9.13448e+57
          1568.78470	         8.70196e+57
          1569.59100	         9.31315e+57
          1570.39730	         9.13456e+57
          1571.20360	         7.57993e+57
          1572.00990	         7.52209e+57
          1572.81620	         9.31469e+57
          1573.62250	         1.12334e+58
          1574.42880	         1.05168e+58
          1575.23510	         8.44821e+57
          1576.04140	         8.75358e+57
          1576.84770	         9.18442e+57
          1577.65400	         8.96611e+57
          1578.46030	         8.96002e+57
          1579.26660	         1.02481e+58
          1580.07290	         1.06026e+58
          1580.87920	         7.93079e+57
          1581.68550	         7.25738e+57
          1582.49180	         7.67370e+57
          1583.29810	         7.70704e+57
          1584.10440	         8.89018e+57
          1584.91070	         8.57128e+57
          1585.71700	         8.70453e+57
          1586.52330	         9.22338e+57
          1587.32960	         8.96139e+57
          1588.13590	         8.76894e+57
          1588.94220	         7.98876e+57
          1589.74850	         8.65299e+57
          1590.55480	         9.02367e+57
          1591.36110	         7.64793e+57
          1592.16740	         7.54804e+57
          1592.97370	         7.84718e+57
          1593.78000	         8.85846e+57
          1594.58630	         9.67940e+57
          1595.39260	         8.86447e+57
          1596.19890	         8.99281e+57
          1597.00520	         1.03206e+58
          1597.81150	         9.13572e+57
          1598.61780	         7.87318e+57
          1599.42410	         7.12750e+57
          1600.23040	         7.11813e+57
          1601.03670	         7.49416e+57
          1601.84300	         7.66575e+57
          1602.64930	         8.35970e+57
          1603.45560	         9.37604e+57
          1604.26190	         9.03087e+57
          1605.06820	         8.00255e+57
          1605.87450	         7.36238e+57
          1606.68080	         6.76212e+57
          1607.48710	         6.45835e+57
          1608.29340	         6.59954e+57
          1609.09970	         7.42256e+57
          1609.90600	         7.88148e+57
          1610.71230	         6.27385e+57
          1611.51860	         6.74271e+57
          1612.32490	         6.95890e+57
          1613.13120	         7.83396e+57
          1613.93750	         7.79177e+57
          1614.74380	         8.37898e+57
          1615.55010	         9.36908e+57
          1616.35640	         9.66853e+57
          1617.16270	         9.32761e+57
          1617.96900	         1.01535e+58
          1618.77530	         9.93407e+57
          1619.58160	         8.54678e+57
          1620.38790	         7.43757e+57
          1621.19420	         7.93991e+57
          1622.00050	         9.02798e+57
          1622.80680	         9.89689e+57
          1623.61310	         8.71439e+57
          1624.41940	         8.09907e+57
          1625.22570	         9.04660e+57
          1626.03200	         7.86215e+57
          1626.83830	         7.36925e+57
          1627.64460	         7.35645e+57
          1628.45090	         6.79611e+57
          1629.25720	         8.36252e+57
          1630.06350	         1.02250e+58
          1630.86980	         7.26317e+57
          1631.67610	         7.58729e+57
          1632.48240	         8.27560e+57
          1633.28870	         7.84958e+57
          1634.09500	         8.95249e+57
          1634.90130	         1.08361e+58
          1635.70760	         9.93111e+57
          1636.51390	         7.32029e+57
          1637.32020	         7.45728e+57
          1638.12650	         1.03057e+58
          1638.93280	         1.03424e+58
          1639.73910	         1.09287e+58
          1640.54540	         1.09746e+58
          1641.35170	         9.62326e+57
          1642.15800	         9.01282e+57
          1642.96430	         8.48302e+57
          1643.77060	         8.49202e+57
          1644.57690	         8.74032e+57
          1645.38320	         8.51113e+57
          1646.18950	         7.99910e+57
          1646.99580	         8.78126e+57
          1647.80210	         8.18956e+57
          1648.60840	         8.01418e+57
          1649.41470	         8.82649e+57
          1650.22100	         8.13014e+57
          1651.02730	         8.04686e+57
          1651.83360	         7.48861e+57
          1652.63990	         7.71847e+57
          1653.44620	         8.63196e+57
          1654.25250	         8.49504e+57
          1655.05880	         7.75981e+57
          1655.86510	         8.18735e+57
          1656.67140	         8.43516e+57
          1657.47770	         8.78953e+57
          1658.28400	         8.70494e+57
          1659.09030	         8.43289e+57
          1659.89660	         9.61731e+57
          1660.70290	         1.03118e+58
          1661.50920	         1.04246e+58
          1662.31550	         9.17270e+57
          1663.12180	         7.75653e+57
          1663.92810	         8.79436e+57
          1664.73440	         1.08044e+58
          1665.54070	         1.28089e+58
          1666.34700	         1.30886e+58
          1667.15330	         1.22241e+58
          1667.95960	         9.31167e+57
          1668.76590	         7.47581e+57
          1669.57220	         7.17730e+57
          1670.37850	         7.26569e+57
          1671.18480	         7.48391e+57
          1671.99110	         7.24472e+57
          1672.79740	         6.94152e+57
          1673.60370	         6.27531e+57
          1674.41000	         6.59429e+57
          1675.21630	         7.44497e+57
          1676.02260	         6.95378e+57
          1676.82890	         6.87808e+57
          1677.63520	         7.15838e+57
          1678.44150	         7.60111e+57
          1679.24780	         7.85751e+57
          1680.05410	         7.19007e+57
          1680.86040	         6.98826e+57
          1681.66670	         7.56570e+57
          1682.47300	         8.82156e+57
          1683.27930	         9.17168e+57
          1684.08560	         9.09483e+57
          1684.89190	         8.69121e+57
          1685.69820	         6.35103e+57
          1686.50450	         5.30754e+57
          1687.31080	         6.48530e+57
          1688.11710	         7.51508e+57
          1688.92340	         6.72678e+57
          1689.72970	         6.47877e+57
          1690.53600	         6.81524e+57
          1691.34230	         7.97798e+57
          1692.14860	         7.25972e+57
          1692.95490	         7.23079e+57
          1693.76120	         6.92618e+57
          1694.56750	         6.60330e+57
          1695.37380	         8.18663e+57
          1696.18010	         8.24584e+57
          1696.98640	         9.37772e+57
          1697.79270	         9.08058e+57
          1698.59900	         8.43423e+57
          1699.40530	         7.21311e+57
          1700.21160	         7.28103e+57
          1701.01790	         8.20365e+57
          1701.82420	         6.90997e+57
          1702.63050	         7.00201e+57
          1703.43680	         7.92480e+57
          1704.24310	         8.61287e+57
          1705.04940	         7.97136e+57
          1705.85570	         7.31814e+57
          1706.66200	         8.78873e+57
          1707.46830	         8.43449e+57
          1708.27460	         8.09490e+57
          1709.08090	         7.53461e+57
          1709.88720	         7.11912e+57
          1710.69350	         7.00128e+57
          1711.49980	         6.87328e+57
          1712.30610	         7.43924e+57
          1713.11240	         8.66553e+57
          1713.91870	         7.35210e+57
          1714.72500	         7.69851e+57
          1715.53130	         8.19094e+57
          1716.33760	         7.26125e+57
          1717.14390	         7.11023e+57
          1717.95020	         8.05669e+57
          1718.75650	         9.21861e+57
          1719.56280	         9.03924e+57
          1720.36910	         7.99830e+57
          1721.17540	         7.36433e+57
          1721.98170	         6.34601e+57
          1722.78800	         6.53754e+57
          1723.59430	         7.34027e+57
          1724.40060	         8.71564e+57
          1725.20690	         8.29866e+57
          1726.01320	         8.05476e+57
          1726.81950	         8.36393e+57
          1727.62580	         7.09782e+57
          1728.43210	         7.24629e+57
          1729.23840	         7.88108e+57
          1730.04470	         8.27164e+57
          1730.85100	         8.88796e+57
          1731.65730	         8.57754e+57
          1732.46360	         7.43715e+57
          1733.26990	         7.50769e+57
          1734.07620	         7.89800e+57
          1734.88250	         7.46877e+57
          1735.68880	         7.19032e+57
          1736.49510	         7.30287e+57
          1737.30140	         7.50071e+57
          1738.10770	         5.94516e+57
          1738.91400	         7.01359e+57
          1739.72030	         8.02854e+57
          1740.52660	         6.24798e+57
          1741.33290	         6.05645e+57
          1742.13920	         6.03226e+57
          1742.94550	         6.69586e+57
          1743.75180	         8.32121e+57
          1744.55810	         8.10599e+57
          1745.36440	         7.29036e+57
          1746.17070	         5.08630e+57
          1746.97700	         5.44109e+57
          1747.78330	         7.32048e+57
          1748.58960	         7.06818e+57
          1749.39590	         7.08144e+57
          1750.20220	         7.04157e+57
          1751.00850	         6.35735e+57
          1751.81480	         6.04737e+57
          1752.62110	         7.66548e+57
          1753.42740	         9.10610e+57
          1754.23370	         7.23405e+57
          1755.04000	         7.16603e+57
          1755.84630	         7.01964e+57
          1756.65260	         8.76593e+57
          1757.45890	         8.75976e+57
          1758.26520	         7.14764e+57
          1759.07150	         8.67452e+57
          1759.87780	         9.03573e+57
          1760.68410	         9.28670e+57
          1761.49040	         8.87730e+57
          1762.29670	         7.44285e+57
          1763.10300	         8.13316e+57
          1763.90930	         8.37561e+57
          1764.71560	         7.79600e+57
          1765.52190	         7.70991e+57
          1766.32820	         8.02716e+57
          1767.13450	         8.56119e+57
          1767.94080	         7.46148e+57
          1768.74710	         6.93979e+57
          1769.55340	         7.88582e+57
          1770.35970	         7.42552e+57
          1771.16600	         7.77695e+57
          1771.97230	         8.66371e+57
          1772.77860	         8.74721e+57
          1773.58490	         7.30354e+57
          1774.39120	         5.69858e+57
          1775.19750	         7.02444e+57
          1776.00380	         7.33100e+57
          1776.81010	         6.68195e+57
          1777.61640	         6.93755e+57
          1778.42270	         7.25078e+57
          1779.22900	         7.93408e+57
          1780.03530	         6.92369e+57
          1780.84160	         7.07764e+57
          1781.64790	         7.92989e+57
          1782.45420	         7.22385e+57
          1783.26050	         6.94174e+57
          1784.06680	         7.61377e+57
          1784.87310	         7.79677e+57
          1785.67940	         8.47760e+57
          1786.48570	         7.66124e+57
          1787.29200	         6.73632e+57
          1788.09830	         6.83920e+57
          1788.90460	         6.11542e+57
          1789.71090	         4.94095e+57
          1790.51720	         4.85131e+57
          1791.32350	         7.18992e+57
          1792.12980	         7.90576e+57
          1792.93610	         6.87118e+57
          1793.74240	         7.50768e+57
          1794.54870	         9.00010e+57
          1795.35500	         8.49916e+57
          1796.16130	         7.14755e+57
          1796.96760	         7.31984e+57
          1797.77390	         7.44915e+57
          1798.58020	         8.33247e+57
          1799.38650	         7.67274e+57
          1800.19280	         7.18177e+57
          1800.99910	         6.52440e+57
          1801.80540	         7.09863e+57
          1802.61170	         8.83980e+57
          1803.41800	         8.23031e+57
          1804.22430	         7.83018e+57
          1805.03060	         7.91928e+57
          1805.83690	         7.21609e+57
          1806.64320	         6.97110e+57
          1807.44950	         7.43644e+57
          1808.25580	         7.15986e+57
          1809.06210	         8.10607e+57
          1809.86840	         8.73955e+57
          1810.67470	         7.87882e+57
          1811.48100	         9.33296e+57
          1812.28730	         8.85312e+57
          1813.09360	         7.77187e+57
          1813.89990	         8.13193e+57
          1814.70620	         8.11610e+57
          1815.51250	         8.56072e+57
          1816.31880	         7.92846e+57
          1817.12510	         8.16549e+57
          1817.93140	         7.63062e+57
          1818.73770	         7.33993e+57
          1819.54400	         8.81945e+57
          1820.35030	         8.62427e+57
          1821.15660	         6.64540e+57
          1821.96290	         6.62871e+57
          1822.76920	         7.43929e+57
          1823.57550	         7.60047e+57
          1824.38180	         7.62461e+57
          1825.18810	         8.00012e+57
          1825.99440	         8.57056e+57
          1826.80070	         7.82930e+57
          1827.60700	         6.49937e+57
          1828.41330	         6.19948e+57
          1829.21960	         7.58831e+57
          1830.02590	         7.53384e+57
          1830.83220	         8.39147e+57
          1831.63850	         7.82724e+57
          1832.44480	         7.91105e+57
          1833.25110	         8.95894e+57
          1834.05740	         8.58996e+57
          1834.86370	         7.35510e+57
          1835.67000	         6.07434e+57
          1836.47630	         7.52086e+57
          1837.28260	         8.68469e+57
          1838.08890	         8.88415e+57
          1838.89520	         8.12565e+57
          1839.70150	         7.70381e+57
          1840.50780	         8.09798e+57
          1841.31410	         7.79527e+57
          1842.12040	         7.80944e+57
          1842.92670	         7.84961e+57
          1843.73300	         7.37348e+57
          1844.53930	         7.69842e+57
          1845.34560	         7.21049e+57
          1846.15190	         7.39073e+57
          1846.95820	         8.09344e+57
          1847.76450	         7.41220e+57
          1848.57080	         5.41167e+57
          1849.37710	         5.84449e+57
          1850.18340	         7.37650e+57
          1850.98970	         6.96729e+57
          1851.79600	         6.69396e+57
          1852.60230	         6.24356e+57
          1853.40860	         6.47691e+57
          1854.21490	         7.44762e+57
          1855.02120	         6.61094e+57
          1855.82750	         5.62689e+57
          1856.63380	         6.56484e+57
          1857.44010	         6.71478e+57
          1858.24640	         7.03742e+57
          1859.05270	         6.78326e+57
          1859.85900	         6.00670e+57
          1860.66530	         5.82656e+57
          1861.47160	         6.19361e+57
          1862.27790	         6.85155e+57
          1863.08420	         8.16019e+57
          1863.89050	         9.65053e+57
          1864.69680	         8.27375e+57
          1865.50310	         7.96890e+57
          1866.30940	         6.24895e+57
          1867.11570	         6.43913e+57
          1867.92200	         7.48395e+57
          1868.72830	         7.71378e+57
          1869.53460	         7.91983e+57
          1870.34090	         7.82761e+57
          1871.14720	         7.42566e+57
          1871.95350	         7.22626e+57
          1872.75980	         7.30670e+57
          1873.56610	         6.95636e+57
          1874.37240	         5.98468e+57
          1875.17870	         6.04459e+57
          1875.98500	         7.85787e+57
          1876.79130	         7.78549e+57
          1877.59760	         6.86070e+57
          1878.40390	         5.45065e+57
          1879.21020	         6.55018e+57
          1880.01650	         7.89648e+57
          1880.82280	         9.36618e+57
          1881.62910	         9.88276e+57
          1882.43540	         1.02397e+58
          1883.24170	         9.04089e+57
          1884.04800	         7.14500e+57
          1884.85430	         6.98953e+57
          1885.66060	         8.69279e+57
          1886.46690	         7.79765e+57
          1887.27320	         6.89597e+57
          1888.07950	         6.37886e+57
          1888.88580	         6.52209e+57
          1889.69210	         8.69078e+57
          1890.49840	         8.02127e+57
          1891.30470	         7.80949e+57
          1892.11100	         8.22874e+57
          1892.91730	         7.47049e+57
          1893.72360	         6.79458e+57
          1894.52990	         6.66218e+57
          1895.33620	         8.50452e+57
          1896.14250	         7.95733e+57
          1896.94880	         6.42205e+57
          1897.75510	         4.94991e+57
          1898.56140	         6.14427e+57
          1899.36770	         7.87783e+57
          1900.17400	         6.54116e+57
          1900.98030	         6.34454e+57
          1901.78660	         7.24039e+57
          1902.59290	         7.09170e+57
          1903.39920	         8.54975e+57
          1904.20550	         9.07259e+57
          1905.01180	         8.98306e+57
          1905.81810	         9.71230e+57
          1906.62440	         1.15202e+58
          1907.43070	         1.52227e+58
          1908.23700	         1.65853e+58
          1909.04330	         1.37490e+58
          1909.84960	         1.05569e+58
          1910.65590	         9.10042e+57
          1911.46220	         8.37129e+57
          1912.26850	         6.83399e+57
          1913.07480	         5.66933e+57
          1913.88110	         5.79635e+57
          1914.68740	         5.86063e+57
          1915.49370	         5.60147e+57
          1916.30000	         6.28260e+57
          1917.10630	         6.60846e+57
          1917.91260	         6.01404e+57
          1918.71890	         6.08064e+57
          1919.52520	         6.52693e+57
          1920.33150	         5.68705e+57
          1921.13780	         6.58576e+57
          1921.94410	         8.00986e+57
          1922.75040	         8.23152e+57
          1923.55670	         7.32893e+57
          1924.36300	         6.43509e+57
          1925.16930	         5.42858e+57
          1925.97560	         5.21178e+57
          1926.78190	         5.22601e+57
          1927.58820	         6.75468e+57
          1928.39450	         6.88988e+57
          1929.20080	         4.14884e+57
          1930.00710	         5.01058e+57
          1930.81340	         7.36239e+57
          1931.61970	         6.95831e+57
          1932.42600	         7.85685e+57
          1933.23230	         8.48145e+57
          1934.03860	         6.40018e+57
          1934.84490	         5.75210e+57
          1935.65120	         7.24069e+57
          1936.45750	         9.64167e+57
          1937.26380	         7.48088e+57
          1938.07010	         7.37316e+57
          1938.87640	         7.27524e+57
          1939.68270	         7.49003e+57
          1940.48900	         7.82515e+57
          1941.29530	         8.39136e+57
          1942.10160	         8.19321e+57
          1942.90790	         6.84206e+57
          1943.71420	         6.41096e+57
          1944.52050	         5.41211e+57
          1945.32680	         4.98468e+57
          1946.13310	         7.40591e+57
          1946.93940	         8.45275e+57
          1947.74570	         7.22574e+57
          1948.55200	         6.26053e+57
          1949.35830	         6.56151e+57
          1950.16460	         5.52722e+57
          1950.97090	         6.07194e+57
          1951.77720	         7.45799e+57
          1952.58350	         7.42193e+57
          1953.38980	         5.62124e+57
          1954.19610	         5.05542e+57
          1955.00240	         5.96766e+57
          1955.80870	         6.12613e+57
          1956.61500	         6.03107e+57
          1957.42130	         5.65024e+57
          1958.22760	         6.30879e+57
          1959.03390	         7.46948e+57
          1959.84020	         7.41038e+57
          1960.64650	         7.45679e+57
          1961.45280	         6.87664e+57
          1962.25910	         5.98315e+57
          1963.06540	         6.94093e+57
          1963.87170	         7.44922e+57
          1964.67800	         6.49949e+57
          1965.48430	         7.20100e+57
          1966.29060	         6.73309e+57
          1967.09690	         6.32324e+57
          1967.90320	         6.38889e+57
          1968.70950	         6.92372e+57
          1969.51580	         6.41715e+57
          1970.32210	         6.17992e+57
          1971.12840	         6.53446e+57
          1971.93470	         4.45986e+57
          1972.74100	         5.36578e+57
          1973.54730	         6.56804e+57
          1974.35360	         6.86773e+57
          1975.15990	         7.69297e+57
          1975.96620	         6.99680e+57
          1976.77250	         7.46128e+57
          1977.57880	         7.87758e+57
          1978.38510	         6.80828e+57
          1979.19140	         7.41066e+57
          1979.99770	         8.64176e+57
          1980.80400	         8.12783e+57
          1981.61030	         6.68195e+57
          1982.41660	         5.69357e+57
          1983.22290	         6.38967e+57
          1984.02920	         5.02449e+57
          1984.83550	         5.21430e+57
          1985.64180	         6.48194e+57
          1986.44810	         6.52920e+57
          1987.25440	         5.52647e+57
          1988.06070	         6.07749e+57
          1988.86700	         6.52194e+57
          1989.67330	         6.95608e+57
          1990.47960	         6.51047e+57
          1991.28590	         6.04726e+57
          1992.09220	         6.22774e+57
          1992.89850	         4.87589e+57
          1993.70480	         5.42329e+57
          1994.51110	         5.71166e+57
          1995.31740	         4.55980e+57
          1996.12370	         4.46801e+57
          1996.93000	         5.68550e+57
          1997.73630	         7.98513e+57
          1998.54260	         7.60974e+57
          1999.34890	         6.28688e+57
          2000.15520	         5.17478e+57
          2000.96150	         6.94273e+57
          2001.76780	         6.03716e+57
          2002.57410	         4.27013e+57
          2003.38040	         5.77167e+57
          2004.18670	         6.37940e+57
          2004.99300	         6.98776e+57
          2005.79930	         7.38204e+57
          2006.60560	         6.93544e+57
          2007.41190	         6.60853e+57
          2008.21820	         7.37759e+57
          2009.02450	         7.59277e+57
          2009.83080	         7.07106e+57
          2010.63710	         6.31610e+57
          2011.44340	         6.59084e+57
          2012.24970	         7.13746e+57
          2013.05600	         6.85324e+57
          2013.86230	         5.60586e+57
          2014.66860	         4.88453e+57
          2015.47490	         6.59010e+57
          2016.28120	         5.32858e+57
          2017.08750	         5.83278e+57
          2017.89380	         7.06476e+57
          2018.70010	         5.81825e+57
          2019.50640	         5.17040e+57
          2020.31270	         7.43352e+57
          2021.11900	         6.60694e+57
          2021.92530	         7.09641e+57
          2022.73160	         6.65786e+57
          2023.53790	         5.95406e+57
          2024.34420	         4.99634e+57
          2025.15050	         4.66176e+57
          2025.95680	         6.61885e+57
          2026.76310	         5.90014e+57
          2027.56940	         4.96673e+57
          2028.37570	         6.79871e+57
          2029.18200	         6.69176e+57
          2029.98830	         6.41112e+57
          2030.79460	         6.99468e+57
          2031.60090	         6.19027e+57
          2032.40720	         5.88688e+57
          2033.21350	         5.96115e+57
          2034.01980	         6.19212e+57
          2034.82610	         5.14956e+57
          2035.63240	         4.58283e+57
          2036.43870	         5.33753e+57
          2037.24500	         6.54581e+57
          2038.05130	         7.08376e+57
          2038.85760	         5.56102e+57
          2039.66390	         5.83584e+57
          2040.47020	         6.19435e+57
          2041.27650	         6.47911e+57
          2042.08280	         6.05845e+57
          2042.88910	         5.65849e+57
          2043.69540	         5.43280e+57
          2044.50170	         5.89716e+57
          2045.30800	         6.50007e+57
          2046.11430	         4.55115e+57
          2046.92060	         6.37250e+57
          2047.72690	         7.07288e+57
          2048.53320	         5.15381e+57
          2049.33950	         4.23182e+57
          2050.14580	         5.49655e+57
          2050.95210	         7.00246e+57
          2051.75840	         7.25084e+57
          2052.56470	         6.37906e+57
          2053.37100	         3.76285e+57
          2054.17730	         4.98710e+57
          2054.98360	         4.86350e+57
          2055.78990	         3.02629e+57
          2056.59620	         3.65378e+57
          2057.40250	         5.92913e+57
          2058.20880	         6.35169e+57
          2059.01510	         6.03398e+57
          2059.82140	         6.45618e+57
          2060.62770	         9.49531e+57
          2061.43400	         1.58700e+58
          2062.24030	         1.01295e+58
          2063.04660	         3.88630e+57
          2063.85290	         8.97858e+56
          2064.65920	        -1.95473e+57
          2065.46550	        -8.23522e+57
          2066.27180	        -8.42251e+57
          2067.07810	         4.80979e+57
          2067.88440	         6.58553e+57
          2068.69070	         5.38782e+57
          2069.49700	         5.30672e+57
          2070.30330	         4.59112e+57
          2071.10960	         6.07958e+57
          2071.91590	         5.78133e+57
          2072.72220	         3.53210e+57
          2073.52850	         4.25588e+57
          2074.33480	         5.73200e+57
          2075.14110	         5.16980e+57
          2075.94740	         5.03633e+57
          2076.75370	         4.06131e+57
          2077.56000	         3.89043e+57
          2078.36630	         3.81949e+57
          2079.17260	         4.51180e+57
          2079.97890	         6.00850e+57
          2080.78520	         4.39210e+57
          2081.59150	         3.35608e+57
          2082.39780	         4.13189e+57
          2083.20410	         2.99423e+57
          2084.01040	         2.34902e+57
          2084.81670	         3.45944e+57
          2085.62300	         3.50007e+57
          2086.42930	         4.91631e+57
          2087.23560	         3.28712e+57
          2088.04190	         4.04277e+57
          2088.84820	         4.57114e+57
          2089.65450	         2.82545e+57
          2090.46080	         7.19618e+56
          2091.26710	         7.30357e+56
          2092.07340	         3.17405e+57
          2092.87970	         2.54356e+57
          2093.68600	        -8.29724e+55
          2094.49230	         2.13324e+57
          2095.29860	         5.31082e+57
          2096.10490	         2.06302e+57
          2096.91120	         2.02604e+57
          2097.71750	        -1.68767e+57
          2098.52380	        -9.43163e+56
          2099.33010	         1.76594e+56
          2100.13640	         1.31109e+57
          2100.94270	         1.94153e+57
          2101.74900	         4.57408e+57
          2102.55530	         5.50071e+57
          2103.36160	         3.38864e+57
          2104.16790	         3.74655e+57
          2104.97420	        -5.00298e+56
          2105.78050	        -1.01853e+57
          2106.58680	         3.40538e+57
          2107.39310	         1.19253e+56
          2108.19940	         6.16219e+56
          2109.00570	        -9.40977e+56
          2109.81200	        -8.85089e+56
          2110.61830	         7.02475e+56
          2111.42460	         1.43487e+57
          2112.23090	        -7.19649e+56
          2113.03720	        -1.44844e+57
          2113.84350	         1.25248e+57
          2114.64980	         5.34568e+57
          2115.45610	         6.97437e+56
          2116.26240	        -1.15622e+58
          2117.06870	        -4.24233e+57
          2117.87500	        -2.67302e+57
          2118.68130	         5.34026e+56
          2119.48760	         2.33747e+57
          2120.29390	        -1.60730e+57
          2121.10020	        -1.95934e+57
          2121.90650	        -1.06300e+57
          2122.71280	        -1.17327e+56
          2123.51910	         5.38745e+57
          2124.32540	         5.00343e+57
          2125.13170	         2.98787e+57
          2125.93800	         3.07936e+57
          2126.74430	         9.86793e+55
          2127.55060	        -2.77930e+57
          2128.35690	        -4.13315e+57
          2129.16320	        -5.08336e+56
          2129.96950	        -1.67133e+57
          2130.77580	        -1.26079e+57
          2131.58210	        -2.33335e+57
          2132.38840	        -2.27059e+57
          2133.19470	        -7.89155e+57
          2134.00100	        -4.63383e+57
          2134.80730	        -5.92019e+57
          2135.61360	        -8.43375e+56
          2136.41990	         6.65081e+57
          2137.22620	         7.52854e+57
          2138.03250	         1.50694e+57
          2138.83880	        -4.42228e+57
          2139.64510	        -1.16659e+57
          2140.45140	        -2.08505e+57
          2141.25770	        -7.19912e+57
          2142.06400	        -6.97226e+57
          2142.87030	        -1.87646e+57
          2143.67660	         5.48301e+57
          2144.48290	         9.75415e+57
          2145.28920	         1.29300e+58
          2146.09550	        -4.39295e+57
          2146.90180	        -7.74525e+57
          2147.70810	         5.53017e+57
          2148.51440	        -1.00379e+58
          2149.32070	        -1.27646e+58
          2150.12700	        -8.97680e+57
          2150.93330	        -6.07273e+57
          2151.73960	        -2.45200e+57
          2152.54590	         5.61168e+57
          2153.35220	         6.08585e+57
          2154.15850	        -6.38880e+57
          2154.96480	         2.43383e+57
          2155.77110	        -1.29412e+57
          2156.57740	        -1.06108e+58
          2157.38370	        -7.93588e+57
          2158.19000	         1.77714e+57
          2158.99630	        -3.30047e+57
          2159.80260	        -9.89464e+57
          2160.60890	        -6.38465e+57
          2161.41520	        -1.20081e+58
          2162.22150	        -4.22531e+56
          2163.02780	         8.32070e+56
          2163.83410	        -4.83636e+57
          2164.64040	        -6.57672e+57
          2165.44670	        -1.61973e+58
          2166.25300	        -8.44468e+57
          2167.05930	         5.07305e+57
          2167.86560	        -9.80595e+56
          2168.67190	         4.76275e+57
          2169.47820	        -6.45865e+57
          2170.28450	        -1.29729e+58
          2171.09080	         3.39360e+57
          2171.89710	         3.45753e+56
          2172.70340	         2.39505e+57
          2173.50970	        -6.79829e+57
          2174.31600	        -4.63952e+57
          2175.12230	        -1.03895e+58
          2175.92860	        -5.90965e+57
          2176.73490	        -2.59983e+57
          2177.54120	        -7.49956e+57
          2178.34750	        -5.63152e+57
          2179.15380	                 nan
          2179.96010	                 nan
          2180.76640	                 nan
          2181.57270	                 nan
          2182.37900	                 nan
          2183.18530	                 nan
          2183.99160	                 nan
          2184.79790	                 nan
          2185.60420	                 nan
          2186.41050	                 nan
          2187.21680	                 nan
          2188.02310	                 nan
          2188.82940	                 nan
          2189.63570	                 nan
          2190.44200	                 nan
          2191.24830	                 nan
          2192.05460	                 nan
          2192.86090	                 nan
          2193.66720	                 nan
          2194.47350	                 nan
          2195.27980	                 nan
          2196.08610	                 nan
          2196.89240	                 nan
          2197.69870	                 nan
          2198.50500	                 nan
          2199.31130	                 nan
          2200.11760	                 nan
          2200.92390	                 nan
          2201.73020	                 nan
          2202.53650	                 nan
          2203.34280	                 nan
          2204.14910	                 nan
          2204.95540	                 nan
          2205.76170	                 nan
          2206.56800	                 nan
          2207.37430	                 nan
          2208.18060	                 nan
          2208.98690	                 nan
          2209.79320	                 nan
          2210.59950	                 nan
          2211.40580	                 nan
          2212.21210	                 nan
          2213.01840	                 nan
          2213.82470	                 nan
          2214.63100	                 nan
          2215.43730	         0.00000e+00
