#sample_51_stacked_spectrum_rest_UV-bands_median_H-alpha_noDC.txt
#median Lum: 1.69800e+42
#Rest-frame wavelength (A) | Luminosity (erg/s/A)
#
          1110.00000	         0.00000e+00
          1110.80630	        -2.84920e+59
          1111.61260	         1.86815e+58
          1112.41890	        -1.50718e+59
          1113.22520	        -2.42196e+56
          1114.03150	        -1.85198e+58
          1114.83780	         1.01341e+59
          1115.64410	         2.84460e+58
          1116.45040	         1.07803e+59
          1117.25670	        -1.40147e+58
          1118.06300	         1.97506e+59
          1118.86930	         1.97615e+58
          1119.67560	         1.52314e+59
          1120.48190	        -8.62453e+57
          1121.28820	        -1.15533e+59
          1122.09450	        -4.25504e+58
          1122.90080	         1.31821e+58
          1123.70710	         1.30124e+59
          1124.51340	         6.41483e+58
          1125.31970	        -3.71846e+58
          1126.12600	        -1.45918e+58
          1126.93230	        -4.41755e+58
          1127.73860	        -4.74853e+58
          1128.54490	         3.41346e+57
          1129.35120	        -1.31639e+58
          1130.15750	        -3.13383e+58
          1130.96380	        -1.17792e+58
          1131.77010	         5.88620e+58
          1132.57640	         3.85066e+58
          1133.38270	         3.11411e+58
          1134.18900	         2.93964e+58
          1134.99530	         4.28376e+58
          1135.80160	         1.91994e+58
          1136.60790	        -3.80611e+57
          1137.41420	         2.22585e+58
          1138.22050	         4.63009e+58
          1139.02680	         3.42149e+58
          1139.83310	         2.86389e+58
          1140.63940	         7.15412e+57
          1141.44570	        -1.06462e+58
          1142.25200	         1.67899e+58
          1143.05830	         3.25317e+58
          1143.86460	         2.89007e+58
          1144.67090	         1.97721e+58
          1145.47720	         6.24128e+57
          1146.28350	         3.28435e+57
          1147.08980	         4.81442e+57
          1147.89610	         2.11182e+58
          1148.70240	         2.88344e+58
          1149.50870	         2.81871e+58
          1150.31500	         1.20715e+58
          1151.12130	         4.80652e+57
          1151.92760	        -7.99587e+56
          1152.73390	        -8.10917e+56
          1153.54020	         9.78352e+57
          1154.34650	         2.60792e+58
          1155.15280	         2.42150e+58
          1155.95910	         1.54770e+58
          1156.76540	         1.35705e+58
          1157.57170	         1.37709e+57
          1158.37800	         1.03312e+57
          1159.18430	        -3.29123e+57
          1159.99060	        -3.79867e+57
          1160.79690	         6.01177e+57
          1161.60320	         1.07364e+58
          1162.40950	         1.81811e+58
          1163.21580	         1.87809e+58
          1164.02210	         1.48561e+58
          1164.82840	         3.04774e+56
          1165.63470	         1.84917e+58
          1166.44100	         3.42037e+58
          1167.24730	         2.28091e+58
          1168.05360	         9.10461e+57
          1168.85990	         1.39867e+58
          1169.66620	         1.43225e+58
          1170.47250	         1.11323e+58
          1171.27880	         9.08207e+57
          1172.08510	         2.15427e+58
          1172.89140	         1.93478e+58
          1173.69770	         3.61557e+57
          1174.50400	         6.92122e+57
          1175.31030	         1.89603e+58
          1176.11660	         1.84480e+58
          1176.92290	         1.42654e+58
          1177.72920	         1.34897e+58
          1178.53550	         1.23989e+58
          1179.34180	         6.17242e+57
          1180.14810	         7.40910e+57
          1180.95440	         8.92582e+57
          1181.76070	         7.95284e+57
          1182.56700	         7.44010e+57
          1183.37330	         6.66360e+57
          1184.17960	         8.35745e+57
          1184.98590	         8.19405e+57
          1185.79220	         5.07098e+57
          1186.59850	         1.15633e+58
          1187.40480	         1.13978e+58
          1188.21110	         1.54626e+58
          1189.01740	         7.06019e+57
          1189.82370	         6.73816e+57
          1190.63000	         1.33082e+58
          1191.43630	         1.48093e+58
          1192.24260	         9.46710e+57
          1193.04890	         1.10708e+58
          1193.85520	         7.12225e+57
          1194.66150	         3.28065e+57
          1195.46780	         8.23204e+57
          1196.27410	         1.88765e+58
          1197.08040	         1.32794e+58
          1197.88670	         1.48642e+58
          1198.69300	         1.38263e+58
          1199.49930	         1.59199e+58
          1200.30560	         1.57563e+58
          1201.11190	         8.51825e+57
          1201.91820	         6.54552e+57
          1202.72450	         4.79131e+57
          1203.53080	         1.78221e+58
          1204.33710	         1.44487e+58
          1205.14340	         8.93161e+57
          1205.94970	         1.08871e+58
          1206.75600	         9.70116e+57
          1207.56230	         5.43740e+57
          1208.36860	         4.86401e+57
          1209.17490	         3.74025e+57
          1209.98120	         6.33429e+57
          1210.78750	         7.83573e+57
          1211.59380	         1.47454e+58
          1212.40010	         2.02118e+58
          1213.20640	         2.12465e+58
          1214.01270	         2.32736e+58
          1214.81900	         2.68070e+58
          1215.62530	         4.50969e+58
          1216.43160	         8.95298e+58
          1217.23790	         1.53821e+59
          1218.04420	         1.16931e+59
          1218.85050	         8.74499e+58
          1219.65680	         5.70028e+58
          1220.46310	         3.64091e+58
          1221.26940	         2.65261e+58
          1222.07570	         1.47094e+58
          1222.88200	         9.64987e+57
          1223.68830	         9.19157e+57
          1224.49460	         7.81838e+57
          1225.30090	         5.62656e+57
          1226.10720	         4.51039e+57
          1226.91350	         9.47698e+57
          1227.71980	         1.28680e+58
          1228.52610	         1.10383e+58
          1229.33240	         9.83231e+57
          1230.13870	         1.09543e+58
          1230.94500	         9.85116e+57
          1231.75130	         5.34243e+57
          1232.55760	         7.54089e+57
          1233.36390	         9.35194e+57
          1234.17020	         8.32161e+57
          1234.97650	         8.72258e+57
          1235.78280	         9.29324e+57
          1236.58910	         7.66990e+57
          1237.39540	         1.04093e+58
          1238.20170	         1.13715e+58
          1239.00800	         9.49368e+57
          1239.81430	         1.23842e+58
          1240.62060	         1.22823e+58
          1241.42690	         1.02156e+58
          1242.23320	         1.07254e+58
          1243.03950	         7.30664e+57
          1243.84580	         8.22585e+57
          1244.65210	         1.02245e+58
          1245.45840	         8.88317e+57
          1246.26470	         8.75256e+57
          1247.07100	         8.78099e+57
          1247.87730	         5.67172e+57
          1248.68360	         2.76594e+57
          1249.48990	         8.16076e+57
          1250.29620	         1.03518e+58
          1251.10250	         4.25049e+57
          1251.90880	         6.13796e+57
          1252.71510	         7.02714e+57
          1253.52140	         5.81772e+57
          1254.32770	         9.28377e+57
          1255.13400	         1.37044e+58
          1255.94030	         1.23178e+58
          1256.74660	         9.92428e+57
          1257.55290	         9.76901e+57
          1258.35920	         8.33655e+57
          1259.16550	         5.60379e+57
          1259.97180	         5.40190e+57
          1260.77810	         8.16013e+57
          1261.58440	         9.52664e+57
          1262.39070	         1.01142e+58
          1263.19700	         1.15126e+58
          1264.00330	         1.00600e+58
          1264.80960	         9.29461e+57
          1265.61590	         1.09071e+58
          1266.42220	         1.19486e+58
          1267.22850	         9.96068e+57
          1268.03480	         1.34150e+58
          1268.84110	         1.40980e+58
          1269.64740	         1.13882e+58
          1270.45370	         1.06875e+58
          1271.26000	         9.36497e+57
          1272.06630	         9.32529e+57
          1272.87260	         1.08562e+58
          1273.67890	         1.34482e+58
          1274.48520	         1.41927e+58
          1275.29150	         1.48902e+58
          1276.09780	         1.36441e+58
          1276.90410	         1.48002e+58
          1277.71040	         1.28691e+58
          1278.51670	         1.13069e+58
          1279.32300	         1.29479e+58
          1280.12930	         1.41358e+58
          1280.93560	         1.03760e+58
          1281.74190	         1.04344e+58
          1282.54820	         1.29626e+58
          1283.35450	         1.09464e+58
          1284.16080	         1.10729e+58
          1284.96710	         1.37513e+58
          1285.77340	         1.19253e+58
          1286.57970	         9.46910e+57
          1287.38600	         1.49026e+58
          1288.19230	         1.84094e+58
          1288.99860	         1.42361e+58
          1289.80490	         1.04749e+58
          1290.61120	         1.32431e+58
          1291.41750	         1.33595e+58
          1292.22380	         1.24405e+58
          1293.03010	         1.16355e+58
          1293.83640	         1.29317e+58
          1294.64270	         1.00222e+58
          1295.44900	         5.92554e+57
          1296.25530	         7.99372e+57
          1297.06160	         9.99360e+57
          1297.86790	         9.84474e+57
          1298.67420	         9.17116e+57
          1299.48050	         1.10574e+58
          1300.28680	         1.02117e+58
          1301.09310	         5.58462e+57
          1301.89940	         2.98455e+57
          1302.70570	         4.28780e+57
          1303.51200	         7.19083e+57
          1304.31830	         1.03730e+58
          1305.12460	         1.16243e+58
          1305.93090	         1.19044e+58
          1306.73720	         1.22142e+58
          1307.54350	         1.31420e+58
          1308.34980	         1.48524e+58
          1309.15610	         1.38518e+58
          1309.96240	         1.31835e+58
          1310.76870	         1.25663e+58
          1311.57500	         1.10823e+58
          1312.38130	         1.26965e+58
          1313.18760	         1.49181e+58
          1313.99390	         1.58592e+58
          1314.80020	         1.51493e+58
          1315.60650	         1.48655e+58
          1316.41280	         1.25007e+58
          1317.21910	         9.55151e+57
          1318.02540	         1.10148e+58
          1318.83170	         1.10241e+58
          1319.63800	         1.07051e+58
          1320.44430	         1.08469e+58
          1321.25060	         1.19706e+58
          1322.05690	         1.21476e+58
          1322.86320	         1.07834e+58
          1323.66950	         1.06857e+58
          1324.47580	         1.06160e+58
          1325.28210	         1.06644e+58
          1326.08840	         1.12673e+58
          1326.89470	         1.23050e+58
          1327.70100	         9.46112e+57
          1328.50730	         7.91728e+57
          1329.31360	         8.15632e+57
          1330.11990	         8.30797e+57
          1330.92620	         7.13741e+57
          1331.73250	         9.44683e+57
          1332.53880	         1.04141e+58
          1333.34510	         9.22349e+57
          1334.15140	         9.36189e+57
          1334.95770	         9.22910e+57
          1335.76400	         9.98691e+57
          1336.57030	         9.65385e+57
          1337.37660	         1.05982e+58
          1338.18290	         1.14395e+58
          1338.98920	         1.18241e+58
          1339.79550	         1.24708e+58
          1340.60180	         1.23284e+58
          1341.40810	         1.29432e+58
          1342.21440	         1.23249e+58
          1343.02070	         1.08563e+58
          1343.82700	         1.25497e+58
          1344.63330	         1.46697e+58
          1345.43960	         1.41537e+58
          1346.24590	         1.28610e+58
          1347.05220	         1.20154e+58
          1347.85850	         9.37740e+57
          1348.66480	         1.15446e+58
          1349.47110	         1.29782e+58
          1350.27740	         1.25964e+58
          1351.08370	         1.28869e+58
          1351.89000	         1.23787e+58
          1352.69630	         1.24500e+58
          1353.50260	         1.14569e+58
          1354.30890	         1.22552e+58
          1355.11520	         1.19759e+58
          1355.92150	         9.48234e+57
          1356.72780	         8.68121e+57
          1357.53410	         9.78957e+57
          1358.34040	         1.13177e+58
          1359.14670	         1.06692e+58
          1359.95300	         1.01727e+58
          1360.75930	         1.07516e+58
          1361.56560	         1.13389e+58
          1362.37190	         1.22136e+58
          1363.17820	         1.11872e+58
          1363.98450	         1.17112e+58
          1364.79080	         1.36990e+58
          1365.59710	         1.30627e+58
          1366.40340	         1.11188e+58
          1367.20970	         1.02014e+58
          1368.01600	         1.08702e+58
          1368.82230	         1.03161e+58
          1369.62860	         9.79665e+57
          1370.43490	         8.80964e+57
          1371.24120	         9.22713e+57
          1372.04750	         1.01858e+58
          1372.85380	         1.32234e+58
          1373.66010	         1.24381e+58
          1374.46640	         1.06929e+58
          1375.27270	         1.17714e+58
          1376.07900	         9.81812e+57
          1376.88530	         8.61055e+57
          1377.69160	         9.75046e+57
          1378.49790	         9.26231e+57
          1379.30420	         7.75810e+57
          1380.11050	         9.72803e+57
          1380.91680	         9.46124e+57
          1381.72310	         9.02742e+57
          1382.52940	         8.54779e+57
          1383.33570	         7.97016e+57
          1384.14200	         8.53603e+57
          1384.94830	         1.00539e+58
          1385.75460	         1.18109e+58
          1386.56090	         1.19645e+58
          1387.36720	         1.21682e+58
          1388.17350	         1.26875e+58
          1388.97980	         1.13577e+58
          1389.78610	         1.21018e+58
          1390.59240	         1.00645e+58
          1391.39870	         8.44307e+57
          1392.20500	         9.18362e+57
          1393.01130	         7.73151e+57
          1393.81760	         8.66773e+57
          1394.62390	         8.91906e+57
          1395.43020	         7.54774e+57
          1396.23650	         6.49948e+57
          1397.04280	         6.96122e+57
          1397.84910	         6.65039e+57
          1398.65540	         7.31730e+57
          1399.46170	         9.96394e+57
          1400.26800	         9.09716e+57
          1401.07430	         7.16072e+57
          1401.88060	         7.27126e+57
          1402.68690	         8.68743e+57
          1403.49320	         9.41101e+57
          1404.29950	         9.98610e+57
          1405.10580	         1.07603e+58
          1405.91210	         1.17894e+58
          1406.71840	         1.09656e+58
          1407.52470	         1.01718e+58
          1408.33100	         1.01061e+58
          1409.13730	         1.13081e+58
          1409.94360	         1.14631e+58
          1410.74990	         1.05053e+58
          1411.55620	         9.29472e+57
          1412.36250	         8.92454e+57
          1413.16880	         8.35230e+57
          1413.97510	         7.92289e+57
          1414.78140	         8.74522e+57
          1415.58770	         1.06843e+58
          1416.39400	         1.18792e+58
          1417.20030	         1.16694e+58
          1418.00660	         9.18193e+57
          1418.81290	         1.09920e+58
          1419.61920	         1.14987e+58
          1420.42550	         1.20161e+58
          1421.23180	         1.30467e+58
          1422.03810	         1.03489e+58
          1422.84440	         9.22344e+57
          1423.65070	         1.26268e+58
          1424.45700	         1.23671e+58
          1425.26330	         9.34512e+57
          1426.06960	         7.68368e+57
          1426.87590	         9.69365e+57
          1427.68220	         1.08769e+58
          1428.48850	         1.09537e+58
          1429.29480	         1.02184e+58
          1430.10110	         1.01591e+58
          1430.90740	         8.00604e+57
          1431.71370	         7.89018e+57
          1432.52000	         9.25532e+57
          1433.32630	         8.22764e+57
          1434.13260	         7.85357e+57
          1434.93890	         8.82198e+57
          1435.74520	         8.75366e+57
          1436.55150	         9.35207e+57
          1437.35780	         9.34207e+57
          1438.16410	         9.91861e+57
          1438.97040	         9.40485e+57
          1439.77670	         8.89285e+57
          1440.58300	         9.11946e+57
          1441.38930	         9.32369e+57
          1442.19560	         9.05751e+57
          1443.00190	         8.61382e+57
          1443.80820	         1.04149e+58
          1444.61450	         1.00267e+58
          1445.42080	         8.57138e+57
          1446.22710	         1.00322e+58
          1447.03340	         9.67375e+57
          1447.83970	         1.06940e+58
          1448.64600	         1.15314e+58
          1449.45230	         9.73939e+57
          1450.25860	         9.69675e+57
          1451.06490	         9.34868e+57
          1451.87120	         8.08266e+57
          1452.67750	         7.55767e+57
          1453.48380	         7.99487e+57
          1454.29010	         7.32451e+57
          1455.09640	         7.86639e+57
          1455.90270	         9.06196e+57
          1456.70900	         8.87906e+57
          1457.51530	         9.79418e+57
          1458.32160	         1.19025e+58
          1459.12790	         1.22223e+58
          1459.93420	         1.03798e+58
          1460.74050	         8.55398e+57
          1461.54680	         8.06896e+57
          1462.35310	         8.51816e+57
          1463.15940	         9.06265e+57
          1463.96570	         1.09345e+58
          1464.77200	         1.15405e+58
          1465.57830	         1.01525e+58
          1466.38460	         9.38237e+57
          1467.19090	         7.79342e+57
          1467.99720	         8.37838e+57
          1468.80350	         9.08251e+57
          1469.60980	         9.09680e+57
          1470.41610	         1.03801e+58
          1471.22240	         9.69223e+57
          1472.02870	         9.36703e+57
          1472.83500	         8.67330e+57
          1473.64130	         8.96051e+57
          1474.44760	         8.98341e+57
          1475.25390	         7.97265e+57
          1476.06020	         8.27475e+57
          1476.86650	         8.49738e+57
          1477.67280	         7.84935e+57
          1478.47910	         6.82411e+57
          1479.28540	         6.47828e+57
          1480.09170	         7.91125e+57
          1480.89800	         8.34882e+57
          1481.70430	         8.51859e+57
          1482.51060	         8.59071e+57
          1483.31690	         7.91258e+57
          1484.12320	         7.63893e+57
          1484.92950	         8.16868e+57
          1485.73580	         8.00985e+57
          1486.54210	         7.91362e+57
          1487.34840	         7.44483e+57
          1488.15470	         7.35236e+57
          1488.96100	         8.13904e+57
          1489.76730	         8.90086e+57
          1490.57360	         8.15281e+57
          1491.37990	         7.48860e+57
          1492.18620	         7.51992e+57
          1492.99250	         8.55167e+57
          1493.79880	         9.15493e+57
          1494.60510	         7.72006e+57
          1495.41140	         6.59266e+57
          1496.21770	         8.15855e+57
          1497.02400	         9.03733e+57
          1497.83030	         7.82268e+57
          1498.63660	         7.20285e+57
          1499.44290	         7.95852e+57
          1500.24920	         7.51539e+57
          1501.05550	         7.90207e+57
          1501.86180	         7.98961e+57
          1502.66810	         9.15965e+57
          1503.47440	         8.94654e+57
          1504.28070	         8.36225e+57
          1505.08700	         9.64676e+57
          1505.89330	         1.08838e+58
          1506.69960	         9.30711e+57
          1507.50590	         7.63772e+57
          1508.31220	         8.27034e+57
          1509.11850	         8.62602e+57
          1509.92480	         9.30694e+57
          1510.73110	         8.44901e+57
          1511.53740	         7.82474e+57
          1512.34370	         8.59557e+57
          1513.15000	         9.37562e+57
          1513.95630	         9.02739e+57
          1514.76260	         8.12920e+57
          1515.56890	         7.82731e+57
          1516.37520	         8.60542e+57
          1517.18150	         8.13794e+57
          1517.98780	         6.41912e+57
          1518.79410	         6.28337e+57
          1519.60040	         7.84199e+57
          1520.40670	         9.83952e+57
          1521.21300	         9.51129e+57
          1522.01930	         8.04610e+57
          1522.82560	         8.66379e+57
          1523.63190	         1.02947e+58
          1524.43820	         8.14873e+57
          1525.24450	         6.33063e+57
          1526.05080	         6.37812e+57
          1526.85710	         6.07840e+57
          1527.66340	         7.28745e+57
          1528.46970	         8.31286e+57
          1529.27600	         8.00995e+57
          1530.08230	         6.77384e+57
          1530.88860	         7.77739e+57
          1531.69490	         9.20653e+57
          1532.50120	         9.92716e+57
          1533.30750	         1.01639e+58
          1534.11380	         9.40785e+57
          1534.92010	         8.98755e+57
          1535.72640	         9.12549e+57
          1536.53270	         9.61405e+57
          1537.33900	         8.71391e+57
          1538.14530	         8.11545e+57
          1538.95160	         9.18103e+57
          1539.75790	         9.68215e+57
          1540.56420	         8.79931e+57
          1541.37050	         7.57625e+57
          1542.17680	         6.63139e+57
          1542.98310	         6.94508e+57
          1543.78940	         7.52183e+57
          1544.59570	         6.38259e+57
          1545.40200	         7.61292e+57
          1546.20830	         9.57941e+57
          1547.01460	         1.04929e+58
          1547.82090	         1.12535e+58
          1548.62720	         1.20903e+58
          1549.43350	         1.24751e+58
          1550.23980	         1.17630e+58
          1551.04610	         1.23100e+58
          1551.85240	         1.13030e+58
          1552.65870	         1.17021e+58
          1553.46500	         9.99184e+57
          1554.27130	         9.83519e+57
          1555.07760	         1.00808e+58
          1555.88390	         8.91938e+57
          1556.69020	         8.64331e+57
          1557.49650	         8.99446e+57
          1558.30280	         8.44864e+57
          1559.10910	         8.76526e+57
          1559.91540	         9.02255e+57
          1560.72170	         8.80776e+57
          1561.52800	         8.60934e+57
          1562.33430	         7.88524e+57
          1563.14060	         7.67972e+57
          1563.94690	         8.62757e+57
          1564.75320	         8.16463e+57
          1565.55950	         6.61298e+57
          1566.36580	         7.00116e+57
          1567.17210	         8.67874e+57
          1567.97840	         9.60406e+57
          1568.78470	         8.88454e+57
          1569.59100	         9.38677e+57
          1570.39730	         9.62738e+57
          1571.20360	         7.58846e+57
          1572.00990	         7.21577e+57
          1572.81620	         7.89542e+57
          1573.62250	         9.96291e+57
          1574.42880	         9.49089e+57
          1575.23510	         7.60440e+57
          1576.04140	         8.30171e+57
          1576.84770	         9.53442e+57
          1577.65400	         9.65710e+57
          1578.46030	         1.09578e+58
          1579.26660	         1.04873e+58
          1580.07290	         1.00514e+58
          1580.87920	         8.93040e+57
          1581.68550	         7.91908e+57
          1582.49180	         8.09066e+57
          1583.29810	         7.91356e+57
          1584.10440	         8.30633e+57
          1584.91070	         8.02384e+57
          1585.71700	         9.09416e+57
          1586.52330	         9.59177e+57
          1587.32960	         8.92913e+57
          1588.13590	         8.11895e+57
          1588.94220	         8.30858e+57
          1589.74850	         9.32446e+57
          1590.55480	         9.14258e+57
          1591.36110	         7.91146e+57
          1592.16740	         7.76305e+57
          1592.97370	         8.31904e+57
          1593.78000	         9.47032e+57
          1594.58630	         9.90192e+57
          1595.39260	         9.06370e+57
          1596.19890	         8.63836e+57
          1597.00520	         8.28154e+57
          1597.81150	         8.71969e+57
          1598.61780	         7.53516e+57
          1599.42410	         7.22456e+57
          1600.23040	         7.49037e+57
          1601.03670	         8.72851e+57
          1601.84300	         7.82433e+57
          1602.64930	         7.42756e+57
          1603.45560	         8.66124e+57
          1604.26190	         8.17866e+57
          1605.06820	         7.73576e+57
          1605.87450	         6.32650e+57
          1606.68080	         6.03216e+57
          1607.48710	         6.55472e+57
          1608.29340	         6.61897e+57
          1609.09970	         7.36139e+57
          1609.90600	         6.43564e+57
          1610.71230	         6.20823e+57
          1611.51860	         6.41421e+57
          1612.32490	         5.92676e+57
          1613.13120	         7.56812e+57
          1613.93750	         7.49255e+57
          1614.74380	         8.31767e+57
          1615.55010	         8.17200e+57
          1616.35640	         9.47163e+57
          1617.16270	         1.07322e+58
          1617.96900	         1.03819e+58
          1618.77530	         8.53852e+57
          1619.58160	         8.03692e+57
          1620.38790	         7.75746e+57
          1621.19420	         9.12658e+57
          1622.00050	         8.97977e+57
          1622.80680	         8.89115e+57
          1623.61310	         9.29108e+57
          1624.41940	         8.12659e+57
          1625.22570	         8.76749e+57
          1626.03200	         9.84259e+57
          1626.83830	         8.95697e+57
          1627.64460	         7.43753e+57
          1628.45090	         6.09603e+57
          1629.25720	         8.85398e+57
          1630.06350	         1.07234e+58
          1630.86980	         6.85388e+57
          1631.67610	         7.48201e+57
          1632.48240	         8.14201e+57
          1633.28870	         7.50481e+57
          1634.09500	         1.01066e+58
          1634.90130	         1.21116e+58
          1635.70760	         9.89635e+57
          1636.51390	         8.81005e+57
          1637.32020	         7.30400e+57
          1638.12650	         8.09052e+57
          1638.93280	         9.86360e+57
          1639.73910	         9.89957e+57
          1640.54540	         1.02222e+58
          1641.35170	         8.48631e+57
          1642.15800	         9.23460e+57
          1642.96430	         9.91532e+57
          1643.77060	         9.12010e+57
          1644.57690	         8.39729e+57
          1645.38320	         8.36417e+57
          1646.18950	         7.52847e+57
          1646.99580	         8.60700e+57
          1647.80210	         7.77522e+57
          1648.60840	         8.13872e+57
          1649.41470	         8.47708e+57
          1650.22100	         6.67701e+57
          1651.02730	         7.15656e+57
          1651.83360	         7.46931e+57
          1652.63990	         8.27746e+57
          1653.44620	         1.05535e+58
          1654.25250	         8.68312e+57
          1655.05880	         7.67422e+57
          1655.86510	         8.08499e+57
          1656.67140	         7.43004e+57
          1657.47770	         7.95841e+57
          1658.28400	         8.86238e+57
          1659.09030	         8.65123e+57
          1659.89660	         9.46461e+57
          1660.70290	         1.03639e+58
          1661.50920	         1.01000e+58
          1662.31550	         8.57326e+57
          1663.12180	         8.53591e+57
          1663.92810	         9.18511e+57
          1664.73440	         1.03474e+58
          1665.54070	         1.17611e+58
          1666.34700	         1.22099e+58
          1667.15330	         1.08336e+58
          1667.95960	         8.95339e+57
          1668.76590	         7.26114e+57
          1669.57220	         7.09010e+57
          1670.37850	         7.32281e+57
          1671.18480	         7.63387e+57
          1671.99110	         7.35772e+57
          1672.79740	         6.82762e+57
          1673.60370	         6.70805e+57
          1674.41000	         6.97089e+57
          1675.21630	         6.89480e+57
          1676.02260	         6.83275e+57
          1676.82890	         6.34770e+57
          1677.63520	         6.43571e+57
          1678.44150	         7.46397e+57
          1679.24780	         8.62352e+57
          1680.05410	         7.36345e+57
          1680.86040	         6.82135e+57
          1681.66670	         7.43372e+57
          1682.47300	         7.15889e+57
          1683.27930	         7.71705e+57
          1684.08560	         7.75507e+57
          1684.89190	         7.09486e+57
          1685.69820	         6.00633e+57
          1686.50450	         5.57228e+57
          1687.31080	         6.72395e+57
          1688.11710	         6.89771e+57
          1688.92340	         6.22747e+57
          1689.72970	         6.92818e+57
          1690.53600	         6.79076e+57
          1691.34230	         6.41642e+57
          1692.14860	         7.84304e+57
          1692.95490	         8.08737e+57
          1693.76120	         6.77800e+57
          1694.56750	         5.71639e+57
          1695.37380	         7.59996e+57
          1696.18010	         9.06533e+57
          1696.98640	         8.04382e+57
          1697.79270	         8.76895e+57
          1698.59900	         8.48630e+57
          1699.40530	         7.03686e+57
          1700.21160	         7.81490e+57
          1701.01790	         8.62200e+57
          1701.82420	         7.02742e+57
          1702.63050	         6.92601e+57
          1703.43680	         8.80602e+57
          1704.24310	         8.38906e+57
          1705.04940	         8.33467e+57
          1705.85570	         9.05420e+57
          1706.66200	         8.91403e+57
          1707.46830	         7.99570e+57
          1708.27460	         7.55796e+57
          1709.08090	         7.23179e+57
          1709.88720	         6.25125e+57
          1710.69350	         6.60223e+57
          1711.49980	         6.51364e+57
          1712.30610	         7.29407e+57
          1713.11240	         8.57534e+57
          1713.91870	         7.92675e+57
          1714.72500	         8.37321e+57
          1715.53130	         9.25165e+57
          1716.33760	         7.94259e+57
          1717.14390	         7.13174e+57
          1717.95020	         7.73893e+57
          1718.75650	         7.60571e+57
          1719.56280	         8.23415e+57
          1720.36910	         7.30324e+57
          1721.17540	         7.24568e+57
          1721.98170	         6.59807e+57
          1722.78800	         5.81602e+57
          1723.59430	         7.38623e+57
          1724.40060	         9.09495e+57
          1725.20690	         8.45875e+57
          1726.01320	         7.28592e+57
          1726.81950	         7.23146e+57
          1727.62580	         7.05906e+57
          1728.43210	         7.10539e+57
          1729.23840	         7.45138e+57
          1730.04470	         8.46921e+57
          1730.85100	         8.52661e+57
          1731.65730	         8.05662e+57
          1732.46360	         7.21801e+57
          1733.26990	         6.68399e+57
          1734.07620	         7.41799e+57
          1734.88250	         7.52692e+57
          1735.68880	         7.96822e+57
          1736.49510	         7.40384e+57
          1737.30140	         7.33321e+57
          1738.10770	         8.07997e+57
          1738.91400	         7.58638e+57
          1739.72030	         6.54001e+57
          1740.52660	         6.19286e+57
          1741.33290	         6.33489e+57
          1742.13920	         5.75457e+57
          1742.94550	         6.18685e+57
          1743.75180	         7.28556e+57
          1744.55810	         7.26461e+57
          1745.36440	         6.82078e+57
          1746.17070	         4.91483e+57
          1746.97700	         5.12088e+57
          1747.78330	         6.71126e+57
          1748.58960	         7.41348e+57
          1749.39590	         6.78396e+57
          1750.20220	         5.47833e+57
          1751.00850	         6.14141e+57
          1751.81480	         6.87543e+57
          1752.62110	         7.34849e+57
          1753.42740	         7.82211e+57
          1754.23370	         6.55217e+57
          1755.04000	         6.41769e+57
          1755.84630	         7.30756e+57
          1756.65260	         8.42749e+57
          1757.45890	         8.94678e+57
          1758.26520	         8.05563e+57
          1759.07150	         9.25172e+57
          1759.87780	         8.63844e+57
          1760.68410	         8.38194e+57
          1761.49040	         8.05568e+57
          1762.29670	         6.74333e+57
          1763.10300	         6.54149e+57
          1763.90930	         7.98092e+57
          1764.71560	         8.27775e+57
          1765.52190	         8.03118e+57
          1766.32820	         8.35064e+57
          1767.13450	         8.01637e+57
          1767.94080	         7.21871e+57
          1768.74710	         7.45631e+57
          1769.55340	         7.47954e+57
          1770.35970	         6.52618e+57
          1771.16600	         7.17862e+57
          1771.97230	         8.74471e+57
          1772.77860	         8.58907e+57
          1773.58490	         7.17452e+57
          1774.39120	         6.94906e+57
          1775.19750	         6.17155e+57
          1776.00380	         6.11187e+57
          1776.81010	         6.68654e+57
          1777.61640	         6.35446e+57
          1778.42270	         6.12566e+57
          1779.22900	         6.33453e+57
          1780.03530	         5.92056e+57
          1780.84160	         6.69347e+57
          1781.64790	         7.37135e+57
          1782.45420	         7.05771e+57
          1783.26050	         6.44197e+57
          1784.06680	         6.17348e+57
          1784.87310	         6.99034e+57
          1785.67940	         7.94766e+57
          1786.48570	         7.23220e+57
          1787.29200	         7.12445e+57
          1788.09830	         6.86187e+57
          1788.90460	         5.83746e+57
          1789.71090	         5.83580e+57
          1790.51720	         5.30606e+57
          1791.32350	         7.59761e+57
          1792.12980	         9.00648e+57
          1792.93610	         7.84631e+57
          1793.74240	         7.03982e+57
          1794.54870	         7.13824e+57
          1795.35500	         7.89751e+57
          1796.16130	         7.99117e+57
          1796.96760	         7.04135e+57
          1797.77390	         7.21461e+57
          1798.58020	         7.15448e+57
          1799.38650	         7.91261e+57
          1800.19280	         6.99997e+57
          1800.99910	         6.26784e+57
          1801.80540	         5.65790e+57
          1802.61170	         6.48252e+57
          1803.41800	         7.96072e+57
          1804.22430	         5.90414e+57
          1805.03060	         5.72499e+57
          1805.83690	         7.66238e+57
          1806.64320	         8.40779e+57
          1807.44950	         7.65138e+57
          1808.25580	         7.23171e+57
          1809.06210	         8.14015e+57
          1809.86840	         7.28335e+57
          1810.67470	         6.43624e+57
          1811.48100	         7.40001e+57
          1812.28730	         8.31297e+57
          1813.09360	         8.29264e+57
          1813.89990	         7.99916e+57
          1814.70620	         8.30734e+57
          1815.51250	         9.07959e+57
          1816.31880	         8.30634e+57
          1817.12510	         7.73992e+57
          1817.93140	         7.92542e+57
          1818.73770	         7.86879e+57
          1819.54400	         8.12544e+57
          1820.35030	         7.81327e+57
          1821.15660	         6.53081e+57
          1821.96290	         6.33157e+57
          1822.76920	         6.91806e+57
          1823.57550	         7.23001e+57
          1824.38180	         7.72418e+57
          1825.18810	         7.74274e+57
          1825.99440	         7.99608e+57
          1826.80070	         7.49054e+57
          1827.60700	         6.98807e+57
          1828.41330	         6.04962e+57
          1829.21960	         6.85090e+57
          1830.02590	         7.91292e+57
          1830.83220	         8.05359e+57
          1831.63850	         7.11433e+57
          1832.44480	         7.09275e+57
          1833.25110	         8.03794e+57
          1834.05740	         8.13626e+57
          1834.86370	         6.20526e+57
          1835.67000	         5.48389e+57
          1836.47630	         7.21980e+57
          1837.28260	         9.59987e+57
          1838.08890	         9.32034e+57
          1838.89520	         8.41516e+57
          1839.70150	         8.04704e+57
          1840.50780	         7.70799e+57
          1841.31410	         7.21931e+57
          1842.12040	         7.23903e+57
          1842.92670	         7.60040e+57
          1843.73300	         6.06815e+57
          1844.53930	         6.29136e+57
          1845.34560	         7.31806e+57
          1846.15190	         7.79937e+57
          1846.95820	         7.60009e+57
          1847.76450	         7.17861e+57
          1848.57080	         5.73330e+57
          1849.37710	         5.94282e+57
          1850.18340	         7.64620e+57
          1850.98970	         7.94306e+57
          1851.79600	         8.37065e+57
          1852.60230	         7.10408e+57
          1853.40860	         6.88192e+57
          1854.21490	         7.60244e+57
          1855.02120	         6.43351e+57
          1855.82750	         4.46677e+57
          1856.63380	         6.23755e+57
          1857.44010	         7.35665e+57
          1858.24640	         6.78825e+57
          1859.05270	         6.58405e+57
          1859.85900	         5.94395e+57
          1860.66530	         5.58591e+57
          1861.47160	         6.67729e+57
          1862.27790	         7.05618e+57
          1863.08420	         7.45661e+57
          1863.89050	         7.79758e+57
          1864.69680	         7.07208e+57
          1865.50310	         6.76127e+57
          1866.30940	         7.33406e+57
          1867.11570	         7.16935e+57
          1867.92200	         6.61718e+57
          1868.72830	         7.18432e+57
          1869.53460	         6.49270e+57
          1870.34090	         7.25592e+57
          1871.14720	         7.23888e+57
          1871.95350	         6.18800e+57
          1872.75980	         7.73487e+57
          1873.56610	         7.36244e+57
          1874.37240	         6.18118e+57
          1875.17870	         6.30451e+57
          1875.98500	         7.51303e+57
          1876.79130	         7.60232e+57
          1877.59760	         6.55792e+57
          1878.40390	         5.73563e+57
          1879.21020	         6.47374e+57
          1880.01650	         7.97890e+57
          1880.82280	         8.64068e+57
          1881.62910	         9.47745e+57
          1882.43540	         9.20049e+57
          1883.24170	         7.17414e+57
          1884.04800	         5.97967e+57
          1884.85430	         6.44075e+57
          1885.66060	         7.69890e+57
          1886.46690	         9.17282e+57
          1887.27320	         8.93699e+57
          1888.07950	         7.38376e+57
          1888.88580	         7.06271e+57
          1889.69210	         9.29270e+57
          1890.49840	         8.73317e+57
          1891.30470	         7.22533e+57
          1892.11100	         8.83381e+57
          1892.91730	         8.02181e+57
          1893.72360	         7.02222e+57
          1894.52990	         6.53398e+57
          1895.33620	         7.51911e+57
          1896.14250	         7.12669e+57
          1896.94880	         6.34499e+57
          1897.75510	         4.37803e+57
          1898.56140	         5.33895e+57
          1899.36770	         7.50322e+57
          1900.17400	         6.90532e+57
          1900.98030	         7.32882e+57
          1901.78660	         8.03846e+57
          1902.59290	         7.87121e+57
          1903.39920	         8.93434e+57
          1904.20550	         9.24365e+57
          1905.01180	         8.81456e+57
          1905.81810	         1.02285e+58
          1906.62440	         1.25562e+58
          1907.43070	         1.56112e+58
          1908.23700	         1.58326e+58
          1909.04330	         1.27422e+58
          1909.84960	         1.01325e+58
          1910.65590	         9.38669e+57
          1911.46220	         9.41506e+57
          1912.26850	         7.56780e+57
          1913.07480	         5.89834e+57
          1913.88110	         5.93483e+57
          1914.68740	         6.57306e+57
          1915.49370	         6.83312e+57
          1916.30000	         6.35990e+57
          1917.10630	         6.67127e+57
          1917.91260	         6.95332e+57
          1918.71890	         6.39616e+57
          1919.52520	         6.66521e+57
          1920.33150	         6.22204e+57
          1921.13780	         6.76742e+57
          1921.94410	         8.16021e+57
          1922.75040	         7.88889e+57
          1923.55670	         7.17533e+57
          1924.36300	         7.35951e+57
          1925.16930	         7.96342e+57
          1925.97560	         6.92047e+57
          1926.78190	         4.90810e+57
          1927.58820	         5.76119e+57
          1928.39450	         6.54076e+57
          1929.20080	         5.62848e+57
          1930.00710	         7.08831e+57
          1930.81340	         8.22000e+57
          1931.61970	         7.67828e+57
          1932.42600	         7.25202e+57
          1933.23230	         7.75354e+57
          1934.03860	         6.93011e+57
          1934.84490	         5.84815e+57
          1935.65120	         7.28924e+57
          1936.45750	         8.98457e+57
          1937.26380	         7.94949e+57
          1938.07010	         7.31309e+57
          1938.87640	         7.69262e+57
          1939.68270	         7.57098e+57
          1940.48900	         8.50250e+57
          1941.29530	         9.01435e+57
          1942.10160	         7.87666e+57
          1942.90790	         6.70846e+57
          1943.71420	         6.57109e+57
          1944.52050	         6.43450e+57
          1945.32680	         5.92676e+57
          1946.13310	         6.81121e+57
          1946.93940	         8.42758e+57
          1947.74570	         6.75176e+57
          1948.55200	         6.05759e+57
          1949.35830	         7.00200e+57
          1950.16460	         5.68963e+57
          1950.97090	         5.28088e+57
          1951.77720	         7.52599e+57
          1952.58350	         7.83695e+57
          1953.38980	         5.52788e+57
          1954.19610	         4.20393e+57
          1955.00240	         4.98940e+57
          1955.80870	         5.97917e+57
          1956.61500	         6.12344e+57
          1957.42130	         7.01940e+57
          1958.22760	         7.33809e+57
          1959.03390	         6.70218e+57
          1959.84020	         6.99857e+57
          1960.64650	         7.61369e+57
          1961.45280	         7.36105e+57
          1962.25910	         7.09698e+57
          1963.06540	         7.25992e+57
          1963.87170	         6.45786e+57
          1964.67800	         7.38133e+57
          1965.48430	         6.76586e+57
          1966.29060	         7.05024e+57
          1967.09690	         7.99252e+57
          1967.90320	         7.08880e+57
          1968.70950	         7.23302e+57
          1969.51580	         6.86139e+57
          1970.32210	         7.31162e+57
          1971.12840	         7.35061e+57
          1971.93470	         4.34050e+57
          1972.74100	         4.58492e+57
          1973.54730	         6.66105e+57
          1974.35360	         7.77179e+57
          1975.15990	         7.95465e+57
          1975.96620	         7.95413e+57
          1976.77250	         7.20130e+57
          1977.57880	         7.65401e+57
          1978.38510	         6.57693e+57
          1979.19140	         7.28236e+57
          1979.99770	         7.97455e+57
          1980.80400	         6.94707e+57
          1981.61030	         6.72646e+57
          1982.41660	         5.62720e+57
          1983.22290	         6.29414e+57
          1984.02920	         5.69848e+57
          1984.83550	         5.98656e+57
          1985.64180	         6.73592e+57
          1986.44810	         7.36376e+57
          1987.25440	         5.58307e+57
          1988.06070	         4.96653e+57
          1988.86700	         6.92818e+57
          1989.67330	         7.70133e+57
          1990.47960	         6.81743e+57
          1991.28590	         6.75898e+57
          1992.09220	         6.59330e+57
          1992.89850	         6.55398e+57
          1993.70480	         5.06890e+57
          1994.51110	         4.53885e+57
          1995.31740	         4.68240e+57
          1996.12370	         5.99487e+57
          1996.93000	         6.66816e+57
          1997.73630	         6.57722e+57
          1998.54260	         6.80358e+57
          1999.34890	         5.80754e+57
          2000.15520	         6.23479e+57
          2000.96150	         7.09844e+57
          2001.76780	         7.43961e+57
          2002.57410	         5.30251e+57
          2003.38040	         6.04326e+57
          2004.18670	         7.09845e+57
          2004.99300	         6.36290e+57
          2005.79930	         6.75440e+57
          2006.60560	         6.53100e+57
          2007.41190	         6.35069e+57
          2008.21820	         6.62214e+57
          2009.02450	         7.14356e+57
          2009.83080	         6.87595e+57
          2010.63710	         6.65378e+57
          2011.44340	         7.16538e+57
          2012.24970	         7.17642e+57
          2013.05600	         6.76267e+57
          2013.86230	         6.08288e+57
          2014.66860	         5.83732e+57
          2015.47490	         6.13839e+57
          2016.28120	         6.39343e+57
          2017.08750	         6.52730e+57
          2017.89380	         6.17587e+57
          2018.70010	         6.64387e+57
          2019.50640	         5.77314e+57
          2020.31270	         6.96746e+57
          2021.11900	         7.86266e+57
          2021.92530	         6.51883e+57
          2022.73160	         7.62675e+57
          2023.53790	         6.83433e+57
          2024.34420	         6.60933e+57
          2025.15050	         5.42816e+57
          2025.95680	         5.53877e+57
          2026.76310	         6.48199e+57
          2027.56940	         6.23327e+57
          2028.37570	         6.70884e+57
          2029.18200	         6.90963e+57
          2029.98830	         7.16506e+57
          2030.79460	         6.05252e+57
          2031.60090	         6.33819e+57
          2032.40720	         6.65236e+57
          2033.21350	         6.01518e+57
          2034.01980	         5.89703e+57
          2034.82610	         4.36348e+57
          2035.63240	         4.80740e+57
          2036.43870	         6.50968e+57
          2037.24500	         6.87338e+57
          2038.05130	         6.06594e+57
          2038.85760	         5.73694e+57
          2039.66390	         6.59119e+57
          2040.47020	         6.03733e+57
          2041.27650	         4.72019e+57
          2042.08280	         4.94153e+57
          2042.88910	         5.77106e+57
          2043.69540	         5.48889e+57
          2044.50170	         5.99428e+57
          2045.30800	         6.95675e+57
          2046.11430	         5.07641e+57
          2046.92060	         6.07512e+57
          2047.72690	         7.06487e+57
          2048.53320	         5.27345e+57
          2049.33950	         4.89542e+57
          2050.14580	         4.91734e+57
          2050.95210	         7.29565e+57
          2051.75840	         7.10943e+57
          2052.56470	         5.03906e+57
          2053.37100	         3.35529e+57
          2054.17730	         4.86032e+57
          2054.98360	         6.14575e+57
          2055.78990	         3.49831e+57
          2056.59620	         4.16896e+57
          2057.40250	         5.67610e+57
          2058.20880	         6.72736e+57
          2059.01510	         7.11257e+57
          2059.82140	         6.53756e+57
          2060.62770	         9.67996e+57
          2061.43400	         1.77339e+58
          2062.24030	         1.10407e+58
          2063.04660	         3.01363e+57
          2063.85290	         1.31655e+57
          2064.65920	        -2.64227e+56
          2065.46550	        -9.54858e+57
          2066.27180	        -7.93420e+57
          2067.07810	         2.63805e+57
          2067.88440	         4.36407e+57
          2068.69070	         4.85695e+57
          2069.49700	         6.35379e+57
          2070.30330	         5.21854e+57
          2071.10960	         5.54565e+57
          2071.91590	         5.62206e+57
          2072.72220	         3.35308e+57
          2073.52850	         3.93706e+57
          2074.33480	         4.39940e+57
          2075.14110	         4.53248e+57
          2075.94740	         4.55433e+57
          2076.75370	         4.42107e+57
          2077.56000	         4.57418e+57
          2078.36630	         4.26881e+57
          2079.17260	         4.72848e+57
          2079.97890	         5.05863e+57
          2080.78520	         4.73723e+57
          2081.59150	         5.08835e+57
          2082.39780	         5.27540e+57
          2083.20410	         2.14066e+57
          2084.01040	         2.24323e+57
          2084.81670	         4.93991e+57
          2085.62300	         3.25364e+57
          2086.42930	         3.57546e+57
          2087.23560	         3.32630e+57
          2088.04190	         3.74802e+57
          2088.84820	         3.21419e+57
          2089.65450	         2.37161e+57
          2090.46080	        -1.00928e+57
          2091.26710	        -4.56599e+55
          2092.07340	         1.52909e+57
          2092.87970	         3.02113e+57
          2093.68600	        -9.30704e+56
          2094.49230	         1.57183e+57
          2095.29860	         5.07744e+57
          2096.10490	         2.34883e+57
          2096.91120	         1.66191e+57
          2097.71750	         1.56589e+57
          2098.52380	         1.46501e+57
          2099.33010	         1.62558e+57
          2100.13640	         2.51421e+57
          2100.94270	         2.12064e+57
          2101.74900	         3.98549e+57
          2102.55530	         2.72709e+57
          2103.36160	         2.09541e+57
          2104.16790	         3.52603e+57
          2104.97420	         1.62885e+57
          2105.78050	        -3.71963e+56
          2106.58680	         5.21408e+56
          2107.39310	        -6.57637e+56
          2108.19940	         4.95212e+56
          2109.00570	         4.95000e+56
          2109.81200	        -9.80336e+55
          2110.61830	         3.99208e+56
          2111.42460	         6.31414e+56
          2112.23090	         1.26419e+57
          2113.03720	        -1.23536e+57
          2113.84350	         1.71175e+56
          2114.64980	         1.39175e+57
          2115.45610	        -1.49844e+57
          2116.26240	         1.00737e+57
          2117.06870	         8.81937e+56
          2117.87500	        -3.80553e+57
          2118.68130	        -2.98431e+57
          2119.48760	         1.30378e+57
          2120.29390	        -6.23608e+56
          2121.10020	        -3.79854e+57
          2121.90650	        -7.28041e+57
          2122.71280	         1.14528e+57
          2123.51910	         8.93754e+56
          2124.32540	        -1.13823e+57
          2125.13170	        -1.53268e+57
          2125.93800	         5.29757e+57
          2126.74430	         1.70607e+57
          2127.55060	        -3.40226e+57
          2128.35690	        -4.46206e+57
          2129.16320	        -3.12291e+57
          2129.96950	        -3.69848e+57
          2130.77580	        -3.96327e+57
          2131.58210	         3.15622e+57
          2132.38840	         8.29450e+56
          2133.19470	        -6.21032e+57
          2134.00100	        -3.91383e+57
          2134.80730	        -4.19336e+57
          2135.61360	         3.83817e+57
          2136.41990	        -6.70370e+56
          2137.22620	         2.22809e+57
          2138.03250	         3.47116e+56
          2138.83880	        -2.47188e+57
          2139.64510	        -5.42422e+55
          2140.45140	        -1.08633e+57
          2141.25770	        -1.27254e+58
          2142.06400	        -6.39116e+57
          2142.87030	         3.44979e+57
          2143.67660	         7.38287e+57
          2144.48290	         1.81612e+58
          2145.28920	         1.26247e+58
          2146.09550	        -2.10231e+57
          2146.90180	        -1.40788e+58
          2147.70810	        -6.81745e+57
          2148.51440	        -1.10343e+57
          2149.32070	        -5.42656e+57
          2150.12700	        -1.44137e+58
          2150.93330	        -8.13628e+57
          2151.73960	        -1.12320e+57
          2152.54590	        -1.93079e+56
          2153.35220	         5.77996e+57
          2154.15850	        -1.02968e+58
          2154.96480	        -2.83562e+57
          2155.77110	         2.46635e+57
          2156.57740	        -3.52768e+57
          2157.38370	        -2.46908e+57
          2158.19000	         8.80130e+56
          2158.99630	        -7.89952e+57
          2159.80260	        -2.21596e+58
          2160.60890	        -1.34724e+58
          2161.41520	         1.21483e+58
          2162.22150	         4.31370e+57
          2163.02780	        -3.43713e+57
          2163.83410	        -5.50194e+57
          2164.64040	        -2.84505e+57
          2165.44670	        -2.47984e+57
          2166.25300	         5.77209e+57
          2167.05930	         2.92713e+57
          2167.86560	        -7.75600e+57
          2168.67190	         1.88886e+57
          2169.47820	        -7.79877e+57
          2170.28450	        -1.05993e+58
          2171.09080	        -5.17251e+57
          2171.89710	        -2.08665e+57
          2172.70340	        -1.30875e+58
          2173.50970	        -4.92667e+57
          2174.31600	        -1.57316e+57
          2175.12230	         1.75063e+57
          2175.92860	        -1.16220e+57
          2176.73490	        -2.30355e+57
          2177.54120	        -7.71029e+57
          2178.34750	        -4.32969e+57
          2179.15380	                 nan
          2179.96010	                 nan
          2180.76640	                 nan
          2181.57270	                 nan
          2182.37900	                 nan
          2183.18530	                 nan
          2183.99160	                 nan
          2184.79790	                 nan
          2185.60420	                 nan
          2186.41050	                 nan
          2187.21680	                 nan
          2188.02310	                 nan
          2188.82940	                 nan
          2189.63570	                 nan
          2190.44200	                 nan
          2191.24830	                 nan
          2192.05460	                 nan
          2192.86090	                 nan
          2193.66720	                 nan
          2194.47350	                 nan
          2195.27980	                 nan
          2196.08610	                 nan
          2196.89240	                 nan
          2197.69870	                 nan
          2198.50500	                 nan
          2199.31130	                 nan
          2200.11760	                 nan
          2200.92390	                 nan
          2201.73020	                 nan
          2202.53650	                 nan
          2203.34280	                 nan
          2204.14910	                 nan
          2204.95540	                 nan
          2205.76170	                 nan
          2206.56800	                 nan
          2207.37430	                 nan
          2208.18060	                 nan
          2208.98690	                 nan
          2209.79320	                 nan
          2210.59950	                 nan
          2211.40580	                 nan
          2212.21210	                 nan
          2213.01840	                 nan
          2213.82470	                 nan
          2214.63100	                 nan
          2215.43730	         0.00000e+00
