#sample_121_stacked_spectrum_rest_UV-bands_median_H-alpha_noDC.txt
#median Lum: 1.70013e+42
#Rest-frame wavelength (A) | Luminosity (erg/s/A)
#
          1110.00000	         0.00000e+00
          1110.80630	        -5.67196e+58
          1111.61260	         1.16302e+59
          1112.41890	         2.61925e+59
          1113.22520	         1.07188e+59
          1114.03150	        -1.18775e+59
          1114.83780	         2.40763e+59
          1115.64410	         1.73460e+59
          1116.45040	         1.73437e+59
          1117.25670	        -2.91500e+58
          1118.06300	         1.07336e+59
          1118.86930	        -1.09769e+59
          1119.67560	         8.88499e+58
          1120.48190	         5.44747e+58
          1121.28820	        -7.57600e+58
          1122.09450	         1.52048e+58
          1122.90080	         1.14264e+59
          1123.70710	         1.18507e+59
          1124.51340	         1.22534e+59
          1125.31970	         8.42573e+58
          1126.12600	         6.01335e+58
          1126.93230	        -5.88469e+58
          1127.73860	        -5.76559e+58
          1128.54490	         9.88335e+57
          1129.35120	         3.53167e+58
          1130.15750	        -5.11963e+58
          1130.96380	         1.80324e+58
          1131.77010	         8.38031e+58
          1132.57640	         7.87707e+58
          1133.38270	         7.93714e+58
          1134.18900	         2.96219e+58
          1134.99530	         2.06568e+58
          1135.80160	         6.69645e+57
          1136.60790	         2.10988e+58
          1137.41420	        -3.25661e+57
          1138.22050	         4.36647e+58
          1139.02680	         2.71525e+58
          1139.83310	         9.44683e+57
          1140.63940	         2.18622e+58
          1141.44570	        -7.29306e+57
          1142.25200	        -1.69011e+58
          1143.05830	         1.58414e+58
          1143.86460	         2.30511e+58
          1144.67090	         2.00125e+58
          1145.47720	         8.40532e+57
          1146.28350	         1.76049e+58
          1147.08980	         1.77564e+58
          1147.89610	         9.56279e+57
          1148.70240	         1.55532e+58
          1149.50870	         2.22171e+58
          1150.31500	         1.10511e+58
          1151.12130	         7.34581e+57
          1151.92760	         7.51284e+57
          1152.73390	         1.70958e+58
          1153.54020	         1.16792e+58
          1154.34650	         2.87391e+58
          1155.15280	         2.22770e+58
          1155.95910	         7.86315e+57
          1156.76540	        -7.65691e+57
          1157.57170	        -3.50156e+57
          1158.37800	        -3.68147e+57
          1159.18430	        -5.59530e+57
          1159.99060	         1.93131e+57
          1160.79690	         4.60119e+57
          1161.60320	         1.08069e+58
          1162.40950	         1.66168e+58
          1163.21580	         8.50964e+57
          1164.02210	         1.52320e+58
          1164.82840	         6.91986e+57
          1165.63470	         8.52211e+57
          1166.44100	         2.05577e+58
          1167.24730	         1.74816e+58
          1168.05360	         7.79240e+57
          1168.85990	         5.48653e+57
          1169.66620	         9.35098e+57
          1170.47250	         1.18778e+58
          1171.27880	         8.84838e+57
          1172.08510	         2.11537e+58
          1172.89140	         1.57470e+58
          1173.69770	         1.03519e+58
          1174.50400	         1.19295e+58
          1175.31030	         1.93261e+58
          1176.11660	         1.31824e+58
          1176.92290	         1.21449e+58
          1177.72920	         1.24072e+58
          1178.53550	         4.62737e+57
          1179.34180	         5.01089e+56
          1180.14810	         4.79083e+57
          1180.95440	         9.62614e+57
          1181.76070	         5.46228e+57
          1182.56700	         7.07320e+57
          1183.37330	         3.33496e+57
          1184.17960	         9.07139e+57
          1184.98590	         1.09346e+58
          1185.79220	         1.05258e+58
          1186.59850	         1.27745e+58
          1187.40480	         1.17477e+58
          1188.21110	         1.45787e+58
          1189.01740	         1.00481e+58
          1189.82370	         1.01672e+58
          1190.63000	         1.25456e+58
          1191.43630	         1.10432e+58
          1192.24260	         5.74629e+57
          1193.04890	         8.16229e+57
          1193.85520	         7.97238e+57
          1194.66150	         7.38658e+57
          1195.46780	         1.41277e+58
          1196.27410	         1.78345e+58
          1197.08040	         1.31840e+58
          1197.88670	         1.28156e+58
          1198.69300	         1.61746e+58
          1199.49930	         1.86309e+58
          1200.30560	         1.36971e+58
          1201.11190	         1.15070e+58
          1201.91820	         1.26560e+58
          1202.72450	         6.64090e+57
          1203.53080	         1.34082e+58
          1204.33710	         1.01483e+58
          1205.14340	         5.36929e+57
          1205.94970	         6.57158e+57
          1206.75600	         6.30067e+57
          1207.56230	         3.84547e+57
          1208.36860	         8.31117e+57
          1209.17490	         4.17704e+57
          1209.98120	         5.84095e+57
          1210.78750	         8.57929e+57
          1211.59380	         1.26219e+58
          1212.40010	         1.88600e+58
          1213.20640	         1.95337e+58
          1214.01270	         1.95151e+58
          1214.81900	         2.51188e+58
          1215.62530	         4.14058e+58
          1216.43160	         9.03949e+58
          1217.23790	         1.46440e+59
          1218.04420	         1.12093e+59
          1218.85050	         8.42584e+58
          1219.65680	         5.22720e+58
          1220.46310	         3.37025e+58
          1221.26940	         2.30846e+58
          1222.07570	         1.30395e+58
          1222.88200	         9.94955e+57
          1223.68830	         8.23768e+57
          1224.49460	         9.47095e+57
          1225.30090	         7.25627e+57
          1226.10720	         4.81214e+57
          1226.91350	         5.63267e+57
          1227.71980	         6.61267e+57
          1228.52610	         7.65446e+57
          1229.33240	         9.41577e+57
          1230.13870	         6.41904e+57
          1230.94500	         6.70404e+57
          1231.75130	         5.59605e+57
          1232.55760	         8.08607e+57
          1233.36390	         9.32796e+57
          1234.17020	         8.12756e+57
          1234.97650	         6.64564e+57
          1235.78280	         7.30687e+57
          1236.58910	         6.54584e+57
          1237.39540	         8.12474e+57
          1238.20170	         8.50628e+57
          1239.00800	         8.01136e+57
          1239.81430	         1.13065e+58
          1240.62060	         1.07540e+58
          1241.42690	         8.88819e+57
          1242.23320	         1.09562e+58
          1243.03950	         8.77855e+57
          1243.84580	         8.83348e+57
          1244.65210	         8.94293e+57
          1245.45840	         8.90654e+57
          1246.26470	         8.43612e+57
          1247.07100	         6.81055e+57
          1247.87730	         7.36775e+57
          1248.68360	         5.97503e+57
          1249.48990	         1.15557e+58
          1250.29620	         1.07346e+58
          1251.10250	         6.92597e+57
          1251.90880	         4.40141e+57
          1252.71510	         5.57895e+57
          1253.52140	         8.59983e+57
          1254.32770	         1.06673e+58
          1255.13400	         1.33150e+58
          1255.94030	         1.21477e+58
          1256.74660	         1.16623e+58
          1257.55290	         1.13503e+58
          1258.35920	         9.06124e+57
          1259.16550	         5.23225e+57
          1259.97180	         5.12673e+57
          1260.77810	         8.11006e+57
          1261.58440	         1.05708e+58
          1262.39070	         9.08227e+57
          1263.19700	         1.05866e+58
          1264.00330	         9.43196e+57
          1264.80960	         9.03396e+57
          1265.61590	         1.12878e+58
          1266.42220	         1.13913e+58
          1267.22850	         1.02216e+58
          1268.03480	         1.29954e+58
          1268.84110	         1.47874e+58
          1269.64740	         1.31611e+58
          1270.45370	         1.20170e+58
          1271.26000	         1.07921e+58
          1272.06630	         1.31222e+58
          1272.87260	         1.27525e+58
          1273.67890	         1.39778e+58
          1274.48520	         1.46784e+58
          1275.29150	         1.20522e+58
          1276.09780	         1.00255e+58
          1276.90410	         1.36312e+58
          1277.71040	         1.23550e+58
          1278.51670	         1.07420e+58
          1279.32300	         1.29815e+58
          1280.12930	         1.24322e+58
          1280.93560	         1.03585e+58
          1281.74190	         1.10946e+58
          1282.54820	         1.40695e+58
          1283.35450	         1.19489e+58
          1284.16080	         1.19459e+58
          1284.96710	         1.50695e+58
          1285.77340	         1.37314e+58
          1286.57970	         1.01418e+58
          1287.38600	         1.36389e+58
          1288.19230	         1.81637e+58
          1288.99860	         1.54546e+58
          1289.80490	         1.26640e+58
          1290.61120	         1.31829e+58
          1291.41750	         1.48743e+58
          1292.22380	         1.25967e+58
          1293.03010	         8.80350e+57
          1293.83640	         8.77393e+57
          1294.64270	         8.77020e+57
          1295.44900	         8.09813e+57
          1296.25530	         9.14210e+57
          1297.06160	         9.20481e+57
          1297.86790	         9.56264e+57
          1298.67420	         9.73801e+57
          1299.48050	         8.89655e+57
          1300.28680	         9.79100e+57
          1301.09310	         9.56050e+57
          1301.89940	         6.19236e+57
          1302.70570	         5.22999e+57
          1303.51200	         5.55209e+57
          1304.31830	         9.42405e+57
          1305.12460	         1.15205e+58
          1305.93090	         1.18729e+58
          1306.73720	         1.34413e+58
          1307.54350	         1.41761e+58
          1308.34980	         1.48063e+58
          1309.15610	         1.39751e+58
          1309.96240	         1.35014e+58
          1310.76870	         1.38691e+58
          1311.57500	         1.33152e+58
          1312.38130	         1.29082e+58
          1313.18760	         1.36597e+58
          1313.99390	         1.34622e+58
          1314.80020	         1.27999e+58
          1315.60650	         1.33801e+58
          1316.41280	         1.29507e+58
          1317.21910	         1.17282e+58
          1318.02540	         1.13225e+58
          1318.83170	         1.23112e+58
          1319.63800	         1.16298e+58
          1320.44430	         1.15276e+58
          1321.25060	         1.35575e+58
          1322.05690	         1.37065e+58
          1322.86320	         1.34437e+58
          1323.66950	         1.15635e+58
          1324.47580	         8.86891e+57
          1325.28210	         8.88881e+57
          1326.08840	         1.01146e+58
          1326.89470	         9.88536e+57
          1327.70100	         9.71036e+57
          1328.50730	         8.87436e+57
          1329.31360	         9.66135e+57
          1330.11990	         9.84480e+57
          1330.92620	         9.16599e+57
          1331.73250	         1.08514e+58
          1332.53880	         1.19246e+58
          1333.34510	         1.01066e+58
          1334.15140	         8.76820e+57
          1334.95770	         9.17097e+57
          1335.76400	         1.12143e+58
          1336.57030	         1.20199e+58
          1337.37660	         1.11060e+58
          1338.18290	         9.73893e+57
          1338.98920	         1.15616e+58
          1339.79550	         1.08141e+58
          1340.60180	         1.15602e+58
          1341.40810	         1.26647e+58
          1342.21440	         1.16241e+58
          1343.02070	         1.13473e+58
          1343.82700	         1.25009e+58
          1344.63330	         1.24939e+58
          1345.43960	         1.15708e+58
          1346.24590	         1.00761e+58
          1347.05220	         1.16378e+58
          1347.85850	         1.20724e+58
          1348.66480	         1.25187e+58
          1349.47110	         1.28174e+58
          1350.27740	         1.23315e+58
          1351.08370	         1.23442e+58
          1351.89000	         1.21064e+58
          1352.69630	         1.05929e+58
          1353.50260	         1.04091e+58
          1354.30890	         1.19227e+58
          1355.11520	         1.19184e+58
          1355.92150	         1.05300e+58
          1356.72780	         9.55558e+57
          1357.53410	         9.90283e+57
          1358.34040	         9.46076e+57
          1359.14670	         8.54475e+57
          1359.95300	         1.06906e+58
          1360.75930	         1.21262e+58
          1361.56560	         1.09125e+58
          1362.37190	         1.12777e+58
          1363.17820	         1.15525e+58
          1363.98450	         1.30175e+58
          1364.79080	         1.39377e+58
          1365.59710	         1.35162e+58
          1366.40340	         1.19724e+58
          1367.20970	         1.10408e+58
          1368.01600	         1.05545e+58
          1368.82230	         9.79894e+57
          1369.62860	         9.04254e+57
          1370.43490	         9.01751e+57
          1371.24120	         8.09743e+57
          1372.04750	         8.56582e+57
          1372.85380	         1.08982e+58
          1373.66010	         1.03856e+58
          1374.46640	         9.75195e+57
          1375.27270	         1.01700e+58
          1376.07900	         8.64648e+57
          1376.88530	         8.60279e+57
          1377.69160	         7.85505e+57
          1378.49790	         5.64607e+57
          1379.30420	         6.22995e+57
          1380.11050	         8.48830e+57
          1380.91680	         8.81731e+57
          1381.72310	         6.96295e+57
          1382.52940	         6.74365e+57
          1383.33570	         9.34424e+57
          1384.14200	         8.88508e+57
          1384.94830	         9.33875e+57
          1385.75460	         1.06369e+58
          1386.56090	         1.03586e+58
          1387.36720	         1.12309e+58
          1388.17350	         1.28071e+58
          1388.97980	         1.11834e+58
          1389.78610	         1.00047e+58
          1390.59240	         8.75402e+57
          1391.39870	         8.01551e+57
          1392.20500	         8.43541e+57
          1393.01130	         7.94681e+57
          1393.81760	         7.94658e+57
          1394.62390	         7.43252e+57
          1395.43020	         6.49300e+57
          1396.23650	         6.04631e+57
          1397.04280	         6.33330e+57
          1397.84910	         8.24598e+57
          1398.65540	         8.81252e+57
          1399.46170	         8.91480e+57
          1400.26800	         8.17473e+57
          1401.07430	         8.13816e+57
          1401.88060	         8.23464e+57
          1402.68690	         9.21188e+57
          1403.49320	         9.05826e+57
          1404.29950	         8.32413e+57
          1405.10580	         9.42521e+57
          1405.91210	         1.03514e+58
          1406.71840	         1.01951e+58
          1407.52470	         9.77585e+57
          1408.33100	         1.00405e+58
          1409.13730	         1.07570e+58
          1409.94360	         1.11579e+58
          1410.74990	         1.10492e+58
          1411.55620	         9.98591e+57
          1412.36250	         8.69215e+57
          1413.16880	         8.29924e+57
          1413.97510	         7.30696e+57
          1414.78140	         7.65820e+57
          1415.58770	         1.03457e+58
          1416.39400	         1.04001e+58
          1417.20030	         1.12967e+58
          1418.00660	         1.04082e+58
          1418.81290	         9.88334e+57
          1419.61920	         1.01484e+58
          1420.42550	         1.18895e+58
          1421.23180	         1.39987e+58
          1422.03810	         1.17841e+58
          1422.84440	         9.82722e+57
          1423.65070	         1.18587e+58
          1424.45700	         1.10709e+58
          1425.26330	         8.67155e+57
          1426.06960	         8.49463e+57
          1426.87590	         1.06028e+58
          1427.68220	         1.02621e+58
          1428.48850	         1.03203e+58
          1429.29480	         9.45919e+57
          1430.10110	         8.54924e+57
          1430.90740	         7.51550e+57
          1431.71370	         8.90680e+57
          1432.52000	         9.17128e+57
          1433.32630	         7.25079e+57
          1434.13260	         7.42751e+57
          1434.93890	         7.95779e+57
          1435.74520	         8.37007e+57
          1436.55150	         9.01263e+57
          1437.35780	         8.90208e+57
          1438.16410	         8.27817e+57
          1438.97040	         7.80794e+57
          1439.77670	         7.28554e+57
          1440.58300	         8.29567e+57
          1441.38930	         8.85038e+57
          1442.19560	         8.71873e+57
          1443.00190	         9.24573e+57
          1443.80820	         1.11720e+58
          1444.61450	         1.10958e+58
          1445.42080	         9.14379e+57
          1446.22710	         9.66952e+57
          1447.03340	         1.02525e+58
          1447.83970	         1.05206e+58
          1448.64600	         9.99726e+57
          1449.45230	         9.51015e+57
          1450.25860	         9.66525e+57
          1451.06490	         8.99242e+57
          1451.87120	         7.85025e+57
          1452.67750	         6.82552e+57
          1453.48380	         8.72686e+57
          1454.29010	         8.35073e+57
          1455.09640	         7.40837e+57
          1455.90270	         9.04308e+57
          1456.70900	         9.35751e+57
          1457.51530	         1.01915e+58
          1458.32160	         1.26143e+58
          1459.12790	         1.15162e+58
          1459.93420	         9.53289e+57
          1460.74050	         8.90985e+57
          1461.54680	         8.17715e+57
          1462.35310	         6.67798e+57
          1463.15940	         7.78761e+57
          1463.96570	         1.02725e+58
          1464.77200	         1.13607e+58
          1465.57830	         9.90723e+57
          1466.38460	         8.39458e+57
          1467.19090	         7.94780e+57
          1467.99720	         7.92293e+57
          1468.80350	         8.12222e+57
          1469.60980	         8.67053e+57
          1470.41610	         1.05812e+58
          1471.22240	         1.01478e+58
          1472.02870	         9.78417e+57
          1472.83500	         9.65179e+57
          1473.64130	         9.27143e+57
          1474.44760	         8.19830e+57
          1475.25390	         8.11817e+57
          1476.06020	         7.85842e+57
          1476.86650	         7.84655e+57
          1477.67280	         8.13288e+57
          1478.47910	         7.06258e+57
          1479.28540	         7.16078e+57
          1480.09170	         8.09813e+57
          1480.89800	         8.07137e+57
          1481.70430	         8.05804e+57
          1482.51060	         8.40380e+57
          1483.31690	         7.73640e+57
          1484.12320	         7.41336e+57
          1484.92950	         7.00638e+57
          1485.73580	         7.30920e+57
          1486.54210	         8.51975e+57
          1487.34840	         8.60410e+57
          1488.15470	         7.65938e+57
          1488.96100	         8.51675e+57
          1489.76730	         9.37444e+57
          1490.57360	         9.10021e+57
          1491.37990	         7.11469e+57
          1492.18620	         6.88650e+57
          1492.99250	         7.43425e+57
          1493.79880	         8.20861e+57
          1494.60510	         8.49490e+57
          1495.41140	         7.48434e+57
          1496.21770	         8.09346e+57
          1497.02400	         9.15392e+57
          1497.83030	         7.53970e+57
          1498.63660	         7.27063e+57
          1499.44290	         7.30277e+57
          1500.24920	         7.71929e+57
          1501.05550	         8.50123e+57
          1501.86180	         8.44424e+57
          1502.66810	         8.40592e+57
          1503.47440	         8.70358e+57
          1504.28070	         8.11054e+57
          1505.08700	         8.80226e+57
          1505.89330	         9.45065e+57
          1506.69960	         8.42325e+57
          1507.50590	         9.04774e+57
          1508.31220	         8.96167e+57
          1509.11850	         7.18874e+57
          1509.92480	         7.93717e+57
          1510.73110	         9.14062e+57
          1511.53740	         8.21932e+57
          1512.34370	         6.74975e+57
          1513.15000	         8.52516e+57
          1513.95630	         9.64025e+57
          1514.76260	         9.01944e+57
          1515.56890	         7.98402e+57
          1516.37520	         8.38119e+57
          1517.18150	         7.82637e+57
          1517.98780	         7.45269e+57
          1518.79410	         7.62159e+57
          1519.60040	         8.22179e+57
          1520.40670	         9.19380e+57
          1521.21300	         8.75657e+57
          1522.01930	         7.44530e+57
          1522.82560	         7.72939e+57
          1523.63190	         9.54040e+57
          1524.43820	         8.36234e+57
          1525.24450	         5.75455e+57
          1526.05080	         5.69666e+57
          1526.85710	         6.89648e+57
          1527.66340	         7.57524e+57
          1528.46970	         7.71165e+57
          1529.27600	         6.52132e+57
          1530.08230	         6.39506e+57
          1530.88860	         6.79408e+57
          1531.69490	         8.27212e+57
          1532.50120	         9.22604e+57
          1533.30750	         9.74835e+57
          1534.11380	         9.62364e+57
          1534.92010	         9.35624e+57
          1535.72640	         8.95314e+57
          1536.53270	         8.72712e+57
          1537.33900	         8.60667e+57
          1538.14530	         9.00814e+57
          1538.95160	         8.81471e+57
          1539.75790	         8.43262e+57
          1540.56420	         7.83769e+57
          1541.37050	         7.33534e+57
          1542.17680	         7.33883e+57
          1542.98310	         7.80538e+57
          1543.78940	         7.93095e+57
          1544.59570	         6.97767e+57
          1545.40200	         7.71274e+57
          1546.20830	         9.38860e+57
          1547.01460	         1.01036e+58
          1547.82090	         1.15139e+58
          1548.62720	         1.17436e+58
          1549.43350	         1.24601e+58
          1550.23980	         1.12425e+58
          1551.04610	         1.14437e+58
          1551.85240	         1.21442e+58
          1552.65870	         1.09147e+58
          1553.46500	         9.72861e+57
          1554.27130	         9.46440e+57
          1555.07760	         1.00867e+58
          1555.88390	         8.50516e+57
          1556.69020	         7.86130e+57
          1557.49650	         8.01506e+57
          1558.30280	         7.91183e+57
          1559.10910	         7.19237e+57
          1559.91540	         8.38808e+57
          1560.72170	         9.16263e+57
          1561.52800	         8.44316e+57
          1562.33430	         8.57120e+57
          1563.14060	         7.51035e+57
          1563.94690	         7.78326e+57
          1564.75320	         8.30384e+57
          1565.55950	         7.32150e+57
          1566.36580	         7.44993e+57
          1567.17210	         9.41706e+57
          1567.97840	         9.63308e+57
          1568.78470	         8.14248e+57
          1569.59100	         8.40117e+57
          1570.39730	         8.78056e+57
          1571.20360	         7.08152e+57
          1572.00990	         6.89446e+57
          1572.81620	         7.84102e+57
          1573.62250	         9.55313e+57
          1574.42880	         9.58392e+57
          1575.23510	         8.09667e+57
          1576.04140	         8.08773e+57
          1576.84770	         8.80894e+57
          1577.65400	         8.61878e+57
          1578.46030	         9.85712e+57
          1579.26660	         9.76000e+57
          1580.07290	         9.00854e+57
          1580.87920	         7.84611e+57
          1581.68550	         7.22918e+57
          1582.49180	         7.86341e+57
          1583.29810	         8.10648e+57
          1584.10440	         8.48670e+57
          1584.91070	         8.12287e+57
          1585.71700	         8.09120e+57
          1586.52330	         8.90175e+57
          1587.32960	         8.93708e+57
          1588.13590	         8.75744e+57
          1588.94220	         8.27250e+57
          1589.74850	         8.90387e+57
          1590.55480	         9.23766e+57
          1591.36110	         8.45916e+57
          1592.16740	         8.44069e+57
          1592.97370	         7.78136e+57
          1593.78000	         8.41807e+57
          1594.58630	         9.45232e+57
          1595.39260	         8.17591e+57
          1596.19890	         8.37957e+57
          1597.00520	         9.88124e+57
          1597.81150	         8.77830e+57
          1598.61780	         7.45068e+57
          1599.42410	         7.21345e+57
          1600.23040	         6.79023e+57
          1601.03670	         7.94260e+57
          1601.84300	         7.40731e+57
          1602.64930	         7.99666e+57
          1603.45560	         8.66582e+57
          1604.26190	         8.48721e+57
          1605.06820	         7.91935e+57
          1605.87450	         7.19571e+57
          1606.68080	         6.84712e+57
          1607.48710	         6.51903e+57
          1608.29340	         6.07723e+57
          1609.09970	         7.38133e+57
          1609.90600	         7.40418e+57
          1610.71230	         7.10008e+57
          1611.51860	         7.65639e+57
          1612.32490	         7.32792e+57
          1613.13120	         7.66606e+57
          1613.93750	         7.74391e+57
          1614.74380	         7.79493e+57
          1615.55010	         8.76890e+57
          1616.35640	         1.00643e+58
          1617.16270	         1.02034e+58
          1617.96900	         1.01029e+58
          1618.77530	         8.50240e+57
          1619.58160	         7.55155e+57
          1620.38790	         7.45070e+57
          1621.19420	         8.00510e+57
          1622.00050	         8.01022e+57
          1622.80680	         7.67645e+57
          1623.61310	         7.49952e+57
          1624.41940	         8.09895e+57
          1625.22570	         8.99547e+57
          1626.03200	         8.81021e+57
          1626.83830	         7.66920e+57
          1627.64460	         7.42173e+57
          1628.45090	         7.42381e+57
          1629.25720	         9.24611e+57
          1630.06350	         1.05043e+58
          1630.86980	         7.37067e+57
          1631.67610	         8.80729e+57
          1632.48240	         8.18173e+57
          1633.28870	         7.80987e+57
          1634.09500	         9.94947e+57
          1634.90130	         1.02462e+58
          1635.70760	         9.43409e+57
          1636.51390	         8.14612e+57
          1637.32020	         7.55328e+57
          1638.12650	         8.97059e+57
          1638.93280	         8.94324e+57
          1639.73910	         9.92551e+57
          1640.54540	         1.05238e+58
          1641.35170	         8.07517e+57
          1642.15800	         8.41654e+57
          1642.96430	         8.57366e+57
          1643.77060	         8.85331e+57
          1644.57690	         8.24947e+57
          1645.38320	         8.28711e+57
          1646.18950	         6.89151e+57
          1646.99580	         8.31657e+57
          1647.80210	         9.36218e+57
          1648.60840	         8.73269e+57
          1649.41470	         8.10167e+57
          1650.22100	         6.75226e+57
          1651.02730	         6.86699e+57
          1651.83360	         8.30600e+57
          1652.63990	         6.71475e+57
          1653.44620	         8.33126e+57
          1654.25250	         7.64670e+57
          1655.05880	         6.66382e+57
          1655.86510	         7.97525e+57
          1656.67140	         8.83239e+57
          1657.47770	         8.31554e+57
          1658.28400	         8.76786e+57
          1659.09030	         9.17514e+57
          1659.89660	         9.53158e+57
          1660.70290	         9.87533e+57
          1661.50920	         9.21362e+57
          1662.31550	         7.90839e+57
          1663.12180	         8.15818e+57
          1663.92810	         9.65926e+57
          1664.73440	         1.01027e+58
          1665.54070	         1.01250e+58
          1666.34700	         1.17294e+58
          1667.15330	         1.13841e+58
          1667.95960	         8.85729e+57
          1668.76590	         7.45135e+57
          1669.57220	         6.44082e+57
          1670.37850	         5.45727e+57
          1671.18480	         6.71033e+57
          1671.99110	         7.22035e+57
          1672.79740	         7.50120e+57
          1673.60370	         6.71116e+57
          1674.41000	         7.88880e+57
          1675.21630	         7.75581e+57
          1676.02260	         5.58231e+57
          1676.82890	         6.03171e+57
          1677.63520	         7.38111e+57
          1678.44150	         7.78560e+57
          1679.24780	         8.95476e+57
          1680.05410	         8.15792e+57
          1680.86040	         6.30063e+57
          1681.66670	         6.51447e+57
          1682.47300	         8.40877e+57
          1683.27930	         8.94893e+57
          1684.08560	         9.02394e+57
          1684.89190	         7.66766e+57
          1685.69820	         4.88253e+57
          1686.50450	         4.89808e+57
          1687.31080	         6.71790e+57
          1688.11710	         7.86715e+57
          1688.92340	         6.51083e+57
          1689.72970	         6.07251e+57
          1690.53600	         6.13873e+57
          1691.34230	         6.52862e+57
          1692.14860	         7.90104e+57
          1692.95490	         8.44668e+57
          1693.76120	         7.30226e+57
          1694.56750	         6.84599e+57
          1695.37380	         8.77622e+57
          1696.18010	         8.47098e+57
          1696.98640	         8.28693e+57
          1697.79270	         8.49406e+57
          1698.59900	         8.18396e+57
          1699.40530	         7.65443e+57
          1700.21160	         7.77680e+57
          1701.01790	         8.27895e+57
          1701.82420	         6.97159e+57
          1702.63050	         6.57580e+57
          1703.43680	         8.52576e+57
          1704.24310	         9.03026e+57
          1705.04940	         7.90084e+57
          1705.85570	         7.89623e+57
          1706.66200	         8.09488e+57
          1707.46830	         6.69439e+57
          1708.27460	         6.76452e+57
          1709.08090	         6.87758e+57
          1709.88720	         5.40370e+57
          1710.69350	         5.19188e+57
          1711.49980	         5.87631e+57
          1712.30610	         6.94199e+57
          1713.11240	         9.24498e+57
          1713.91870	         7.76339e+57
          1714.72500	         6.75999e+57
          1715.53130	         7.07470e+57
          1716.33760	         7.36459e+57
          1717.14390	         7.47251e+57
          1717.95020	         7.78769e+57
          1718.75650	         7.28226e+57
          1719.56280	         7.75948e+57
          1720.36910	         7.17701e+57
          1721.17540	         7.35927e+57
          1721.98170	         6.16318e+57
          1722.78800	         6.23678e+57
          1723.59430	         7.45087e+57
          1724.40060	         7.98345e+57
          1725.20690	         8.13589e+57
          1726.01320	         8.15703e+57
          1726.81950	         7.73358e+57
          1727.62580	         7.02878e+57
          1728.43210	         6.67855e+57
          1729.23840	         7.55964e+57
          1730.04470	         7.43613e+57
          1730.85100	         9.08719e+57
          1731.65730	         9.19743e+57
          1732.46360	         8.22281e+57
          1733.26990	         7.93605e+57
          1734.07620	         6.92603e+57
          1734.88250	         6.83028e+57
          1735.68880	         7.71329e+57
          1736.49510	         8.19201e+57
          1737.30140	         8.14504e+57
          1738.10770	         7.50074e+57
          1738.91400	         7.27361e+57
          1739.72030	         7.11764e+57
          1740.52660	         6.45507e+57
          1741.33290	         6.39443e+57
          1742.13920	         6.60760e+57
          1742.94550	         7.49310e+57
          1743.75180	         7.94561e+57
          1744.55810	         8.20441e+57
          1745.36440	         7.51194e+57
          1746.17070	         6.35170e+57
          1746.97700	         5.59540e+57
          1747.78330	         6.36976e+57
          1748.58960	         6.05969e+57
          1749.39590	         6.73990e+57
          1750.20220	         6.26963e+57
          1751.00850	         5.80728e+57
          1751.81480	         5.48355e+57
          1752.62110	         6.66182e+57
          1753.42740	         8.04352e+57
          1754.23370	         6.78685e+57
          1755.04000	         5.77114e+57
          1755.84630	         7.34535e+57
          1756.65260	         7.40512e+57
          1757.45890	         7.91336e+57
          1758.26520	         8.39630e+57
          1759.07150	         9.55438e+57
          1759.87780	         8.70723e+57
          1760.68410	         8.13706e+57
          1761.49040	         9.05885e+57
          1762.29670	         6.86127e+57
          1763.10300	         6.86344e+57
          1763.90930	         8.01531e+57
          1764.71560	         7.78779e+57
          1765.52190	         8.00800e+57
          1766.32820	         8.80546e+57
          1767.13450	         7.36639e+57
          1767.94080	         6.29516e+57
          1768.74710	         7.80723e+57
          1769.55340	         7.05956e+57
          1770.35970	         6.16432e+57
          1771.16600	         7.32504e+57
          1771.97230	         8.65392e+57
          1772.77860	         8.29795e+57
          1773.58490	         7.51957e+57
          1774.39120	         6.57754e+57
          1775.19750	         5.97340e+57
          1776.00380	         6.28714e+57
          1776.81010	         6.23772e+57
          1777.61640	         5.76964e+57
          1778.42270	         6.60713e+57
          1779.22900	         6.58183e+57
          1780.03530	         6.01046e+57
          1780.84160	         6.91713e+57
          1781.64790	         8.15575e+57
          1782.45420	         6.93770e+57
          1783.26050	         5.98129e+57
          1784.06680	         6.94665e+57
          1784.87310	         7.88182e+57
          1785.67940	         7.54296e+57
          1786.48570	         6.13700e+57
          1787.29200	         5.54201e+57
          1788.09830	         5.82842e+57
          1788.90460	         5.36467e+57
          1789.71090	         4.63801e+57
          1790.51720	         5.36660e+57
          1791.32350	         7.36905e+57
          1792.12980	         8.45262e+57
          1792.93610	         7.96790e+57
          1793.74240	         6.99305e+57
          1794.54870	         7.59297e+57
          1795.35500	         8.41505e+57
          1796.16130	         8.48128e+57
          1796.96760	         6.95576e+57
          1797.77390	         6.50019e+57
          1798.58020	         6.74379e+57
          1799.38650	         6.42844e+57
          1800.19280	         7.70488e+57
          1800.99910	         8.18160e+57
          1801.80540	         7.57099e+57
          1802.61170	         8.63130e+57
          1803.41800	         8.14704e+57
          1804.22430	         6.52224e+57
          1805.03060	         6.55050e+57
          1805.83690	         8.45030e+57
          1806.64320	         7.82416e+57
          1807.44950	         6.84902e+57
          1808.25580	         6.54644e+57
          1809.06210	         7.79479e+57
          1809.86840	         6.44263e+57
          1810.67470	         5.72823e+57
          1811.48100	         7.62833e+57
          1812.28730	         8.40188e+57
          1813.09360	         7.65534e+57
          1813.89990	         7.47785e+57
          1814.70620	         6.34487e+57
          1815.51250	         6.77949e+57
          1816.31880	         7.97425e+57
          1817.12510	         7.82943e+57
          1817.93140	         6.09715e+57
          1818.73770	         6.35918e+57
          1819.54400	         7.77270e+57
          1820.35030	         8.04295e+57
          1821.15660	         6.11884e+57
          1821.96290	         5.84181e+57
          1822.76920	         6.29194e+57
          1823.57550	         6.83890e+57
          1824.38180	         6.79302e+57
          1825.18810	         7.82288e+57
          1825.99440	         8.56700e+57
          1826.80070	         7.52418e+57
          1827.60700	         6.56007e+57
          1828.41330	         5.70050e+57
          1829.21960	         7.02127e+57
          1830.02590	         7.44461e+57
          1830.83220	         7.34462e+57
          1831.63850	         8.16005e+57
          1832.44480	         8.42054e+57
          1833.25110	         8.24768e+57
          1834.05740	         7.85254e+57
          1834.86370	         6.63508e+57
          1835.67000	         5.36329e+57
          1836.47630	         6.86559e+57
          1837.28260	         8.90654e+57
          1838.08890	         9.22181e+57
          1838.89520	         9.20916e+57
          1839.70150	         7.68622e+57
          1840.50780	         7.95085e+57
          1841.31410	         7.33522e+57
          1842.12040	         6.73034e+57
          1842.92670	         6.42892e+57
          1843.73300	         5.66206e+57
          1844.53930	         6.08066e+57
          1845.34560	         7.15595e+57
          1846.15190	         7.53336e+57
          1846.95820	         7.62223e+57
          1847.76450	         6.58089e+57
          1848.57080	         4.55858e+57
          1849.37710	         5.71789e+57
          1850.18340	         7.13532e+57
          1850.98970	         7.35592e+57
          1851.79600	         7.60446e+57
          1852.60230	         7.59670e+57
          1853.40860	         6.37878e+57
          1854.21490	         6.01576e+57
          1855.02120	         5.83273e+57
          1855.82750	         4.35449e+57
          1856.63380	         5.21880e+57
          1857.44010	         7.18712e+57
          1858.24640	         7.31048e+57
          1859.05270	         5.85815e+57
          1859.85900	         5.55606e+57
          1860.66530	         5.88194e+57
          1861.47160	         6.31693e+57
          1862.27790	         6.32789e+57
          1863.08420	         6.31495e+57
          1863.89050	         7.32799e+57
          1864.69680	         7.15273e+57
          1865.50310	         6.72552e+57
          1866.30940	         6.26169e+57
          1867.11570	         6.98778e+57
          1867.92200	         7.83833e+57
          1868.72830	         7.40637e+57
          1869.53460	         7.06039e+57
          1870.34090	         6.98682e+57
          1871.14720	         7.28572e+57
          1871.95350	         7.60860e+57
          1872.75980	         7.14706e+57
          1873.56610	         6.42274e+57
          1874.37240	         5.82161e+57
          1875.17870	         6.46785e+57
          1875.98500	         7.76504e+57
          1876.79130	         7.55126e+57
          1877.59760	         7.22041e+57
          1878.40390	         6.40864e+57
          1879.21020	         5.05135e+57
          1880.01650	         6.05672e+57
          1880.82280	         8.10014e+57
          1881.62910	         9.39365e+57
          1882.43540	         9.70291e+57
          1883.24170	         7.71556e+57
          1884.04800	         5.97077e+57
          1884.85430	         6.40833e+57
          1885.66060	         7.46869e+57
          1886.46690	         8.31717e+57
          1887.27320	         7.30552e+57
          1888.07950	         6.48425e+57
          1888.88580	         6.46365e+57
          1889.69210	         7.79783e+57
          1890.49840	         8.00139e+57
          1891.30470	         7.77714e+57
          1892.11100	         8.01364e+57
          1892.91730	         6.78452e+57
          1893.72360	         7.64357e+57
          1894.52990	         7.48455e+57
          1895.33620	         7.30335e+57
          1896.14250	         5.65194e+57
          1896.94880	         4.35564e+57
          1897.75510	         3.94133e+57
          1898.56140	         5.67889e+57
          1899.36770	         7.36653e+57
          1900.17400	         6.47725e+57
          1900.98030	         6.07968e+57
          1901.78660	         6.37965e+57
          1902.59290	         6.71733e+57
          1903.39920	         8.33466e+57
          1904.20550	         9.55129e+57
          1905.01180	         8.52245e+57
          1905.81810	         9.83404e+57
          1906.62440	         1.24862e+58
          1907.43070	         1.42713e+58
          1908.23700	         1.47298e+58
          1909.04330	         1.28037e+58
          1909.84960	         1.07133e+58
          1910.65590	         9.98344e+57
          1911.46220	         9.00489e+57
          1912.26850	         6.98266e+57
          1913.07480	         5.27773e+57
          1913.88110	         5.57236e+57
          1914.68740	         5.70498e+57
          1915.49370	         5.24785e+57
          1916.30000	         6.15800e+57
          1917.10630	         7.30707e+57
          1917.91260	         7.07863e+57
          1918.71890	         6.17305e+57
          1919.52520	         6.86624e+57
          1920.33150	         5.67089e+57
          1921.13780	         6.58465e+57
          1921.94410	         7.80425e+57
          1922.75040	         7.70690e+57
          1923.55670	         7.48911e+57
          1924.36300	         7.74505e+57
          1925.16930	         6.80631e+57
          1925.97560	         5.40604e+57
          1926.78190	         3.86805e+57
          1927.58820	         4.41968e+57
          1928.39450	         5.99865e+57
          1929.20080	         5.54343e+57
          1930.00710	         6.50734e+57
          1930.81340	         7.02905e+57
          1931.61970	         6.20580e+57
          1932.42600	         7.30439e+57
          1933.23230	         8.85381e+57
          1934.03860	         7.76246e+57
          1934.84490	         6.35264e+57
          1935.65120	         8.11611e+57
          1936.45750	         9.21594e+57
          1937.26380	         7.45537e+57
          1938.07010	         7.47840e+57
          1938.87640	         7.85174e+57
          1939.68270	         7.08732e+57
          1940.48900	         7.43973e+57
          1941.29530	         7.73771e+57
          1942.10160	         7.39006e+57
          1942.90790	         6.39761e+57
          1943.71420	         6.15756e+57
          1944.52050	         5.80263e+57
          1945.32680	         5.97100e+57
          1946.13310	         7.54164e+57
          1946.93940	         8.30993e+57
          1947.74570	         7.10660e+57
          1948.55200	         6.74226e+57
          1949.35830	         6.01773e+57
          1950.16460	         5.78741e+57
          1950.97090	         5.62545e+57
          1951.77720	         6.49557e+57
          1952.58350	         7.74536e+57
          1953.38980	         6.66073e+57
          1954.19610	         4.63604e+57
          1955.00240	         4.89773e+57
          1955.80870	         6.01012e+57
          1956.61500	         5.70967e+57
          1957.42130	         5.05644e+57
          1958.22760	         6.37450e+57
          1959.03390	         6.64580e+57
          1959.84020	         7.60371e+57
          1960.64650	         7.42466e+57
          1961.45280	         6.01209e+57
          1962.25910	         5.83995e+57
          1963.06540	         6.41363e+57
          1963.87170	         6.81107e+57
          1964.67800	         7.24958e+57
          1965.48430	         6.81267e+57
          1966.29060	         6.65106e+57
          1967.09690	         7.94999e+57
          1967.90320	         6.58831e+57
          1968.70950	         5.83469e+57
          1969.51580	         5.93257e+57
          1970.32210	         6.69172e+57
          1971.12840	         6.89852e+57
          1971.93470	         5.01945e+57
          1972.74100	         5.02215e+57
          1973.54730	         6.68142e+57
          1974.35360	         6.70286e+57
          1975.15990	         7.57577e+57
          1975.96620	         6.92904e+57
          1976.77250	         7.44209e+57
          1977.57880	         7.94904e+57
          1978.38510	         6.86091e+57
          1979.19140	         6.23963e+57
          1979.99770	         7.27761e+57
          1980.80400	         8.11731e+57
          1981.61030	         7.37357e+57
          1982.41660	         5.95078e+57
          1983.22290	         4.87049e+57
          1984.02920	         5.69973e+57
          1984.83550	         5.70444e+57
          1985.64180	         5.87917e+57
          1986.44810	         6.54793e+57
          1987.25440	         5.04965e+57
          1988.06070	         5.59328e+57
          1988.86700	         5.48817e+57
          1989.67330	         6.37058e+57
          1990.47960	         7.14707e+57
          1991.28590	         6.90926e+57
          1992.09220	         5.14109e+57
          1992.89850	         5.71832e+57
          1993.70480	         5.94454e+57
          1994.51110	         4.43256e+57
          1995.31740	         4.28254e+57
          1996.12370	         3.89243e+57
          1996.93000	         5.99218e+57
          1997.73630	         7.84976e+57
          1998.54260	         7.81079e+57
          1999.34890	         7.00911e+57
          2000.15520	         6.39862e+57
          2000.96150	         6.52576e+57
          2001.76780	         4.73974e+57
          2002.57410	         3.04123e+57
          2003.38040	         5.40492e+57
          2004.18670	         6.99680e+57
          2004.99300	         6.12628e+57
          2005.79930	         7.03888e+57
          2006.60560	         6.30776e+57
          2007.41190	         6.33277e+57
          2008.21820	         6.18997e+57
          2009.02450	         7.14646e+57
          2009.83080	         6.95620e+57
          2010.63710	         5.97127e+57
          2011.44340	         5.93444e+57
          2012.24970	         6.98625e+57
          2013.05600	         7.17579e+57
          2013.86230	         5.46578e+57
          2014.66860	         4.33664e+57
          2015.47490	         6.37789e+57
          2016.28120	         5.20549e+57
          2017.08750	         5.01491e+57
          2017.89380	         6.31536e+57
          2018.70010	         6.73571e+57
          2019.50640	         6.11740e+57
          2020.31270	         6.27810e+57
          2021.11900	         7.48534e+57
          2021.92530	         8.30573e+57
          2022.73160	         7.67884e+57
          2023.53790	         7.02971e+57
          2024.34420	         7.17272e+57
          2025.15050	         6.42080e+57
          2025.95680	         6.23680e+57
          2026.76310	         5.66068e+57
          2027.56940	         6.02417e+57
          2028.37570	         7.34525e+57
          2029.18200	         6.40355e+57
          2029.98830	         4.92812e+57
          2030.79460	         5.17830e+57
          2031.60090	         5.61823e+57
          2032.40720	         4.82227e+57
          2033.21350	         5.51205e+57
          2034.01980	         4.62721e+57
          2034.82610	         4.37332e+57
          2035.63240	         5.26609e+57
          2036.43870	         4.88942e+57
          2037.24500	         6.00085e+57
          2038.05130	         5.23222e+57
          2038.85760	         4.08663e+57
          2039.66390	         5.49311e+57
          2040.47020	         6.75021e+57
          2041.27650	         7.11142e+57
          2042.08280	         6.16283e+57
          2042.88910	         4.80097e+57
          2043.69540	         5.65316e+57
          2044.50170	         5.60151e+57
          2045.30800	         5.95253e+57
          2046.11430	         5.75951e+57
          2046.92060	         5.92396e+57
          2047.72690	         6.86232e+57
          2048.53320	         5.67275e+57
          2049.33950	         3.64287e+57
          2050.14580	         5.28164e+57
          2050.95210	         6.70341e+57
          2051.75840	         7.96320e+57
          2052.56470	         4.60934e+57
          2053.37100	         4.11986e+57
          2054.17730	         4.91622e+57
          2054.98360	         5.34862e+57
          2055.78990	         3.64922e+57
          2056.59620	         3.91794e+57
          2057.40250	         5.80870e+57
          2058.20880	         7.99483e+57
          2059.01510	         5.36933e+57
          2059.82140	         4.73486e+57
          2060.62770	         1.01392e+58
          2061.43400	         1.49636e+58
          2062.24030	         9.86248e+57
          2063.04660	         5.71649e+57
          2063.85290	         1.58122e+57
          2064.65920	        -1.49104e+57
          2065.46550	        -6.90020e+57
          2066.27180	        -9.24159e+57
          2067.07810	         2.10847e+57
          2067.88440	         5.23560e+57
          2068.69070	         6.62554e+57
          2069.49700	         5.48059e+57
          2070.30330	         4.82709e+57
          2071.10960	         6.47940e+57
          2071.91590	         6.56988e+57
          2072.72220	         4.02371e+57
          2073.52850	         4.73048e+57
          2074.33480	         5.09701e+57
          2075.14110	         3.74085e+57
          2075.94740	         4.52053e+57
          2076.75370	         4.98192e+57
          2077.56000	         6.14524e+57
          2078.36630	         5.80103e+57
          2079.17260	         4.59900e+57
          2079.97890	         5.99452e+57
          2080.78520	         6.17228e+57
          2081.59150	         4.70472e+57
          2082.39780	         4.53727e+57
          2083.20410	         2.59056e+57
          2084.01040	         1.69098e+57
          2084.81670	         4.54692e+57
          2085.62300	         5.08944e+57
          2086.42930	         4.14425e+57
          2087.23560	         4.68667e+57
          2088.04190	         3.91545e+57
          2088.84820	         2.71442e+57
          2089.65450	         2.17406e+57
          2090.46080	         1.24666e+57
          2091.26710	         9.52856e+56
          2092.07340	         3.33435e+57
          2092.87970	         2.88590e+57
          2093.68600	        -1.65612e+57
          2094.49230	        -1.03551e+57
          2095.29860	         4.44672e+57
          2096.10490	         2.36370e+57
          2096.91120	         9.04228e+56
          2097.71750	         2.04820e+57
          2098.52380	         1.94656e+57
          2099.33010	         1.27888e+57
          2100.13640	         1.50555e+57
          2100.94270	         1.40100e+57
          2101.74900	         2.26804e+57
          2102.55530	         2.18670e+57
          2103.36160	         2.94983e+57
          2104.16790	         3.22929e+57
          2104.97420	         1.30089e+56
          2105.78050	         6.91395e+56
          2106.58680	        -1.77141e+56
          2107.39310	        -2.05317e+57
          2108.19940	         9.79547e+56
          2109.00570	        -2.05804e+57
          2109.81200	         6.57455e+56
          2110.61830	         2.73555e+57
          2111.42460	         1.16094e+57
          2112.23090	         1.40554e+57
          2113.03720	        -1.64092e+57
          2113.84350	        -2.56717e+56
          2114.64980	         5.81956e+57
          2115.45610	         2.04113e+57
          2116.26240	         1.62277e+57
          2117.06870	         1.06491e+57
          2117.87500	        -2.43079e+57
          2118.68130	        -2.69371e+57
          2119.48760	         8.93905e+55
          2120.29390	        -3.22742e+57
          2121.10020	        -4.98082e+57
          2121.90650	        -3.60713e+56
          2122.71280	         2.31871e+57
          2123.51910	         5.51549e+57
          2124.32540	         4.28832e+57
          2125.13170	         1.27208e+57
          2125.93800	         2.67998e+57
          2126.74430	        -5.39445e+57
          2127.55060	        -6.83510e+57
          2128.35690	        -4.01555e+57
          2129.16320	        -5.67035e+57
          2129.96950	        -4.76165e+57
          2130.77580	         1.83547e+57
          2131.58210	         1.43702e+57
          2132.38840	         2.52353e+57
          2133.19470	         7.92543e+56
          2134.00100	         1.72076e+57
          2134.80730	        -7.67236e+57
          2135.61360	        -4.12808e+57
          2136.41990	        -3.94235e+57
          2137.22620	         4.57179e+56
          2138.03250	         2.25138e+57
          2138.83880	        -3.96409e+57
          2139.64510	        -3.78417e+57
          2140.45140	        -2.63892e+57
          2141.25770	        -8.06776e+57
          2142.06400	        -3.91913e+56
          2142.87030	        -9.50337e+55
          2143.67660	         1.93369e+57
          2144.48290	         5.56452e+57
          2145.28920	         9.46793e+57
          2146.09550	        -8.57118e+57
          2146.90180	        -6.58337e+57
          2147.70810	        -6.33909e+57
          2148.51440	        -6.87430e+57
          2149.32070	        -1.79246e+57
          2150.12700	        -2.15047e+57
          2150.93330	         2.60950e+57
          2151.73960	        -3.57042e+57
          2152.54590	        -1.32535e+57
          2153.35220	        -1.45047e+57
          2154.15850	         1.59335e+57
          2154.96480	         2.36778e+57
          2155.77110	         7.42458e+57
          2156.57740	         1.97019e+57
          2157.38370	        -4.06218e+57
          2158.19000	         2.61914e+57
          2158.99630	        -1.11605e+58
          2159.80260	        -1.19692e+58
          2160.60890	        -1.11122e+58
          2161.41520	        -6.49430e+57
          2162.22150	         4.07217e+57
          2163.02780	        -5.81740e+57
          2163.83410	        -5.76121e+57
          2164.64040	        -9.12453e+57
          2165.44670	        -8.16577e+57
          2166.25300	        -5.17960e+57
          2167.05930	        -2.56390e+57
          2167.86560	        -1.24735e+58
          2168.67190	        -7.32501e+57
          2169.47820	        -5.70329e+56
          2170.28450	        -2.35711e+57
          2171.09080	        -3.23042e+57
          2171.89710	         3.47040e+57
          2172.70340	        -3.85048e+57
          2173.50970	        -4.61278e+57
          2174.31600	        -3.25536e+57
          2175.12230	        -1.25292e+58
          2175.92860	        -4.98531e+57
          2176.73490	        -8.82445e+57
          2177.54120	        -6.54294e+57
          2178.34750	        -3.48529e+57
          2179.15380	                 nan
          2179.96010	                 nan
          2180.76640	                 nan
          2181.57270	                 nan
          2182.37900	                 nan
          2183.18530	                 nan
          2183.99160	                 nan
          2184.79790	                 nan
          2185.60420	                 nan
          2186.41050	                 nan
          2187.21680	                 nan
          2188.02310	                 nan
          2188.82940	                 nan
          2189.63570	                 nan
          2190.44200	                 nan
          2191.24830	                 nan
          2192.05460	                 nan
          2192.86090	                 nan
          2193.66720	                 nan
          2194.47350	                 nan
          2195.27980	                 nan
          2196.08610	                 nan
          2196.89240	                 nan
          2197.69870	                 nan
          2198.50500	                 nan
          2199.31130	                 nan
          2200.11760	                 nan
          2200.92390	                 nan
          2201.73020	                 nan
          2202.53650	                 nan
          2203.34280	                 nan
          2204.14910	                 nan
          2204.95540	                 nan
          2205.76170	                 nan
          2206.56800	                 nan
          2207.37430	                 nan
          2208.18060	                 nan
          2208.98690	                 nan
          2209.79320	                 nan
          2210.59950	                 nan
          2211.40580	                 nan
          2212.21210	                 nan
          2213.01840	                 nan
          2213.82470	                 nan
          2214.63100	                 nan
          2215.43730	         0.00000e+00
