#sample_210_stacked_spectrum_rest_UV-bands_median_H-alpha_noDC.txt
#median Lum: 1.69218e+42
#Rest-frame wavelength (A) | Luminosity (erg/s/A)
#
          1110.00000	         0.00000e+00
          1110.80630	         2.86001e+59
          1111.61260	         4.17058e+59
          1112.41890	         9.54561e+58
          1113.22520	        -7.42063e+58
          1114.03150	        -7.56468e+58
          1114.83780	         9.66828e+58
          1115.64410	         2.04081e+59
          1116.45040	         3.72748e+59
          1117.25670	         5.70630e+58
          1118.06300	         1.26071e+59
          1118.86930	         5.99396e+57
          1119.67560	         6.21685e+58
          1120.48190	         1.21707e+58
          1121.28820	        -1.04935e+59
          1122.09450	         4.16369e+58
          1122.90080	         1.45763e+58
          1123.70710	         3.37734e+58
          1124.51340	         1.64463e+58
          1125.31970	         5.56289e+58
          1126.12600	         1.32377e+58
          1126.93230	        -1.67449e+58
          1127.73860	        -8.53106e+58
          1128.54490	        -4.29814e+58
          1129.35120	         1.06364e+58
          1130.15750	         1.02880e+58
          1130.96380	        -2.90367e+58
          1131.77010	         4.13070e+58
          1132.57640	         2.48370e+58
          1133.38270	         2.37254e+58
          1134.18900	         2.01410e+58
          1134.99530	         2.08048e+58
          1135.80160	         3.48612e+58
          1136.60790	         1.83190e+58
          1137.41420	        -2.47077e+58
          1138.22050	         3.46915e+58
          1139.02680	         1.43049e+58
          1139.83310	         1.08767e+58
          1140.63940	         1.10036e+58
          1141.44570	        -1.43785e+58
          1142.25200	        -1.79906e+57
          1143.05830	         3.06429e+58
          1143.86460	         1.40140e+58
          1144.67090	         3.28970e+58
          1145.47720	         1.03646e+58
          1146.28350	         7.95904e+57
          1147.08980	         1.09643e+57
          1147.89610	         7.61094e+57
          1148.70240	         2.26085e+58
          1149.50870	         2.47520e+58
          1150.31500	         6.13625e+57
          1151.12130	         3.13955e+57
          1151.92760	         9.31218e+57
          1152.73390	         4.61129e+57
          1153.54020	         8.82078e+57
          1154.34650	         1.60015e+58
          1155.15280	         2.32379e+58
          1155.95910	         9.62076e+57
          1156.76540	         1.29839e+58
          1157.57170	         5.71308e+57
          1158.37800	         1.29802e+58
          1159.18430	         6.27120e+57
          1159.99060	         4.96475e+57
          1160.79690	         8.88511e+55
          1161.60320	         8.55173e+57
          1162.40950	         8.21145e+57
          1163.21580	         1.23576e+58
          1164.02210	         7.40441e+57
          1164.82840	         1.71977e+57
          1165.63470	         1.81042e+58
          1166.44100	         3.10444e+58
          1167.24730	         2.04273e+58
          1168.05360	         3.84874e+57
          1168.85990	         3.15411e+57
          1169.66620	         8.46879e+57
          1170.47250	         1.37544e+58
          1171.27880	         1.15767e+58
          1172.08510	         8.13861e+57
          1172.89140	         9.43756e+57
          1173.69770	         1.17509e+58
          1174.50400	         1.71834e+58
          1175.31030	         1.74125e+58
          1176.11660	         1.48889e+58
          1176.92290	         1.67686e+58
          1177.72920	         1.65811e+58
          1178.53550	         8.21785e+57
          1179.34180	         5.95066e+57
          1180.14810	         1.16618e+58
          1180.95440	         1.23574e+58
          1181.76070	         7.31101e+57
          1182.56700	         1.05742e+58
          1183.37330	         1.11708e+58
          1184.17960	         8.99828e+57
          1184.98590	         1.31979e+58
          1185.79220	         5.62149e+57
          1186.59850	         7.80756e+57
          1187.40480	         9.62606e+57
          1188.21110	         1.54067e+58
          1189.01740	         7.50725e+57
          1189.82370	         7.35747e+57
          1190.63000	         1.26855e+58
          1191.43630	         1.60012e+58
          1192.24260	         9.77639e+57
          1193.04890	         1.03940e+58
          1193.85520	         9.13859e+57
          1194.66150	         3.22153e+57
          1195.46780	         1.36781e+58
          1196.27410	         2.25003e+58
          1197.08040	         1.36328e+58
          1197.88670	         1.20862e+58
          1198.69300	         1.86825e+58
          1199.49930	         1.81955e+58
          1200.30560	         9.62827e+57
          1201.11190	         8.97644e+57
          1201.91820	         9.64595e+57
          1202.72450	         8.50049e+57
          1203.53080	         1.24687e+58
          1204.33710	         6.91828e+57
          1205.14340	         5.73200e+57
          1205.94970	         6.63045e+57
          1206.75600	         6.23522e+57
          1207.56230	         3.28749e+57
          1208.36860	         3.82914e+57
          1209.17490	         8.36172e+57
          1209.98120	         7.84553e+57
          1210.78750	         7.54181e+57
          1211.59380	         1.21953e+58
          1212.40010	         2.10828e+58
          1213.20640	         1.94753e+58
          1214.01270	         2.08941e+58
          1214.81900	         2.41477e+58
          1215.62530	         4.25584e+58
          1216.43160	         9.08368e+58
          1217.23790	         1.53255e+59
          1218.04420	         1.15680e+59
          1218.85050	         8.80505e+58
          1219.65680	         5.84242e+58
          1220.46310	         3.28005e+58
          1221.26940	         2.00205e+58
          1222.07570	         1.23137e+58
          1222.88200	         1.27177e+58
          1223.68830	         9.69054e+57
          1224.49460	         6.41503e+57
          1225.30090	         4.82043e+57
          1226.10720	         5.98846e+57
          1226.91350	         5.69216e+57
          1227.71980	         9.00705e+57
          1228.52610	         1.23086e+58
          1229.33240	         1.35501e+58
          1230.13870	         1.38217e+58
          1230.94500	         9.60354e+57
          1231.75130	         5.83111e+57
          1232.55760	         7.03771e+57
          1233.36390	         9.33524e+57
          1234.17020	         1.01385e+58
          1234.97650	         6.59499e+57
          1235.78280	         7.65763e+57
          1236.58910	         9.30432e+57
          1237.39540	         1.09465e+58
          1238.20170	         1.26049e+58
          1239.00800	         1.51658e+58
          1239.81430	         1.67657e+58
          1240.62060	         1.15305e+58
          1241.42690	         1.05406e+58
          1242.23320	         1.13481e+58
          1243.03950	         7.71180e+57
          1243.84580	         8.24714e+57
          1244.65210	         9.65104e+57
          1245.45840	         8.51701e+57
          1246.26470	         8.87815e+57
          1247.07100	         6.28440e+57
          1247.87730	         7.67366e+57
          1248.68360	         6.92538e+57
          1249.48990	         1.03416e+58
          1250.29620	         1.26271e+58
          1251.10250	         1.02376e+58
          1251.90880	         6.56993e+57
          1252.71510	         5.83309e+57
          1253.52140	         4.99689e+57
          1254.32770	         9.63664e+57
          1255.13400	         1.43386e+58
          1255.94030	         1.24027e+58
          1256.74660	         9.70062e+57
          1257.55290	         9.22349e+57
          1258.35920	         6.80511e+57
          1259.16550	         4.29869e+57
          1259.97180	         6.74645e+57
          1260.77810	         1.04488e+58
          1261.58440	         1.29279e+58
          1262.39070	         9.45144e+57
          1263.19700	         8.00225e+57
          1264.00330	         1.04148e+58
          1264.80960	         9.78812e+57
          1265.61590	         1.29961e+58
          1266.42220	         1.41930e+58
          1267.22850	         1.13823e+58
          1268.03480	         1.25536e+58
          1268.84110	         1.19251e+58
          1269.64740	         1.10317e+58
          1270.45370	         1.30517e+58
          1271.26000	         1.32238e+58
          1272.06630	         1.21405e+58
          1272.87260	         1.15802e+58
          1273.67890	         1.31992e+58
          1274.48520	         1.51320e+58
          1275.29150	         1.33487e+58
          1276.09780	         1.19498e+58
          1276.90410	         1.39054e+58
          1277.71040	         1.14171e+58
          1278.51670	         1.18534e+58
          1279.32300	         1.37858e+58
          1280.12930	         1.20843e+58
          1280.93560	         1.13548e+58
          1281.74190	         1.12636e+58
          1282.54820	         1.26124e+58
          1283.35450	         1.31730e+58
          1284.16080	         1.13833e+58
          1284.96710	         1.22265e+58
          1285.77340	         1.15431e+58
          1286.57970	         1.14374e+58
          1287.38600	         1.42785e+58
          1288.19230	         1.70392e+58
          1288.99860	         1.52167e+58
          1289.80490	         1.07077e+58
          1290.61120	         1.43606e+58
          1291.41750	         1.42998e+58
          1292.22380	         1.21578e+58
          1293.03010	         1.02142e+58
          1293.83640	         1.19388e+58
          1294.64270	         9.10265e+57
          1295.44900	         4.77874e+57
          1296.25530	         5.81175e+57
          1297.06160	         9.31169e+57
          1297.86790	         9.57108e+57
          1298.67420	         9.81303e+57
          1299.48050	         1.04311e+58
          1300.28680	         1.00374e+58
          1301.09310	         7.20297e+57
          1301.89940	         3.64205e+57
          1302.70570	         5.60308e+57
          1303.51200	         8.73062e+57
          1304.31830	         1.15473e+58
          1305.12460	         1.12473e+58
          1305.93090	         1.17608e+58
          1306.73720	         1.20841e+58
          1307.54350	         1.42571e+58
          1308.34980	         1.61661e+58
          1309.15610	         1.59845e+58
          1309.96240	         1.60458e+58
          1310.76870	         1.45062e+58
          1311.57500	         1.20857e+58
          1312.38130	         1.03514e+58
          1313.18760	         1.00603e+58
          1313.99390	         1.45986e+58
          1314.80020	         1.66365e+58
          1315.60650	         1.51102e+58
          1316.41280	         1.24468e+58
          1317.21910	         1.00137e+58
          1318.02540	         1.13398e+58
          1318.83170	         1.27285e+58
          1319.63800	         1.31687e+58
          1320.44430	         1.21553e+58
          1321.25060	         1.12301e+58
          1322.05690	         1.21876e+58
          1322.86320	         1.10419e+58
          1323.66950	         1.05311e+58
          1324.47580	         9.43405e+57
          1325.28210	         1.01058e+58
          1326.08840	         1.19494e+58
          1326.89470	         1.29741e+58
          1327.70100	         1.11038e+58
          1328.50730	         9.20160e+57
          1329.31360	         1.03218e+58
          1330.11990	         9.30646e+57
          1330.92620	         7.07282e+57
          1331.73250	         9.73783e+57
          1332.53880	         9.90028e+57
          1333.34510	         9.39509e+57
          1334.15140	         9.91274e+57
          1334.95770	         9.17305e+57
          1335.76400	         1.01056e+58
          1336.57030	         1.08628e+58
          1337.37660	         1.07527e+58
          1338.18290	         1.19629e+58
          1338.98920	         1.23023e+58
          1339.79550	         1.10375e+58
          1340.60180	         1.22038e+58
          1341.40810	         1.45601e+58
          1342.21440	         1.10654e+58
          1343.02070	         1.09183e+58
          1343.82700	         1.24392e+58
          1344.63330	         1.06022e+58
          1345.43960	         1.25351e+58
          1346.24590	         1.15702e+58
          1347.05220	         1.13832e+58
          1347.85850	         1.02084e+58
          1348.66480	         1.02774e+58
          1349.47110	         1.19700e+58
          1350.27740	         1.20131e+58
          1351.08370	         1.11645e+58
          1351.89000	         1.10471e+58
          1352.69630	         1.13552e+58
          1353.50260	         1.11378e+58
          1354.30890	         1.19217e+58
          1355.11520	         1.19502e+58
          1355.92150	         9.68405e+57
          1356.72780	         8.77467e+57
          1357.53410	         9.34037e+57
          1358.34040	         1.05830e+58
          1359.14670	         1.11046e+58
          1359.95300	         1.32591e+58
          1360.75930	         1.25648e+58
          1361.56560	         1.10509e+58
          1362.37190	         1.17216e+58
          1363.17820	         1.00504e+58
          1363.98450	         1.17542e+58
          1364.79080	         1.32401e+58
          1365.59710	         1.28555e+58
          1366.40340	         1.12046e+58
          1367.20970	         9.89800e+57
          1368.01600	         1.01044e+58
          1368.82230	         9.65032e+57
          1369.62860	         1.09056e+58
          1370.43490	         9.05072e+57
          1371.24120	         9.02761e+57
          1372.04750	         7.96441e+57
          1372.85380	         8.86058e+57
          1373.66010	         1.06595e+58
          1374.46640	         1.04917e+58
          1375.27270	         1.04503e+58
          1376.07900	         9.35786e+57
          1376.88530	         8.84316e+57
          1377.69160	         9.00073e+57
          1378.49790	         7.29619e+57
          1379.30420	         7.44742e+57
          1380.11050	         8.86134e+57
          1380.91680	         7.21250e+57
          1381.72310	         6.86531e+57
          1382.52940	         8.06653e+57
          1383.33570	         8.39028e+57
          1384.14200	         8.99407e+57
          1384.94830	         1.11895e+58
          1385.75460	         1.13201e+58
          1386.56090	         1.19369e+58
          1387.36720	         1.21472e+58
          1388.17350	         1.33425e+58
          1388.97980	         1.16339e+58
          1389.78610	         8.13382e+57
          1390.59240	         7.82976e+57
          1391.39870	         7.94943e+57
          1392.20500	         8.72479e+57
          1393.01130	         7.66392e+57
          1393.81760	         6.95747e+57
          1394.62390	         6.91011e+57
          1395.43020	         5.58562e+57
          1396.23650	         4.61448e+57
          1397.04280	         6.27938e+57
          1397.84910	         8.26574e+57
          1398.65540	         8.91176e+57
          1399.46170	         1.03618e+58
          1400.26800	         9.31411e+57
          1401.07430	         7.40658e+57
          1401.88060	         8.36275e+57
          1402.68690	         9.86257e+57
          1403.49320	         9.26905e+57
          1404.29950	         9.39080e+57
          1405.10580	         1.08147e+58
          1405.91210	         1.12528e+58
          1406.71840	         1.15897e+58
          1407.52470	         1.08817e+58
          1408.33100	         1.05266e+58
          1409.13730	         1.17692e+58
          1409.94360	         1.15347e+58
          1410.74990	         1.06457e+58
          1411.55620	         9.53008e+57
          1412.36250	         9.17041e+57
          1413.16880	         7.67653e+57
          1413.97510	         7.68947e+57
          1414.78140	         8.60703e+57
          1415.58770	         1.03960e+58
          1416.39400	         1.11397e+58
          1417.20030	         9.88383e+57
          1418.00660	         9.23373e+57
          1418.81290	         9.90074e+57
          1419.61920	         1.20632e+58
          1420.42550	         1.31414e+58
          1421.23180	         1.37143e+58
          1422.03810	         1.18520e+58
          1422.84440	         1.00844e+58
          1423.65070	         1.09170e+58
          1424.45700	         1.06334e+58
          1425.26330	         8.45753e+57
          1426.06960	         7.80083e+57
          1426.87590	         9.33953e+57
          1427.68220	         9.38631e+57
          1428.48850	         1.03782e+58
          1429.29480	         1.13408e+58
          1430.10110	         1.02514e+58
          1430.90740	         9.46274e+57
          1431.71370	         8.85129e+57
          1432.52000	         9.43914e+57
          1433.32630	         8.65682e+57
          1434.13260	         8.22791e+57
          1434.93890	         8.60843e+57
          1435.74520	         8.99013e+57
          1436.55150	         9.73208e+57
          1437.35780	         1.06174e+58
          1438.16410	         9.73762e+57
          1438.97040	         9.31432e+57
          1439.77670	         9.55840e+57
          1440.58300	         9.27807e+57
          1441.38930	         9.89410e+57
          1442.19560	         9.96463e+57
          1443.00190	         9.50105e+57
          1443.80820	         1.05339e+58
          1444.61450	         9.80638e+57
          1445.42080	         8.74825e+57
          1446.22710	         1.06427e+58
          1447.03340	         1.12055e+58
          1447.83970	         1.14914e+58
          1448.64600	         1.12659e+58
          1449.45230	         1.07715e+58
          1450.25860	         9.38667e+57
          1451.06490	         7.68118e+57
          1451.87120	         7.13789e+57
          1452.67750	         8.21972e+57
          1453.48380	         9.09559e+57
          1454.29010	         8.11849e+57
          1455.09640	         8.08095e+57
          1455.90270	         9.96386e+57
          1456.70900	         9.06457e+57
          1457.51530	         9.27233e+57
          1458.32160	         1.21504e+58
          1459.12790	         1.23711e+58
          1459.93420	         9.94203e+57
          1460.74050	         7.50024e+57
          1461.54680	         8.65626e+57
          1462.35310	         7.73745e+57
          1463.15940	         8.97407e+57
          1463.96570	         1.16872e+58
          1464.77200	         1.14857e+58
          1465.57830	         1.06354e+58
          1466.38460	         9.94249e+57
          1467.19090	         8.56150e+57
          1467.99720	         9.46681e+57
          1468.80350	         9.80817e+57
          1469.60980	         9.63395e+57
          1470.41610	         1.04993e+58
          1471.22240	         1.04091e+58
          1472.02870	         1.03762e+58
          1472.83500	         9.39437e+57
          1473.64130	         9.40023e+57
          1474.44760	         9.86925e+57
          1475.25390	         9.24528e+57
          1476.06020	         8.88317e+57
          1476.86650	         8.20451e+57
          1477.67280	         7.55364e+57
          1478.47910	         6.74065e+57
          1479.28540	         7.41167e+57
          1480.09170	         8.43621e+57
          1480.89800	         7.25645e+57
          1481.70430	         8.19812e+57
          1482.51060	         8.42289e+57
          1483.31690	         8.13141e+57
          1484.12320	         9.15897e+57
          1484.92950	         8.74646e+57
          1485.73580	         9.11734e+57
          1486.54210	         8.39256e+57
          1487.34840	         7.76299e+57
          1488.15470	         7.93894e+57
          1488.96100	         7.50641e+57
          1489.76730	         8.48698e+57
          1490.57360	         9.24925e+57
          1491.37990	         7.85896e+57
          1492.18620	         8.46524e+57
          1492.99250	         9.12798e+57
          1493.79880	         8.50232e+57
          1494.60510	         8.12685e+57
          1495.41140	         8.18585e+57
          1496.21770	         8.74149e+57
          1497.02400	         1.11563e+58
          1497.83030	         1.01414e+58
          1498.63660	         7.94103e+57
          1499.44290	         7.36966e+57
          1500.24920	         7.63549e+57
          1501.05550	         8.68712e+57
          1501.86180	         8.61602e+57
          1502.66810	         8.76360e+57
          1503.47440	         8.90419e+57
          1504.28070	         9.27858e+57
          1505.08700	         9.49674e+57
          1505.89330	         8.35971e+57
          1506.69960	         7.66094e+57
          1507.50590	         7.24114e+57
          1508.31220	         8.22636e+57
          1509.11850	         9.24891e+57
          1509.92480	         9.78799e+57
          1510.73110	         9.37708e+57
          1511.53740	         7.24410e+57
          1512.34370	         7.60864e+57
          1513.15000	         8.89272e+57
          1513.95630	         9.58483e+57
          1514.76260	         9.53346e+57
          1515.56890	         8.32396e+57
          1516.37520	         8.07959e+57
          1517.18150	         8.30630e+57
          1517.98780	         7.47868e+57
          1518.79410	         5.94104e+57
          1519.60040	         7.67810e+57
          1520.40670	         9.80939e+57
          1521.21300	         9.00857e+57
          1522.01930	         7.96776e+57
          1522.82560	         8.00538e+57
          1523.63190	         9.25368e+57
          1524.43820	         8.73127e+57
          1525.24450	         6.20922e+57
          1526.05080	         5.16388e+57
          1526.85710	         5.65402e+57
          1527.66340	         6.23957e+57
          1528.46970	         7.55291e+57
          1529.27600	         6.93426e+57
          1530.08230	         6.38158e+57
          1530.88860	         8.25890e+57
          1531.69490	         9.45962e+57
          1532.50120	         8.56555e+57
          1533.30750	         9.87109e+57
          1534.11380	         1.04255e+58
          1534.92010	         8.90701e+57
          1535.72640	         9.38626e+57
          1536.53270	         8.99438e+57
          1537.33900	         7.57236e+57
          1538.14530	         9.15278e+57
          1538.95160	         9.35386e+57
          1539.75790	         8.74879e+57
          1540.56420	         8.57008e+57
          1541.37050	         7.84593e+57
          1542.17680	         7.18597e+57
          1542.98310	         7.98944e+57
          1543.78940	         8.05986e+57
          1544.59570	         7.55272e+57
          1545.40200	         8.51007e+57
          1546.20830	         1.01598e+58
          1547.01460	         1.13535e+58
          1547.82090	         1.06167e+58
          1548.62720	         1.16064e+58
          1549.43350	         1.16328e+58
          1550.23980	         1.10688e+58
          1551.04610	         1.19255e+58
          1551.85240	         1.17974e+58
          1552.65870	         1.18926e+58
          1553.46500	         1.01820e+58
          1554.27130	         9.02457e+57
          1555.07760	         8.94711e+57
          1555.88390	         8.63501e+57
          1556.69020	         8.82916e+57
          1557.49650	         8.53025e+57
          1558.30280	         8.17640e+57
          1559.10910	         8.74494e+57
          1559.91540	         8.34944e+57
          1560.72170	         8.68429e+57
          1561.52800	         8.05581e+57
          1562.33430	         7.94921e+57
          1563.14060	         8.06040e+57
          1563.94690	         7.69044e+57
          1564.75320	         7.61953e+57
          1565.55950	         7.28148e+57
          1566.36580	         7.42038e+57
          1567.17210	         9.51841e+57
          1567.97840	         8.99916e+57
          1568.78470	         7.46162e+57
          1569.59100	         7.70467e+57
          1570.39730	         8.24589e+57
          1571.20360	         6.86966e+57
          1572.00990	         6.87899e+57
          1572.81620	         8.74563e+57
          1573.62250	         1.04101e+58
          1574.42880	         9.82421e+57
          1575.23510	         8.31421e+57
          1576.04140	         9.13618e+57
          1576.84770	         9.64216e+57
          1577.65400	         9.50954e+57
          1578.46030	         9.51827e+57
          1579.26660	         9.80849e+57
          1580.07290	         8.97153e+57
          1580.87920	         7.45385e+57
          1581.68550	         7.03431e+57
          1582.49180	         7.68816e+57
          1583.29810	         7.55548e+57
          1584.10440	         8.10467e+57
          1584.91070	         8.85037e+57
          1585.71700	         9.07986e+57
          1586.52330	         9.20648e+57
          1587.32960	         8.36864e+57
          1588.13590	         8.43579e+57
          1588.94220	         8.52865e+57
          1589.74850	         9.09592e+57
          1590.55480	         9.56513e+57
          1591.36110	         8.80977e+57
          1592.16740	         8.67168e+57
          1592.97370	         8.80037e+57
          1593.78000	         9.11036e+57
          1594.58630	         9.61942e+57
          1595.39260	         8.32533e+57
          1596.19890	         7.36113e+57
          1597.00520	         8.48767e+57
          1597.81150	         7.92243e+57
          1598.61780	         7.09259e+57
          1599.42410	         8.17187e+57
          1600.23040	         8.00642e+57
          1601.03670	         8.31838e+57
          1601.84300	         7.80453e+57
          1602.64930	         8.70517e+57
          1603.45560	         8.99272e+57
          1604.26190	         8.36207e+57
          1605.06820	         8.52627e+57
          1605.87450	         7.82001e+57
          1606.68080	         8.11671e+57
          1607.48710	         6.49248e+57
          1608.29340	         5.70163e+57
          1609.09970	         6.30836e+57
          1609.90600	         7.19238e+57
          1610.71230	         7.08221e+57
          1611.51860	         7.19425e+57
          1612.32490	         7.45679e+57
          1613.13120	         7.03780e+57
          1613.93750	         7.76025e+57
          1614.74380	         8.54666e+57
          1615.55010	         8.51659e+57
          1616.35640	         8.54333e+57
          1617.16270	         9.01053e+57
          1617.96900	         1.02383e+58
          1618.77530	         9.15643e+57
          1619.58160	         9.11593e+57
          1620.38790	         8.64677e+57
          1621.19420	         8.95123e+57
          1622.00050	         9.22477e+57
          1622.80680	         9.97281e+57
          1623.61310	         9.48932e+57
          1624.41940	         8.44430e+57
          1625.22570	         8.22702e+57
          1626.03200	         7.98318e+57
          1626.83830	         8.02501e+57
          1627.64460	         6.47488e+57
          1628.45090	         6.16331e+57
          1629.25720	         8.73681e+57
          1630.06350	         8.62260e+57
          1630.86980	         6.59653e+57
          1631.67610	         7.50953e+57
          1632.48240	         7.48717e+57
          1633.28870	         7.41668e+57
          1634.09500	         8.53875e+57
          1634.90130	         1.01273e+58
          1635.70760	         9.27509e+57
          1636.51390	         7.76802e+57
          1637.32020	         7.62248e+57
          1638.12650	         8.53263e+57
          1638.93280	         9.50622e+57
          1639.73910	         9.95684e+57
          1640.54540	         1.02343e+58
          1641.35170	         8.71990e+57
          1642.15800	         8.99645e+57
          1642.96430	         8.72173e+57
          1643.77060	         8.05838e+57
          1644.57690	         7.63715e+57
          1645.38320	         7.73930e+57
          1646.18950	         6.13836e+57
          1646.99580	         8.78489e+57
          1647.80210	         8.50804e+57
          1648.60840	         6.82830e+57
          1649.41470	         7.21181e+57
          1650.22100	         7.00872e+57
          1651.02730	         7.11395e+57
          1651.83360	         6.99151e+57
          1652.63990	         7.58100e+57
          1653.44620	         9.39066e+57
          1654.25250	         8.37335e+57
          1655.05880	         7.70453e+57
          1655.86510	         8.78763e+57
          1656.67140	         8.53091e+57
          1657.47770	         8.17683e+57
          1658.28400	         8.13257e+57
          1659.09030	         7.73644e+57
          1659.89660	         9.01006e+57
          1660.70290	         1.07174e+58
          1661.50920	         1.06537e+58
          1662.31550	         8.99848e+57
          1663.12180	         9.07268e+57
          1663.92810	         9.59262e+57
          1664.73440	         1.07038e+58
          1665.54070	         1.23006e+58
          1666.34700	         1.27835e+58
          1667.15330	         1.06472e+58
          1667.95960	         9.11683e+57
          1668.76590	         7.70156e+57
          1669.57220	         6.39849e+57
          1670.37850	         7.69727e+57
          1671.18480	         8.32922e+57
          1671.99110	         7.30253e+57
          1672.79740	         6.66943e+57
          1673.60370	         6.76812e+57
          1674.41000	         7.33806e+57
          1675.21630	         7.41871e+57
          1676.02260	         6.74943e+57
          1676.82890	         6.94934e+57
          1677.63520	         6.83402e+57
          1678.44150	         7.42471e+57
          1679.24780	         8.24415e+57
          1680.05410	         7.68282e+57
          1680.86040	         6.20303e+57
          1681.66670	         7.05073e+57
          1682.47300	         8.29208e+57
          1683.27930	         8.26198e+57
          1684.08560	         8.99172e+57
          1684.89190	         8.09887e+57
          1685.69820	         5.36678e+57
          1686.50450	         5.13402e+57
          1687.31080	         7.34166e+57
          1688.11710	         7.90661e+57
          1688.92340	         6.46745e+57
          1689.72970	         6.10287e+57
          1690.53600	         6.30321e+57
          1691.34230	         7.72395e+57
          1692.14860	         8.91391e+57
          1692.95490	         8.59836e+57
          1693.76120	         7.19877e+57
          1694.56750	         6.37938e+57
          1695.37380	         8.71588e+57
          1696.18010	         1.03416e+58
          1696.98640	         9.38190e+57
          1697.79270	         7.95217e+57
          1698.59900	         8.49542e+57
          1699.40530	         7.02071e+57
          1700.21160	         6.00826e+57
          1701.01790	         7.22704e+57
          1701.82420	         7.59853e+57
          1702.63050	         8.29474e+57
          1703.43680	         8.96743e+57
          1704.24310	         8.72809e+57
          1705.04940	         7.75343e+57
          1705.85570	         7.29874e+57
          1706.66200	         8.25462e+57
          1707.46830	         8.54285e+57
          1708.27460	         7.28723e+57
          1709.08090	         6.44282e+57
          1709.88720	         6.46352e+57
          1710.69350	         7.07783e+57
          1711.49980	         7.67598e+57
          1712.30610	         7.36284e+57
          1713.11240	         8.19895e+57
          1713.91870	         7.46920e+57
          1714.72500	         7.66763e+57
          1715.53130	         8.40294e+57
          1716.33760	         7.69667e+57
          1717.14390	         6.64367e+57
          1717.95020	         8.02137e+57
          1718.75650	         8.68180e+57
          1719.56280	         8.52225e+57
          1720.36910	         7.35358e+57
          1721.17540	         6.86835e+57
          1721.98170	         6.03525e+57
          1722.78800	         7.11419e+57
          1723.59430	         7.46636e+57
          1724.40060	         6.80674e+57
          1725.20690	         7.66157e+57
          1726.01320	         7.47232e+57
          1726.81950	         7.54698e+57
          1727.62580	         7.84490e+57
          1728.43210	         6.49875e+57
          1729.23840	         7.67177e+57
          1730.04470	         9.35342e+57
          1730.85100	         8.85854e+57
          1731.65730	         8.17716e+57
          1732.46360	         8.16490e+57
          1733.26990	         7.25147e+57
          1734.07620	         6.99632e+57
          1734.88250	         8.03493e+57
          1735.68880	         8.29547e+57
          1736.49510	         8.68674e+57
          1737.30140	         8.35950e+57
          1738.10770	         6.52310e+57
          1738.91400	         7.49425e+57
          1739.72030	         8.20274e+57
          1740.52660	         6.20296e+57
          1741.33290	         5.75152e+57
          1742.13920	         6.43862e+57
          1742.94550	         6.96736e+57
          1743.75180	         7.28618e+57
          1744.55810	         7.23616e+57
          1745.36440	         8.26423e+57
          1746.17070	         6.40562e+57
          1746.97700	         5.29371e+57
          1747.78330	         6.87109e+57
          1748.58960	         7.33465e+57
          1749.39590	         7.09225e+57
          1750.20220	         6.30906e+57
          1751.00850	         5.01557e+57
          1751.81480	         6.04588e+57
          1752.62110	         6.19577e+57
          1753.42740	         7.04521e+57
          1754.23370	         6.60717e+57
          1755.04000	         5.84236e+57
          1755.84630	         7.31385e+57
          1756.65260	         9.07593e+57
          1757.45890	         8.65723e+57
          1758.26520	         7.09142e+57
          1759.07150	         8.68224e+57
          1759.87780	         7.83123e+57
          1760.68410	         7.09821e+57
          1761.49040	         7.41871e+57
          1762.29670	         6.17292e+57
          1763.10300	         7.56353e+57
          1763.90930	         8.08491e+57
          1764.71560	         7.03769e+57
          1765.52190	         6.47801e+57
          1766.32820	         9.39333e+57
          1767.13450	         9.39414e+57
          1767.94080	         7.11345e+57
          1768.74710	         6.35908e+57
          1769.55340	         6.98952e+57
          1770.35970	         6.82541e+57
          1771.16600	         7.54042e+57
          1771.97230	         8.69315e+57
          1772.77860	         8.05036e+57
          1773.58490	         6.48098e+57
          1774.39120	         5.48779e+57
          1775.19750	         5.19410e+57
          1776.00380	         6.36425e+57
          1776.81010	         7.04419e+57
          1777.61640	         6.76331e+57
          1778.42270	         7.16724e+57
          1779.22900	         7.06971e+57
          1780.03530	         7.10320e+57
          1780.84160	         7.56181e+57
          1781.64790	         8.51725e+57
          1782.45420	         7.36252e+57
          1783.26050	         5.94132e+57
          1784.06680	         6.68603e+57
          1784.87310	         7.24423e+57
          1785.67940	         6.76367e+57
          1786.48570	         7.19081e+57
          1787.29200	         6.67461e+57
          1788.09830	         6.48780e+57
          1788.90460	         5.96888e+57
          1789.71090	         5.51523e+57
          1790.51720	         5.25925e+57
          1791.32350	         7.24479e+57
          1792.12980	         8.91579e+57
          1792.93610	         7.78942e+57
          1793.74240	         7.12807e+57
          1794.54870	         7.20810e+57
          1795.35500	         7.38584e+57
          1796.16130	         7.46354e+57
          1796.96760	         7.16537e+57
          1797.77390	         7.93889e+57
          1798.58020	         8.22120e+57
          1799.38650	         6.95565e+57
          1800.19280	         7.08190e+57
          1800.99910	         7.39850e+57
          1801.80540	         6.71228e+57
          1802.61170	         8.73654e+57
          1803.41800	         8.94622e+57
          1804.22430	         6.66451e+57
          1805.03060	         6.36457e+57
          1805.83690	         7.56086e+57
          1806.64320	         7.77217e+57
          1807.44950	         8.83586e+57
          1808.25580	         8.63709e+57
          1809.06210	         8.80378e+57
          1809.86840	         7.19036e+57
          1810.67470	         6.82774e+57
          1811.48100	         8.07026e+57
          1812.28730	         7.79460e+57
          1813.09360	         7.28059e+57
          1813.89990	         7.94177e+57
          1814.70620	         7.91777e+57
          1815.51250	         8.32691e+57
          1816.31880	         8.40577e+57
          1817.12510	         7.22189e+57
          1817.93140	         6.60723e+57
          1818.73770	         6.37793e+57
          1819.54400	         8.90475e+57
          1820.35030	         9.13961e+57
          1821.15660	         6.21771e+57
          1821.96290	         5.93746e+57
          1822.76920	         7.37922e+57
          1823.57550	         7.97965e+57
          1824.38180	         7.00417e+57
          1825.18810	         7.77014e+57
          1825.99440	         8.34828e+57
          1826.80070	         7.56549e+57
          1827.60700	         6.46090e+57
          1828.41330	         5.83291e+57
          1829.21960	         6.66744e+57
          1830.02590	         7.54003e+57
          1830.83220	         7.45566e+57
          1831.63850	         7.40869e+57
          1832.44480	         7.15032e+57
          1833.25110	         8.22182e+57
          1834.05740	         8.48625e+57
          1834.86370	         6.71743e+57
          1835.67000	         5.57828e+57
          1836.47630	         7.93982e+57
          1837.28260	         8.70588e+57
          1838.08890	         8.76815e+57
          1838.89520	         8.62927e+57
          1839.70150	         6.83720e+57
          1840.50780	         6.68003e+57
          1841.31410	         6.35845e+57
          1842.12040	         6.19493e+57
          1842.92670	         7.31289e+57
          1843.73300	         6.89735e+57
          1844.53930	         6.72441e+57
          1845.34560	         7.39616e+57
          1846.15190	         7.21614e+57
          1846.95820	         7.25548e+57
          1847.76450	         7.30950e+57
          1848.57080	         7.05050e+57
          1849.37710	         6.45692e+57
          1850.18340	         8.10352e+57
          1850.98970	         9.30441e+57
          1851.79600	         9.25881e+57
          1852.60230	         8.04451e+57
          1853.40860	         7.26244e+57
          1854.21490	         7.40648e+57
          1855.02120	         5.91941e+57
          1855.82750	         5.66212e+57
          1856.63380	         7.77112e+57
          1857.44010	         7.85719e+57
          1858.24640	         7.65023e+57
          1859.05270	         7.56833e+57
          1859.85900	         5.22186e+57
          1860.66530	         6.02851e+57
          1861.47160	         8.03489e+57
          1862.27790	         8.59563e+57
          1863.08420	         8.02949e+57
          1863.89050	         8.13666e+57
          1864.69680	         7.50749e+57
          1865.50310	         7.96818e+57
          1866.30940	         7.08984e+57
          1867.11570	         6.19586e+57
          1867.92200	         7.20704e+57
          1868.72830	         6.88349e+57
          1869.53460	         6.33555e+57
          1870.34090	         7.07862e+57
          1871.14720	         7.81925e+57
          1871.95350	         8.17521e+57
          1872.75980	         7.37009e+57
          1873.56610	         6.56066e+57
          1874.37240	         5.73312e+57
          1875.17870	         6.59632e+57
          1875.98500	         6.90413e+57
          1876.79130	         7.29794e+57
          1877.59760	         6.66806e+57
          1878.40390	         6.25132e+57
          1879.21020	         7.40447e+57
          1880.01650	         8.46297e+57
          1880.82280	         9.58460e+57
          1881.62910	         8.63196e+57
          1882.43540	         1.00881e+58
          1883.24170	         7.86450e+57
          1884.04800	         6.03568e+57
          1884.85430	         7.52556e+57
          1885.66060	         7.84572e+57
          1886.46690	         7.53566e+57
          1887.27320	         6.73303e+57
          1888.07950	         7.05445e+57
          1888.88580	         8.03335e+57
          1889.69210	         9.43877e+57
          1890.49840	         8.18138e+57
          1891.30470	         7.45396e+57
          1892.11100	         7.79887e+57
          1892.91730	         6.68781e+57
          1893.72360	         6.68381e+57
          1894.52990	         7.52872e+57
          1895.33620	         9.32572e+57
          1896.14250	         6.76821e+57
          1896.94880	         5.06674e+57
          1897.75510	         4.08514e+57
          1898.56140	         5.94518e+57
          1899.36770	         9.44176e+57
          1900.17400	         6.86108e+57
          1900.98030	         5.50277e+57
          1901.78660	         6.24435e+57
          1902.59290	         6.86049e+57
          1903.39920	         8.57334e+57
          1904.20550	         8.44569e+57
          1905.01180	         8.67316e+57
          1905.81810	         1.05409e+58
          1906.62440	         1.19800e+58
          1907.43070	         1.43614e+58
          1908.23700	         1.61163e+58
          1909.04330	         1.36998e+58
          1909.84960	         1.12273e+58
          1910.65590	         9.98867e+57
          1911.46220	         8.91603e+57
          1912.26850	         7.35793e+57
          1913.07480	         6.06781e+57
          1913.88110	         5.08967e+57
          1914.68740	         5.27797e+57
          1915.49370	         5.08770e+57
          1916.30000	         6.00333e+57
          1917.10630	         7.04043e+57
          1917.91260	         7.13933e+57
          1918.71890	         6.42228e+57
          1919.52520	         5.48557e+57
          1920.33150	         5.91356e+57
          1921.13780	         6.57706e+57
          1921.94410	         7.85273e+57
          1922.75040	         8.25226e+57
          1923.55670	         7.53000e+57
          1924.36300	         7.65549e+57
          1925.16930	         6.41900e+57
          1925.97560	         4.96933e+57
          1926.78190	         4.19495e+57
          1927.58820	         5.64918e+57
          1928.39450	         6.45854e+57
          1929.20080	         6.03429e+57
          1930.00710	         7.15187e+57
          1930.81340	         8.79122e+57
          1931.61970	         8.09270e+57
          1932.42600	         8.15554e+57
          1933.23230	         8.44119e+57
          1934.03860	         6.58436e+57
          1934.84490	         5.60099e+57
          1935.65120	         6.72447e+57
          1936.45750	         8.08851e+57
          1937.26380	         7.32879e+57
          1938.07010	         5.83205e+57
          1938.87640	         6.27731e+57
          1939.68270	         7.81176e+57
          1940.48900	         8.33843e+57
          1941.29530	         7.95958e+57
          1942.10160	         7.74600e+57
          1942.90790	         7.53767e+57
          1943.71420	         6.76417e+57
          1944.52050	         6.46554e+57
          1945.32680	         5.84713e+57
          1946.13310	         6.15183e+57
          1946.93940	         7.42584e+57
          1947.74570	         7.61636e+57
          1948.55200	         6.91332e+57
          1949.35830	         5.51017e+57
          1950.16460	         6.36233e+57
          1950.97090	         7.02989e+57
          1951.77720	         7.91586e+57
          1952.58350	         8.44553e+57
          1953.38980	         6.73749e+57
          1954.19610	         5.11198e+57
          1955.00240	         4.88313e+57
          1955.80870	         5.73593e+57
          1956.61500	         5.99699e+57
          1957.42130	         6.09665e+57
          1958.22760	         6.18617e+57
          1959.03390	         6.64917e+57
          1959.84020	         6.89984e+57
          1960.64650	         6.78571e+57
          1961.45280	         6.51413e+57
          1962.25910	         6.13572e+57
          1963.06540	         5.68798e+57
          1963.87170	         5.86713e+57
          1964.67800	         7.50173e+57
          1965.48430	         6.55631e+57
          1966.29060	         6.49692e+57
          1967.09690	         7.94674e+57
          1967.90320	         6.07686e+57
          1968.70950	         4.92520e+57
          1969.51580	         4.77766e+57
          1970.32210	         7.04849e+57
          1971.12840	         5.89683e+57
          1971.93470	         4.22987e+57
          1972.74100	         5.04810e+57
          1973.54730	         6.52261e+57
          1974.35360	         7.09819e+57
          1975.15990	         8.07942e+57
          1975.96620	         6.92442e+57
          1976.77250	         6.79854e+57
          1977.57880	         7.08175e+57
          1978.38510	         6.33921e+57
          1979.19140	         7.66780e+57
          1979.99770	         8.09056e+57
          1980.80400	         8.09024e+57
          1981.61030	         7.04034e+57
          1982.41660	         5.16501e+57
          1983.22290	         5.10179e+57
          1984.02920	         6.54166e+57
          1984.83550	         5.98365e+57
          1985.64180	         5.88457e+57
          1986.44810	         7.15776e+57
          1987.25440	         7.16553e+57
          1988.06070	         6.03592e+57
          1988.86700	         5.60380e+57
          1989.67330	         7.47991e+57
          1990.47960	         7.74039e+57
          1991.28590	         7.41027e+57
          1992.09220	         6.70523e+57
          1992.89850	         5.67450e+57
          1993.70480	         4.48570e+57
          1994.51110	         4.22534e+57
          1995.31740	         4.75619e+57
          1996.12370	         5.36130e+57
          1996.93000	         6.59267e+57
          1997.73630	         7.02529e+57
          1998.54260	         7.10929e+57
          1999.34890	         7.69531e+57
          2000.15520	         7.46896e+57
          2000.96150	         6.96402e+57
          2001.76780	         6.09960e+57
          2002.57410	         5.75049e+57
          2003.38040	         6.68222e+57
          2004.18670	         6.63708e+57
          2004.99300	         6.04435e+57
          2005.79930	         7.58717e+57
          2006.60560	         7.10810e+57
          2007.41190	         6.72344e+57
          2008.21820	         6.23915e+57
          2009.02450	         5.63429e+57
          2009.83080	         6.02370e+57
          2010.63710	         6.70439e+57
          2011.44340	         7.71057e+57
          2012.24970	         7.42475e+57
          2013.05600	         7.55701e+57
          2013.86230	         6.44729e+57
          2014.66860	         5.37045e+57
          2015.47490	         6.09064e+57
          2016.28120	         5.79241e+57
          2017.08750	         6.30849e+57
          2017.89380	         6.68629e+57
          2018.70010	         6.38015e+57
          2019.50640	         6.43625e+57
          2020.31270	         7.59205e+57
          2021.11900	         7.01071e+57
          2021.92530	         6.77016e+57
          2022.73160	         6.39544e+57
          2023.53790	         5.93312e+57
          2024.34420	         7.24729e+57
          2025.15050	         7.12571e+57
          2025.95680	         7.00047e+57
          2026.76310	         6.26655e+57
          2027.56940	         6.18898e+57
          2028.37570	         6.56617e+57
          2029.18200	         5.91607e+57
          2029.98830	         5.88669e+57
          2030.79460	         5.85234e+57
          2031.60090	         6.20832e+57
          2032.40720	         6.21623e+57
          2033.21350	         5.41160e+57
          2034.01980	         5.54855e+57
          2034.82610	         4.98226e+57
          2035.63240	         6.07016e+57
          2036.43870	         5.85826e+57
          2037.24500	         5.88732e+57
          2038.05130	         7.04377e+57
          2038.85760	         6.39462e+57
          2039.66390	         6.22256e+57
          2040.47020	         5.30505e+57
          2041.27650	         5.45817e+57
          2042.08280	         3.89287e+57
          2042.88910	         5.05808e+57
          2043.69540	         6.84187e+57
          2044.50170	         6.03051e+57
          2045.30800	         5.84255e+57
          2046.11430	         4.15848e+57
          2046.92060	         4.45504e+57
          2047.72690	         4.95131e+57
          2048.53320	         5.56945e+57
          2049.33950	         5.05091e+57
          2050.14580	         4.43673e+57
          2050.95210	         4.98532e+57
          2051.75840	         7.07134e+57
          2052.56470	         6.12356e+57
          2053.37100	         5.62029e+57
          2054.17730	         4.87597e+57
          2054.98360	         5.09576e+57
          2055.78990	         4.35143e+57
          2056.59620	         3.71358e+57
          2057.40250	         4.42446e+57
          2058.20880	         6.07545e+57
          2059.01510	         5.62048e+57
          2059.82140	         5.47327e+57
          2060.62770	         9.09638e+57
          2061.43400	         1.59865e+58
          2062.24030	         1.48088e+58
          2063.04660	         3.70720e+57
          2063.85290	         2.48592e+57
          2064.65920	        -4.52806e+57
          2065.46550	        -1.01358e+58
          2066.27180	        -8.50039e+57
          2067.07810	         3.48650e+57
          2067.88440	         4.73530e+57
          2068.69070	         5.41676e+57
          2069.49700	         4.14552e+57
          2070.30330	         2.35108e+57
          2071.10960	         5.69560e+57
          2071.91590	         6.12045e+57
          2072.72220	         4.93009e+57
          2073.52850	         5.30420e+57
          2074.33480	         5.81372e+57
          2075.14110	         5.48269e+57
          2075.94740	         5.32989e+57
          2076.75370	         4.93264e+57
          2077.56000	         3.75376e+57
          2078.36630	         4.30453e+57
          2079.17260	         4.54227e+57
          2079.97890	         4.34161e+57
          2080.78520	         4.89499e+57
          2081.59150	         5.93534e+57
          2082.39780	         5.26175e+57
          2083.20410	         3.84394e+57
          2084.01040	         3.22921e+57
          2084.81670	         3.15993e+57
          2085.62300	         3.85888e+57
          2086.42930	         3.92867e+57
          2087.23560	         2.38707e+57
          2088.04190	         2.98625e+57
          2088.84820	         5.07798e+57
          2089.65450	         5.07879e+57
          2090.46080	         3.44514e+57
          2091.26710	         1.53742e+57
          2092.07340	         1.57445e+57
          2092.87970	         1.96657e+57
          2093.68600	        -1.35648e+57
          2094.49230	         2.24337e+57
          2095.29860	         5.33951e+57
          2096.10490	         4.06137e+57
          2096.91120	         2.16592e+57
          2097.71750	        -4.89537e+56
          2098.52380	        -2.89663e+56
          2099.33010	         1.32582e+57
          2100.13640	         1.89675e+57
          2100.94270	         5.14006e+56
          2101.74900	         4.48809e+56
          2102.55530	         2.41056e+57
          2103.36160	         1.48192e+57
          2104.16790	         1.13023e+57
          2104.97420	         6.54503e+56
          2105.78050	         1.90644e+57
          2106.58680	         1.78640e+57
          2107.39310	        -2.37977e+57
          2108.19940	         6.28365e+56
          2109.00570	         4.65936e+56
          2109.81200	         1.62791e+57
          2110.61830	         4.06143e+57
          2111.42460	         1.63185e+57
          2112.23090	         2.75622e+56
          2113.03720	         9.97579e+56
          2113.84350	        -1.78498e+57
          2114.64980	         4.56077e+57
          2115.45610	        -1.75812e+57
          2116.26240	        -5.52698e+57
          2117.06870	        -2.04124e+57
          2117.87500	        -2.32201e+57
          2118.68130	        -1.92541e+57
          2119.48760	         5.17501e+57
          2120.29390	         3.20325e+57
          2121.10020	        -3.08267e+57
          2121.90650	        -4.30746e+57
          2122.71280	         1.95881e+57
          2123.51910	         3.43131e+57
          2124.32540	         2.52153e+57
          2125.13170	         3.08341e+56
          2125.93800	         2.48959e+57
          2126.74430	         7.64976e+56
          2127.55060	        -4.79379e+57
          2128.35690	        -6.60971e+57
          2129.16320	        -5.97753e+57
          2129.96950	        -1.08803e+58
          2130.77580	        -5.20311e+57
          2131.58210	         7.81331e+57
          2132.38840	         3.63263e+57
          2133.19470	        -2.10397e+56
          2134.00100	        -1.30815e+57
          2134.80730	        -6.61831e+57
          2135.61360	         4.61963e+57
          2136.41990	         5.12351e+57
          2137.22620	         2.87561e+57
          2138.03250	         3.49904e+57
          2138.83880	        -3.39734e+57
          2139.64510	        -1.72556e+57
          2140.45140	        -6.57199e+57
          2141.25770	        -1.93078e+58
          2142.06400	        -2.63568e+57
          2142.87030	        -3.72175e+57
          2143.67660	        -2.40111e+57
          2144.48290	         8.34443e+57
          2145.28920	         1.36370e+58
          2146.09550	        -6.30239e+57
          2146.90180	        -1.32383e+58
          2147.70810	        -4.64598e+57
          2148.51440	        -1.45332e+57
          2149.32070	        -1.11093e+58
          2150.12700	        -1.21936e+58
          2150.93330	        -1.05697e+58
          2151.73960	        -1.44355e+57
          2152.54590	        -7.14212e+57
          2153.35220	        -9.48757e+57
          2154.15850	        -5.44274e+57
          2154.96480	        -3.66932e+57
          2155.77110	        -8.62080e+57
          2156.57740	        -1.42366e+58
          2157.38370	         4.18156e+57
          2158.19000	         9.46689e+57
          2158.99630	        -8.29918e+57
          2159.80260	        -1.29360e+58
          2160.60890	        -5.58584e+57
          2161.41520	        -4.97806e+57
          2162.22150	         1.01054e+56
          2163.02780	         4.60923e+56
          2163.83410	        -6.38799e+57
          2164.64040	        -6.15348e+57
          2165.44670	        -8.03046e+57
          2166.25300	        -7.02550e+57
          2167.05930	        -5.18266e+57
          2167.86560	        -1.06444e+58
          2168.67190	        -1.20780e+58
          2169.47820	        -5.02322e+57
          2170.28450	        -1.40508e+58
          2171.09080	        -4.83102e+57
          2171.89710	        -2.85428e+57
          2172.70340	         5.96717e+57
          2173.50970	        -4.33605e+57
          2174.31600	        -3.33056e+57
          2175.12230	        -2.21988e+57
          2175.92860	        -4.22386e+57
          2176.73490	        -4.42536e+57
          2177.54120	        -6.73962e+57
          2178.34750	        -5.12188e+57
          2179.15380	                 nan
          2179.96010	                 nan
          2180.76640	                 nan
          2181.57270	                 nan
          2182.37900	                 nan
          2183.18530	                 nan
          2183.99160	                 nan
          2184.79790	                 nan
          2185.60420	                 nan
          2186.41050	                 nan
          2187.21680	                 nan
          2188.02310	                 nan
          2188.82940	                 nan
          2189.63570	                 nan
          2190.44200	                 nan
          2191.24830	                 nan
          2192.05460	                 nan
          2192.86090	                 nan
          2193.66720	                 nan
          2194.47350	                 nan
          2195.27980	                 nan
          2196.08610	                 nan
          2196.89240	                 nan
          2197.69870	                 nan
          2198.50500	                 nan
          2199.31130	                 nan
          2200.11760	                 nan
          2200.92390	                 nan
          2201.73020	                 nan
          2202.53650	                 nan
          2203.34280	                 nan
          2204.14910	                 nan
          2204.95540	                 nan
          2205.76170	                 nan
          2206.56800	                 nan
          2207.37430	                 nan
          2208.18060	                 nan
          2208.98690	                 nan
          2209.79320	                 nan
          2210.59950	                 nan
          2211.40580	                 nan
          2212.21210	                 nan
          2213.01840	                 nan
          2213.82470	                 nan
          2214.63100	                 nan
          2215.43730	         0.00000e+00
