#sample_293_stacked_spectrum_rest_UV-bands_median_H-alpha_noDC.txt
#median Lum: 1.68666e+42
#Rest-frame wavelength (A) | Luminosity (erg/s/A)
#
          1110.00000	         0.00000e+00
          1110.80630	         6.80331e+59
          1111.61260	        -1.72491e+59
          1112.41890	         7.00985e+58
          1113.22520	         7.41127e+58
          1114.03150	        -2.28976e+58
          1114.83780	         1.59042e+59
          1115.64410	        -1.66287e+58
          1116.45040	        -5.72612e+58
          1117.25670	         1.89846e+58
          1118.06300	         1.48724e+59
          1118.86930	         4.24342e+58
          1119.67560	         1.04889e+59
          1120.48190	        -4.02073e+58
          1121.28820	        -1.68494e+59
          1122.09450	        -1.97883e+58
          1122.90080	         4.84778e+58
          1123.70710	         4.80356e+58
          1124.51340	         1.60955e+59
          1125.31970	        -7.50038e+56
          1126.12600	        -1.63565e+58
          1126.93230	        -4.05480e+58
          1127.73860	        -3.94407e+58
          1128.54490	        -1.06074e+58
          1129.35120	        -3.29266e+57
          1130.15750	        -2.27992e+58
          1130.96380	        -2.41913e+58
          1131.77010	         2.60908e+58
          1132.57640	         5.89087e+58
          1133.38270	         3.36702e+58
          1134.18900	         2.78305e+57
          1134.99530	         3.06761e+58
          1135.80160	         2.12640e+58
          1136.60790	        -1.23064e+58
          1137.41420	         5.69694e+57
          1138.22050	         4.94379e+58
          1139.02680	         2.35216e+58
          1139.83310	         1.59627e+58
          1140.63940	         1.67813e+58
          1141.44570	         1.76814e+57
          1142.25200	        -1.65233e+56
          1143.05830	         6.73919e+57
          1143.86460	         1.11786e+58
          1144.67090	         2.88681e+58
          1145.47720	         3.06268e+57
          1146.28350	         1.59792e+58
          1147.08980	         1.74507e+58
          1147.89610	         7.34325e+57
          1148.70240	         1.37215e+58
          1149.50870	         1.01551e+58
          1150.31500	         1.35602e+58
          1151.12130	         9.43126e+57
          1151.92760	         1.17397e+57
          1152.73390	         5.61528e+57
          1153.54020	        -4.16606e+57
          1154.34650	         1.33947e+58
          1155.15280	         1.28417e+58
          1155.95910	         9.42628e+57
          1156.76540	         5.67192e+57
          1157.57170	        -1.19700e+57
          1158.37800	         9.41030e+57
          1159.18430	        -3.17238e+57
          1159.99060	         7.33113e+57
          1160.79690	         6.12596e+57
          1161.60320	         1.01520e+58
          1162.40950	         2.70969e+58
          1163.21580	         2.75491e+58
          1164.02210	         1.37861e+58
          1164.82840	         1.32262e+57
          1165.63470	         1.13877e+58
          1166.44100	         2.83013e+58
          1167.24730	         2.29748e+58
          1168.05360	         9.03197e+57
          1168.85990	         8.09509e+57
          1169.66620	         1.01758e+58
          1170.47250	         1.31886e+58
          1171.27880	         8.17017e+57
          1172.08510	         1.87356e+58
          1172.89140	         1.98707e+58
          1173.69770	         5.97281e+57
          1174.50400	         1.48363e+58
          1175.31030	         1.73971e+58
          1176.11660	         1.99541e+58
          1176.92290	         1.20696e+58
          1177.72920	         1.05781e+58
          1178.53550	         1.08874e+58
          1179.34180	         2.08557e+57
          1180.14810	         9.92329e+56
          1180.95440	         6.69078e+57
          1181.76070	         9.32869e+57
          1182.56700	         7.99485e+57
          1183.37330	         8.94785e+57
          1184.17960	         1.15653e+58
          1184.98590	         9.49864e+57
          1185.79220	         5.45466e+57
          1186.59850	         8.88901e+57
          1187.40480	         1.24523e+58
          1188.21110	         2.10715e+58
          1189.01740	         1.63441e+58
          1189.82370	         1.12417e+58
          1190.63000	         9.74475e+57
          1191.43630	         1.50381e+58
          1192.24260	         1.13373e+58
          1193.04890	         7.05315e+57
          1193.85520	         9.81565e+57
          1194.66150	         8.99661e+57
          1195.46780	         8.33381e+57
          1196.27410	         1.32201e+58
          1197.08040	         8.23935e+57
          1197.88670	         9.50835e+57
          1198.69300	         1.21329e+58
          1199.49930	         1.65058e+58
          1200.30560	         1.43763e+58
          1201.11190	         1.08865e+58
          1201.91820	         1.15367e+58
          1202.72450	         8.09700e+57
          1203.53080	         1.13613e+58
          1204.33710	         8.07789e+57
          1205.14340	         9.94609e+57
          1205.94970	         8.53891e+57
          1206.75600	         4.92638e+57
          1207.56230	         5.06000e+57
          1208.36860	         7.47937e+57
          1209.17490	         4.96090e+57
          1209.98120	         9.95174e+57
          1210.78750	         1.19105e+58
          1211.59380	         1.04757e+58
          1212.40010	         1.44826e+58
          1213.20640	         1.59411e+58
          1214.01270	         1.77314e+58
          1214.81900	         2.46129e+58
          1215.62530	         4.47942e+58
          1216.43160	         8.74740e+58
          1217.23790	         1.46028e+59
          1218.04420	         1.12512e+59
          1218.85050	         8.67050e+58
          1219.65680	         6.02710e+58
          1220.46310	         3.41920e+58
          1221.26940	         2.31775e+58
          1222.07570	         1.40503e+58
          1222.88200	         1.19020e+58
          1223.68830	         8.66922e+57
          1224.49460	         7.80392e+57
          1225.30090	         5.57685e+57
          1226.10720	         5.56526e+57
          1226.91350	         7.02210e+57
          1227.71980	         8.33103e+57
          1228.52610	         1.42434e+58
          1229.33240	         1.38346e+58
          1230.13870	         1.03732e+58
          1230.94500	         9.47938e+57
          1231.75130	         7.23849e+57
          1232.55760	         6.55703e+57
          1233.36390	         8.07088e+57
          1234.17020	         7.70420e+57
          1234.97650	         4.97590e+57
          1235.78280	         8.51167e+57
          1236.58910	         1.15939e+58
          1237.39540	         1.19972e+58
          1238.20170	         1.11111e+58
          1239.00800	         1.17477e+58
          1239.81430	         1.27221e+58
          1240.62060	         9.61952e+57
          1241.42690	         9.56841e+57
          1242.23320	         9.35234e+57
          1243.03950	         8.00986e+57
          1243.84580	         1.13770e+58
          1244.65210	         1.12883e+58
          1245.45840	         1.06172e+58
          1246.26470	         1.19940e+58
          1247.07100	         7.01476e+57
          1247.87730	         5.44767e+57
          1248.68360	         2.43075e+57
          1249.48990	         8.02892e+57
          1250.29620	         9.30901e+57
          1251.10250	         6.07225e+57
          1251.90880	         5.57478e+57
          1252.71510	         5.24815e+57
          1253.52140	         6.30092e+57
          1254.32770	         9.59056e+57
          1255.13400	         1.19251e+58
          1255.94030	         1.09632e+58
          1256.74660	         8.66639e+57
          1257.55290	         6.73421e+57
          1258.35920	         5.97733e+57
          1259.16550	         5.10327e+57
          1259.97180	         6.30717e+57
          1260.77810	         7.68024e+57
          1261.58440	         1.02747e+58
          1262.39070	         7.25457e+57
          1263.19700	         7.97017e+57
          1264.00330	         9.34511e+57
          1264.80960	         9.42772e+57
          1265.61590	         1.00484e+58
          1266.42220	         1.03746e+58
          1267.22850	         1.20524e+58
          1268.03480	         1.45023e+58
          1268.84110	         1.30448e+58
          1269.64740	         1.26660e+58
          1270.45370	         1.29174e+58
          1271.26000	         1.23179e+58
          1272.06630	         1.52986e+58
          1272.87260	         1.26694e+58
          1273.67890	         9.89106e+57
          1274.48520	         1.06073e+58
          1275.29150	         1.19245e+58
          1276.09780	         1.16343e+58
          1276.90410	         1.33659e+58
          1277.71040	         1.38004e+58
          1278.51670	         1.41431e+58
          1279.32300	         1.43821e+58
          1280.12930	         1.47648e+58
          1280.93560	         1.28979e+58
          1281.74190	         1.16656e+58
          1282.54820	         1.17268e+58
          1283.35450	         1.09381e+58
          1284.16080	         1.16753e+58
          1284.96710	         1.37692e+58
          1285.77340	         1.29949e+58
          1286.57970	         1.16741e+58
          1287.38600	         1.41562e+58
          1288.19230	         1.75173e+58
          1288.99860	         1.59638e+58
          1289.80490	         1.11229e+58
          1290.61120	         1.04983e+58
          1291.41750	         1.12067e+58
          1292.22380	         1.21182e+58
          1293.03010	         1.13587e+58
          1293.83640	         1.06983e+58
          1294.64270	         1.02240e+58
          1295.44900	         6.67731e+57
          1296.25530	         7.22562e+57
          1297.06160	         1.02763e+58
          1297.86790	         1.02018e+58
          1298.67420	         8.84642e+57
          1299.48050	         1.11912e+58
          1300.28680	         1.16253e+58
          1301.09310	         8.26841e+57
          1301.89940	         5.26455e+57
          1302.70570	         5.80996e+57
          1303.51200	         7.13341e+57
          1304.31830	         9.30394e+57
          1305.12460	         1.12848e+58
          1305.93090	         1.12838e+58
          1306.73720	         1.16015e+58
          1307.54350	         1.38123e+58
          1308.34980	         1.50916e+58
          1309.15610	         1.69633e+58
          1309.96240	         1.71368e+58
          1310.76870	         1.36102e+58
          1311.57500	         1.29318e+58
          1312.38130	         1.13055e+58
          1313.18760	         1.27640e+58
          1313.99390	         1.57240e+58
          1314.80020	         1.63494e+58
          1315.60650	         1.57434e+58
          1316.41280	         1.50093e+58
          1317.21910	         1.23799e+58
          1318.02540	         1.22009e+58
          1318.83170	         1.23725e+58
          1319.63800	         1.14742e+58
          1320.44430	         1.12733e+58
          1321.25060	         1.23562e+58
          1322.05690	         1.21977e+58
          1322.86320	         1.22311e+58
          1323.66950	         1.21473e+58
          1324.47580	         1.08723e+58
          1325.28210	         1.05357e+58
          1326.08840	         1.21385e+58
          1326.89470	         1.18957e+58
          1327.70100	         1.05666e+58
          1328.50730	         8.15585e+57
          1329.31360	         7.76511e+57
          1330.11990	         9.64691e+57
          1330.92620	         8.22486e+57
          1331.73250	         1.01385e+58
          1332.53880	         1.00393e+58
          1333.34510	         8.32112e+57
          1334.15140	         9.27606e+57
          1334.95770	         9.28219e+57
          1335.76400	         1.02630e+58
          1336.57030	         1.09604e+58
          1337.37660	         9.15422e+57
          1338.18290	         1.07613e+58
          1338.98920	         1.23449e+58
          1339.79550	         1.08638e+58
          1340.60180	         1.11842e+58
          1341.40810	         1.23237e+58
          1342.21440	         1.23226e+58
          1343.02070	         1.39262e+58
          1343.82700	         1.44427e+58
          1344.63330	         1.25222e+58
          1345.43960	         1.24134e+58
          1346.24590	         1.15783e+58
          1347.05220	         1.00988e+58
          1347.85850	         1.04076e+58
          1348.66480	         1.21250e+58
          1349.47110	         1.33973e+58
          1350.27740	         1.32109e+58
          1351.08370	         1.20022e+58
          1351.89000	         1.14934e+58
          1352.69630	         1.17282e+58
          1353.50260	         1.20865e+58
          1354.30890	         1.26122e+58
          1355.11520	         1.14342e+58
          1355.92150	         1.10070e+58
          1356.72780	         1.13234e+58
          1357.53410	         1.01010e+58
          1358.34040	         9.63203e+57
          1359.14670	         9.07694e+57
          1359.95300	         9.77595e+57
          1360.75930	         1.06728e+58
          1361.56560	         1.02955e+58
          1362.37190	         1.09757e+58
          1363.17820	         1.08591e+58
          1363.98450	         1.09407e+58
          1364.79080	         1.20184e+58
          1365.59710	         1.26706e+58
          1366.40340	         1.02605e+58
          1367.20970	         8.25281e+57
          1368.01600	         7.49670e+57
          1368.82230	         8.99629e+57
          1369.62860	         1.16600e+58
          1370.43490	         1.01642e+58
          1371.24120	         9.15258e+57
          1372.04750	         8.69132e+57
          1372.85380	         1.05534e+58
          1373.66010	         1.10812e+58
          1374.46640	         1.02806e+58
          1375.27270	         1.12756e+58
          1376.07900	         9.70349e+57
          1376.88530	         8.49720e+57
          1377.69160	         7.71716e+57
          1378.49790	         7.31765e+57
          1379.30420	         7.12538e+57
          1380.11050	         8.47609e+57
          1380.91680	         9.30517e+57
          1381.72310	         7.75910e+57
          1382.52940	         8.17878e+57
          1383.33570	         8.46816e+57
          1384.14200	         9.64338e+57
          1384.94830	         1.00921e+58
          1385.75460	         9.85393e+57
          1386.56090	         1.03647e+58
          1387.36720	         1.06140e+58
          1388.17350	         1.19295e+58
          1388.97980	         1.08833e+58
          1389.78610	         8.86938e+57
          1390.59240	         7.40767e+57
          1391.39870	         7.08075e+57
          1392.20500	         8.26221e+57
          1393.01130	         7.88880e+57
          1393.81760	         7.21498e+57
          1394.62390	         8.30174e+57
          1395.43020	         7.59749e+57
          1396.23650	         7.06473e+57
          1397.04280	         8.05669e+57
          1397.84910	         8.57487e+57
          1398.65540	         8.30662e+57
          1399.46170	         9.29828e+57
          1400.26800	         9.27061e+57
          1401.07430	         8.03294e+57
          1401.88060	         8.43089e+57
          1402.68690	         1.00175e+58
          1403.49320	         1.04694e+58
          1404.29950	         1.00511e+58
          1405.10580	         1.17104e+58
          1405.91210	         1.27585e+58
          1406.71840	         1.11407e+58
          1407.52470	         1.15023e+58
          1408.33100	         1.10044e+58
          1409.13730	         1.05602e+58
          1409.94360	         1.03675e+58
          1410.74990	         1.11451e+58
          1411.55620	         9.87937e+57
          1412.36250	         8.89636e+57
          1413.16880	         8.62291e+57
          1413.97510	         9.21388e+57
          1414.78140	         8.36729e+57
          1415.58770	         1.01257e+58
          1416.39400	         1.04357e+58
          1417.20030	         1.04656e+58
          1418.00660	         9.03944e+57
          1418.81290	         1.03874e+58
          1419.61920	         1.12269e+58
          1420.42550	         1.11165e+58
          1421.23180	         1.12296e+58
          1422.03810	         1.24281e+58
          1422.84440	         1.24365e+58
          1423.65070	         1.39887e+58
          1424.45700	         1.28101e+58
          1425.26330	         9.02604e+57
          1426.06960	         9.39708e+57
          1426.87590	         1.05300e+58
          1427.68220	         1.04683e+58
          1428.48850	         1.08499e+58
          1429.29480	         1.15614e+58
          1430.10110	         1.06243e+58
          1430.90740	         8.94967e+57
          1431.71370	         8.69696e+57
          1432.52000	         8.02088e+57
          1433.32630	         7.70467e+57
          1434.13260	         7.49666e+57
          1434.93890	         8.26839e+57
          1435.74520	         9.40515e+57
          1436.55150	         9.70401e+57
          1437.35780	         8.41728e+57
          1438.16410	         8.45746e+57
          1438.97040	         9.34303e+57
          1439.77670	         9.68458e+57
          1440.58300	         9.73248e+57
          1441.38930	         9.63137e+57
          1442.19560	         8.98911e+57
          1443.00190	         9.14214e+57
          1443.80820	         1.01055e+58
          1444.61450	         8.98679e+57
          1445.42080	         8.50504e+57
          1446.22710	         1.04534e+58
          1447.03340	         1.07680e+58
          1447.83970	         1.10645e+58
          1448.64600	         1.13125e+58
          1449.45230	         1.11736e+58
          1450.25860	         1.05451e+58
          1451.06490	         9.73517e+57
          1451.87120	         8.44320e+57
          1452.67750	         7.52922e+57
          1453.48380	         8.97873e+57
          1454.29010	         8.31485e+57
          1455.09640	         6.75022e+57
          1455.90270	         8.01552e+57
          1456.70900	         9.31810e+57
          1457.51530	         9.89783e+57
          1458.32160	         1.14465e+58
          1459.12790	         1.14628e+58
          1459.93420	         9.50843e+57
          1460.74050	         8.46669e+57
          1461.54680	         8.85213e+57
          1462.35310	         8.03303e+57
          1463.15940	         9.65261e+57
          1463.96570	         1.08236e+58
          1464.77200	         1.21363e+58
          1465.57830	         1.04772e+58
          1466.38460	         8.12735e+57
          1467.19090	         8.40889e+57
          1467.99720	         9.33735e+57
          1468.80350	         9.41570e+57
          1469.60980	         8.83120e+57
          1470.41610	         9.65029e+57
          1471.22240	         8.40896e+57
          1472.02870	         7.81618e+57
          1472.83500	         8.74782e+57
          1473.64130	         9.05684e+57
          1474.44760	         9.08060e+57
          1475.25390	         8.92843e+57
          1476.06020	         8.15221e+57
          1476.86650	         9.40381e+57
          1477.67280	         8.21418e+57
          1478.47910	         6.34630e+57
          1479.28540	         7.29072e+57
          1480.09170	         8.60759e+57
          1480.89800	         9.07025e+57
          1481.70430	         1.02004e+58
          1482.51060	         9.38631e+57
          1483.31690	         6.79535e+57
          1484.12320	         7.34008e+57
          1484.92950	         9.39309e+57
          1485.73580	         8.37571e+57
          1486.54210	         7.87685e+57
          1487.34840	         8.48901e+57
          1488.15470	         8.26478e+57
          1488.96100	         7.38491e+57
          1489.76730	         9.06416e+57
          1490.57360	         8.52852e+57
          1491.37990	         7.89484e+57
          1492.18620	         8.73764e+57
          1492.99250	         9.60854e+57
          1493.79880	         9.34964e+57
          1494.60510	         8.45705e+57
          1495.41140	         8.06309e+57
          1496.21770	         8.57814e+57
          1497.02400	         1.00501e+58
          1497.83030	         8.96639e+57
          1498.63660	         6.69365e+57
          1499.44290	         6.53883e+57
          1500.24920	         7.42318e+57
          1501.05550	         7.48035e+57
          1501.86180	         7.93367e+57
          1502.66810	         9.37593e+57
          1503.47440	         9.20443e+57
          1504.28070	         8.25093e+57
          1505.08700	         9.05307e+57
          1505.89330	         9.24992e+57
          1506.69960	         8.22379e+57
          1507.50590	         8.82537e+57
          1508.31220	         9.02673e+57
          1509.11850	         8.88245e+57
          1509.92480	         9.44003e+57
          1510.73110	         9.39338e+57
          1511.53740	         7.60121e+57
          1512.34370	         7.23919e+57
          1513.15000	         8.29226e+57
          1513.95630	         9.70338e+57
          1514.76260	         9.86928e+57
          1515.56890	         8.60917e+57
          1516.37520	         8.88851e+57
          1517.18150	         9.62206e+57
          1517.98780	         7.86685e+57
          1518.79410	         6.87745e+57
          1519.60040	         7.73033e+57
          1520.40670	         9.46141e+57
          1521.21300	         9.61326e+57
          1522.01930	         7.90751e+57
          1522.82560	         8.56942e+57
          1523.63190	         9.91411e+57
          1524.43820	         9.30721e+57
          1525.24450	         6.73752e+57
          1526.05080	         6.45498e+57
          1526.85710	         6.16748e+57
          1527.66340	         6.90947e+57
          1528.46970	         8.96310e+57
          1529.27600	         7.84444e+57
          1530.08230	         6.99556e+57
          1530.88860	         7.49165e+57
          1531.69490	         9.08045e+57
          1532.50120	         1.03123e+58
          1533.30750	         9.85268e+57
          1534.11380	         9.24379e+57
          1534.92010	         9.09984e+57
          1535.72640	         9.64445e+57
          1536.53270	         9.28551e+57
          1537.33900	         7.28622e+57
          1538.14530	         8.95761e+57
          1538.95160	         9.28768e+57
          1539.75790	         8.13824e+57
          1540.56420	         8.90911e+57
          1541.37050	         8.73573e+57
          1542.17680	         8.41950e+57
          1542.98310	         6.83215e+57
          1543.78940	         6.63075e+57
          1544.59570	         6.27228e+57
          1545.40200	         7.70298e+57
          1546.20830	         9.75260e+57
          1547.01460	         1.15489e+58
          1547.82090	         1.09845e+58
          1548.62720	         1.19745e+58
          1549.43350	         1.14279e+58
          1550.23980	         1.08535e+58
          1551.04610	         1.22995e+58
          1551.85240	         1.22663e+58
          1552.65870	         1.23034e+58
          1553.46500	         9.83706e+57
          1554.27130	         9.29257e+57
          1555.07760	         9.95354e+57
          1555.88390	         9.40611e+57
          1556.69020	         9.24278e+57
          1557.49650	         9.55142e+57
          1558.30280	         9.58837e+57
          1559.10910	         8.76924e+57
          1559.91540	         9.25356e+57
          1560.72170	         9.55360e+57
          1561.52800	         8.13992e+57
          1562.33430	         8.29459e+57
          1563.14060	         7.29383e+57
          1563.94690	         7.27466e+57
          1564.75320	         7.60794e+57
          1565.55950	         7.34717e+57
          1566.36580	         7.10454e+57
          1567.17210	         8.91086e+57
          1567.97840	         9.98100e+57
          1568.78470	         9.20034e+57
          1569.59100	         9.01220e+57
          1570.39730	         9.33132e+57
          1571.20360	         7.44487e+57
          1572.00990	         7.42552e+57
          1572.81620	         8.85891e+57
          1573.62250	         1.07722e+58
          1574.42880	         1.00715e+58
          1575.23510	         7.72175e+57
          1576.04140	         8.17168e+57
          1576.84770	         9.02962e+57
          1577.65400	         8.85610e+57
          1578.46030	         9.75294e+57
          1579.26660	         9.88792e+57
          1580.07290	         8.49292e+57
          1580.87920	         6.92952e+57
          1581.68550	         7.30982e+57
          1582.49180	         7.94751e+57
          1583.29810	         7.42952e+57
          1584.10440	         8.68655e+57
          1584.91070	         9.38894e+57
          1585.71700	         8.95604e+57
          1586.52330	         9.28507e+57
          1587.32960	         1.03513e+58
          1588.13590	         9.54680e+57
          1588.94220	         8.63439e+57
          1589.74850	         9.30469e+57
          1590.55480	         9.35537e+57
          1591.36110	         8.10838e+57
          1592.16740	         8.85553e+57
          1592.97370	         9.48017e+57
          1593.78000	         9.39980e+57
          1594.58630	         8.69706e+57
          1595.39260	         8.10293e+57
          1596.19890	         8.95012e+57
          1597.00520	         9.39034e+57
          1597.81150	         9.04156e+57
          1598.61780	         7.53368e+57
          1599.42410	         6.18805e+57
          1600.23040	         6.58072e+57
          1601.03670	         7.48694e+57
          1601.84300	         7.11723e+57
          1602.64930	         7.79517e+57
          1603.45560	         8.26695e+57
          1604.26190	         7.88730e+57
          1605.06820	         7.27992e+57
          1605.87450	         7.18560e+57
          1606.68080	         7.28817e+57
          1607.48710	         6.20600e+57
          1608.29340	         5.86437e+57
          1609.09970	         6.07679e+57
          1609.90600	         7.38622e+57
          1610.71230	         7.30133e+57
          1611.51860	         6.92678e+57
          1612.32490	         6.77784e+57
          1613.13120	         7.79215e+57
          1613.93750	         7.12523e+57
          1614.74380	         8.38916e+57
          1615.55010	         9.00267e+57
          1616.35640	         8.74952e+57
          1617.16270	         1.06861e+58
          1617.96900	         1.10149e+58
          1618.77530	         9.01154e+57
          1619.58160	         8.96293e+57
          1620.38790	         8.81326e+57
          1621.19420	         9.43855e+57
          1622.00050	         8.57464e+57
          1622.80680	         8.56518e+57
          1623.61310	         9.19343e+57
          1624.41940	         7.80656e+57
          1625.22570	         8.86444e+57
          1626.03200	         8.76441e+57
          1626.83830	         7.86650e+57
          1627.64460	         7.99469e+57
          1628.45090	         7.08260e+57
          1629.25720	         8.00548e+57
          1630.06350	         9.31001e+57
          1630.86980	         7.22995e+57
          1631.67610	         8.53971e+57
          1632.48240	         9.08506e+57
          1633.28870	         8.26187e+57
          1634.09500	         1.03411e+58
          1634.90130	         1.12666e+58
          1635.70760	         9.10788e+57
          1636.51390	         7.50773e+57
          1637.32020	         6.65219e+57
          1638.12650	         7.74053e+57
          1638.93280	         9.09383e+57
          1639.73910	         8.52571e+57
          1640.54540	         8.91193e+57
          1641.35170	         8.49606e+57
          1642.15800	         8.70599e+57
          1642.96430	         8.48066e+57
          1643.77060	         8.60665e+57
          1644.57690	         9.03931e+57
          1645.38320	         8.40392e+57
          1646.18950	         7.55528e+57
          1646.99580	         9.21862e+57
          1647.80210	         8.15866e+57
          1648.60840	         7.44692e+57
          1649.41470	         8.21332e+57
          1650.22100	         7.11263e+57
          1651.02730	         7.80025e+57
          1651.83360	         8.29986e+57
          1652.63990	         8.16060e+57
          1653.44620	         9.37115e+57
          1654.25250	         8.73790e+57
          1655.05880	         8.19956e+57
          1655.86510	         8.59093e+57
          1656.67140	         8.16899e+57
          1657.47770	         7.61004e+57
          1658.28400	         7.64174e+57
          1659.09030	         8.28125e+57
          1659.89660	         9.01870e+57
          1660.70290	         9.25851e+57
          1661.50920	         9.56900e+57
          1662.31550	         8.73011e+57
          1663.12180	         8.07720e+57
          1663.92810	         1.04524e+58
          1664.73440	         1.16315e+58
          1665.54070	         1.22921e+58
          1666.34700	         1.20702e+58
          1667.15330	         1.11817e+58
          1667.95960	         9.25322e+57
          1668.76590	         7.24525e+57
          1669.57220	         6.71083e+57
          1670.37850	         6.86658e+57
          1671.18480	         7.55007e+57
          1671.99110	         7.72878e+57
          1672.79740	         7.36143e+57
          1673.60370	         7.22525e+57
          1674.41000	         7.37806e+57
          1675.21630	         7.51550e+57
          1676.02260	         6.37666e+57
          1676.82890	         5.83550e+57
          1677.63520	         6.30707e+57
          1678.44150	         7.05368e+57
          1679.24780	         8.41564e+57
          1680.05410	         8.15555e+57
          1680.86040	         5.47040e+57
          1681.66670	         6.64087e+57
          1682.47300	         8.57347e+57
          1683.27930	         8.90753e+57
          1684.08560	         8.63661e+57
          1684.89190	         8.04008e+57
          1685.69820	         5.57679e+57
          1686.50450	         4.78812e+57
          1687.31080	         6.13794e+57
          1688.11710	         7.53949e+57
          1688.92340	         7.51017e+57
          1689.72970	         6.05169e+57
          1690.53600	         6.45740e+57
          1691.34230	         7.07446e+57
          1692.14860	         7.72459e+57
          1692.95490	         8.21653e+57
          1693.76120	         8.18575e+57
          1694.56750	         7.69821e+57
          1695.37380	         8.15912e+57
          1696.18010	         8.24265e+57
          1696.98640	         8.20579e+57
          1697.79270	         7.53565e+57
          1698.59900	         8.02033e+57
          1699.40530	         8.30102e+57
          1700.21160	         8.80498e+57
          1701.01790	         8.85043e+57
          1701.82420	         7.24820e+57
          1702.63050	         7.91058e+57
          1703.43680	         8.40680e+57
          1704.24310	         7.92135e+57
          1705.04940	         8.28550e+57
          1705.85570	         7.94012e+57
          1706.66200	         8.64685e+57
          1707.46830	         8.41484e+57
          1708.27460	         7.14276e+57
          1709.08090	         6.25256e+57
          1709.88720	         5.84829e+57
          1710.69350	         6.46487e+57
          1711.49980	         6.91093e+57
          1712.30610	         6.86408e+57
          1713.11240	         8.38001e+57
          1713.91870	         8.71311e+57
          1714.72500	         8.73960e+57
          1715.53130	         9.07615e+57
          1716.33760	         8.87162e+57
          1717.14390	         7.24496e+57
          1717.95020	         8.58556e+57
          1718.75650	         8.99417e+57
          1719.56280	         9.22536e+57
          1720.36910	         7.27100e+57
          1721.17540	         6.47651e+57
          1721.98170	         6.07999e+57
          1722.78800	         5.42745e+57
          1723.59430	         6.12823e+57
          1724.40060	         8.32709e+57
          1725.20690	         8.15046e+57
          1726.01320	         7.35622e+57
          1726.81950	         7.44913e+57
          1727.62580	         7.46010e+57
          1728.43210	         7.58768e+57
          1729.23840	         8.11703e+57
          1730.04470	         8.33765e+57
          1730.85100	         8.47978e+57
          1731.65730	         8.05048e+57
          1732.46360	         7.68206e+57
          1733.26990	         7.79076e+57
          1734.07620	         7.02149e+57
          1734.88250	         8.14736e+57
          1735.68880	         8.43738e+57
          1736.49510	         8.59037e+57
          1737.30140	         7.75382e+57
          1738.10770	         5.91121e+57
          1738.91400	         6.91270e+57
          1739.72030	         7.74233e+57
          1740.52660	         6.29544e+57
          1741.33290	         6.23927e+57
          1742.13920	         6.12490e+57
          1742.94550	         6.09366e+57
          1743.75180	         6.55016e+57
          1744.55810	         7.19977e+57
          1745.36440	         7.96977e+57
          1746.17070	         6.42030e+57
          1746.97700	         5.44344e+57
          1747.78330	         6.55773e+57
          1748.58960	         6.61945e+57
          1749.39590	         6.15330e+57
          1750.20220	         5.36065e+57
          1751.00850	         5.84122e+57
          1751.81480	         6.82450e+57
          1752.62110	         7.25574e+57
          1753.42740	         8.13895e+57
          1754.23370	         6.81540e+57
          1755.04000	         6.69447e+57
          1755.84630	         7.13430e+57
          1756.65260	         8.48090e+57
          1757.45890	         8.13587e+57
          1758.26520	         7.28217e+57
          1759.07150	         9.17086e+57
          1759.87780	         9.09851e+57
          1760.68410	         7.83746e+57
          1761.49040	         8.18390e+57
          1762.29670	         6.42454e+57
          1763.10300	         6.88616e+57
          1763.90930	         7.35541e+57
          1764.71560	         8.06532e+57
          1765.52190	         8.41167e+57
          1766.32820	         8.59514e+57
          1767.13450	         7.65787e+57
          1767.94080	         6.87546e+57
          1768.74710	         7.44594e+57
          1769.55340	         7.03228e+57
          1770.35970	         6.33866e+57
          1771.16600	         7.30569e+57
          1771.97230	         9.08888e+57
          1772.77860	         8.67176e+57
          1773.58490	         6.68206e+57
          1774.39120	         6.09562e+57
          1775.19750	         6.29344e+57
          1776.00380	         7.46809e+57
          1776.81010	         6.84408e+57
          1777.61640	         6.57945e+57
          1778.42270	         6.52294e+57
          1779.22900	         7.11175e+57
          1780.03530	         7.32000e+57
          1780.84160	         8.05854e+57
          1781.64790	         8.60483e+57
          1782.45420	         8.18707e+57
          1783.26050	         7.68026e+57
          1784.06680	         7.30273e+57
          1784.87310	         7.49777e+57
          1785.67940	         8.57392e+57
          1786.48570	         8.17384e+57
          1787.29200	         6.92994e+57
          1788.09830	         6.70955e+57
          1788.90460	         6.17333e+57
          1789.71090	         4.83414e+57
          1790.51720	         4.70443e+57
          1791.32350	         7.06969e+57
          1792.12980	         8.68582e+57
          1792.93610	         7.21085e+57
          1793.74240	         6.86161e+57
          1794.54870	         8.39867e+57
          1795.35500	         8.53542e+57
          1796.16130	         8.05855e+57
          1796.96760	         6.61539e+57
          1797.77390	         6.06358e+57
          1798.58020	         6.05291e+57
          1799.38650	         6.76990e+57
          1800.19280	         7.15128e+57
          1800.99910	         7.13494e+57
          1801.80540	         7.65497e+57
          1802.61170	         9.29572e+57
          1803.41800	         9.05520e+57
          1804.22430	         7.74828e+57
          1805.03060	         7.02684e+57
          1805.83690	         7.26770e+57
          1806.64320	         7.43440e+57
          1807.44950	         8.05900e+57
          1808.25580	         7.60762e+57
          1809.06210	         7.95986e+57
          1809.86840	         7.34476e+57
          1810.67470	         7.22228e+57
          1811.48100	         9.11330e+57
          1812.28730	         9.56193e+57
          1813.09360	         7.55650e+57
          1813.89990	         7.37696e+57
          1814.70620	         7.64160e+57
          1815.51250	         7.89977e+57
          1816.31880	         9.12869e+57
          1817.12510	         7.90283e+57
          1817.93140	         6.44366e+57
          1818.73770	         7.39314e+57
          1819.54400	         8.70934e+57
          1820.35030	         8.57191e+57
          1821.15660	         6.22542e+57
          1821.96290	         6.83241e+57
          1822.76920	         8.55862e+57
          1823.57550	         8.10346e+57
          1824.38180	         6.79830e+57
          1825.18810	         6.92313e+57
          1825.99440	         7.91676e+57
          1826.80070	         8.21057e+57
          1827.60700	         7.34743e+57
          1828.41330	         6.34855e+57
          1829.21960	         7.25823e+57
          1830.02590	         6.89031e+57
          1830.83220	         7.79206e+57
          1831.63850	         7.96859e+57
          1832.44480	         7.23464e+57
          1833.25110	         8.11378e+57
          1834.05740	         8.19145e+57
          1834.86370	         7.03724e+57
          1835.67000	         6.59964e+57
          1836.47630	         8.24900e+57
          1837.28260	         8.98391e+57
          1838.08890	         9.25917e+57
          1838.89520	         7.60896e+57
          1839.70150	         7.92871e+57
          1840.50780	         8.25432e+57
          1841.31410	         6.37620e+57
          1842.12040	         7.58043e+57
          1842.92670	         7.83146e+57
          1843.73300	         6.73927e+57
          1844.53930	         7.35933e+57
          1845.34560	         6.75681e+57
          1846.15190	         6.86747e+57
          1846.95820	         7.05406e+57
          1847.76450	         6.97282e+57
          1848.57080	         6.79713e+57
          1849.37710	         6.78885e+57
          1850.18340	         6.95226e+57
          1850.98970	         7.92907e+57
          1851.79600	         7.75091e+57
          1852.60230	         6.20970e+57
          1853.40860	         6.64184e+57
          1854.21490	         6.74206e+57
          1855.02120	         4.95110e+57
          1855.82750	         4.03390e+57
          1856.63380	         5.74837e+57
          1857.44010	         7.79060e+57
          1858.24640	         7.56426e+57
          1859.05270	         6.62530e+57
          1859.85900	         6.05000e+57
          1860.66530	         5.17382e+57
          1861.47160	         6.16248e+57
          1862.27790	         7.04897e+57
          1863.08420	         8.06099e+57
          1863.89050	         7.88517e+57
          1864.69680	         7.55396e+57
          1865.50310	         7.34682e+57
          1866.30940	         6.45591e+57
          1867.11570	         6.71233e+57
          1867.92200	         8.10981e+57
          1868.72830	         7.44003e+57
          1869.53460	         6.43769e+57
          1870.34090	         6.70888e+57
          1871.14720	         7.47448e+57
          1871.95350	         7.02552e+57
          1872.75980	         7.40621e+57
          1873.56610	         7.30298e+57
          1874.37240	         7.13618e+57
          1875.17870	         6.75177e+57
          1875.98500	         7.00116e+57
          1876.79130	         7.11297e+57
          1877.59760	         7.11741e+57
          1878.40390	         6.82703e+57
          1879.21020	         6.12391e+57
          1880.01650	         6.54773e+57
          1880.82280	         7.95629e+57
          1881.62910	         8.80948e+57
          1882.43540	         9.49651e+57
          1883.24170	         8.17890e+57
          1884.04800	         6.99316e+57
          1884.85430	         7.44828e+57
          1885.66060	         8.47376e+57
          1886.46690	         8.82257e+57
          1887.27320	         8.43824e+57
          1888.07950	         6.69196e+57
          1888.88580	         7.20979e+57
          1889.69210	         8.46798e+57
          1890.49840	         9.19469e+57
          1891.30470	         8.40308e+57
          1892.11100	         8.43892e+57
          1892.91730	         7.46922e+57
          1893.72360	         7.50018e+57
          1894.52990	         8.41531e+57
          1895.33620	         9.03682e+57
          1896.14250	         7.51685e+57
          1896.94880	         5.81521e+57
          1897.75510	         4.75613e+57
          1898.56140	         5.92742e+57
          1899.36770	         7.87160e+57
          1900.17400	         7.21186e+57
          1900.98030	         6.01951e+57
          1901.78660	         7.80883e+57
          1902.59290	         7.73369e+57
          1903.39920	         8.64061e+57
          1904.20550	         8.71647e+57
          1905.01180	         8.38266e+57
          1905.81810	         8.84838e+57
          1906.62440	         1.14810e+58
          1907.43070	         1.43514e+58
          1908.23700	         1.48911e+58
          1909.04330	         1.36730e+58
          1909.84960	         1.18024e+58
          1910.65590	         9.48930e+57
          1911.46220	         8.68696e+57
          1912.26850	         6.89653e+57
          1913.07480	         5.23522e+57
          1913.88110	         5.54197e+57
          1914.68740	         5.40382e+57
          1915.49370	         5.28172e+57
          1916.30000	         6.14125e+57
          1917.10630	         6.93256e+57
          1917.91260	         6.57811e+57
          1918.71890	         6.43618e+57
          1919.52520	         6.28562e+57
          1920.33150	         7.05445e+57
          1921.13780	         6.99146e+57
          1921.94410	         6.98763e+57
          1922.75040	         7.39070e+57
          1923.55670	         7.50005e+57
          1924.36300	         7.20558e+57
          1925.16930	         6.23209e+57
          1925.97560	         4.85143e+57
          1926.78190	         3.86000e+57
          1927.58820	         5.51563e+57
          1928.39450	         5.58429e+57
          1929.20080	         5.71117e+57
          1930.00710	         6.71527e+57
          1930.81340	         6.79807e+57
          1931.61970	         5.56739e+57
          1932.42600	         6.76690e+57
          1933.23230	         8.04294e+57
          1934.03860	         7.05457e+57
          1934.84490	         6.11992e+57
          1935.65120	         7.54944e+57
          1936.45750	         8.24513e+57
          1937.26380	         6.92305e+57
          1938.07010	         7.76224e+57
          1938.87640	         7.20153e+57
          1939.68270	         7.28678e+57
          1940.48900	         8.06943e+57
          1941.29530	         8.19123e+57
          1942.10160	         7.11916e+57
          1942.90790	         6.48322e+57
          1943.71420	         6.35020e+57
          1944.52050	         5.29558e+57
          1945.32680	         5.26166e+57
          1946.13310	         8.24216e+57
          1946.93940	         7.98142e+57
          1947.74570	         6.66232e+57
          1948.55200	         6.03124e+57
          1949.35830	         6.58201e+57
          1950.16460	         6.65740e+57
          1950.97090	         5.33996e+57
          1951.77720	         6.74758e+57
          1952.58350	         7.89952e+57
          1953.38980	         6.88054e+57
          1954.19610	         5.18581e+57
          1955.00240	         5.24597e+57
          1955.80870	         6.01491e+57
          1956.61500	         5.90219e+57
          1957.42130	         6.30623e+57
          1958.22760	         5.84810e+57
          1959.03390	         5.85886e+57
          1959.84020	         6.73622e+57
          1960.64650	         6.46615e+57
          1961.45280	         6.36868e+57
          1962.25910	         7.10164e+57
          1963.06540	         7.40309e+57
          1963.87170	         6.50010e+57
          1964.67800	         7.69119e+57
          1965.48430	         6.97762e+57
          1966.29060	         6.51364e+57
          1967.09690	         7.70295e+57
          1967.90320	         7.61336e+57
          1968.70950	         6.63427e+57
          1969.51580	         5.67017e+57
          1970.32210	         6.70241e+57
          1971.12840	         6.15265e+57
          1971.93470	         4.50649e+57
          1972.74100	         5.02345e+57
          1973.54730	         7.25149e+57
          1974.35360	         7.14024e+57
          1975.15990	         7.48182e+57
          1975.96620	         7.72704e+57
          1976.77250	         8.37196e+57
          1977.57880	         6.61558e+57
          1978.38510	         5.88199e+57
          1979.19140	         7.18293e+57
          1979.99770	         7.87627e+57
          1980.80400	         7.38526e+57
          1981.61030	         7.50942e+57
          1982.41660	         6.92750e+57
          1983.22290	         6.67780e+57
          1984.02920	         5.47108e+57
          1984.83550	         6.52671e+57
          1985.64180	         6.53120e+57
          1986.44810	         6.92980e+57
          1987.25440	         6.05166e+57
          1988.06070	         6.06777e+57
          1988.86700	         5.87979e+57
          1989.67330	         6.25428e+57
          1990.47960	         6.14268e+57
          1991.28590	         6.06860e+57
          1992.09220	         5.35890e+57
          1992.89850	         6.08703e+57
          1993.70480	         6.46508e+57
          1994.51110	         4.98525e+57
          1995.31740	         3.86547e+57
          1996.12370	         5.07577e+57
          1996.93000	         6.37757e+57
          1997.73630	         7.07226e+57
          1998.54260	         7.43248e+57
          1999.34890	         6.96717e+57
          2000.15520	         6.46371e+57
          2000.96150	         6.39236e+57
          2001.76780	         4.98844e+57
          2002.57410	         4.49164e+57
          2003.38040	         6.90009e+57
          2004.18670	         6.90463e+57
          2004.99300	         6.14904e+57
          2005.79930	         7.86449e+57
          2006.60560	         7.09867e+57
          2007.41190	         6.89240e+57
          2008.21820	         6.54449e+57
          2009.02450	         6.21041e+57
          2009.83080	         6.24061e+57
          2010.63710	         6.20703e+57
          2011.44340	         6.25504e+57
          2012.24970	         6.70815e+57
          2013.05600	         7.26099e+57
          2013.86230	         6.55913e+57
          2014.66860	         4.75823e+57
          2015.47490	         6.13233e+57
          2016.28120	         6.24491e+57
          2017.08750	         6.16448e+57
          2017.89380	         5.54471e+57
          2018.70010	         7.31767e+57
          2019.50640	         6.28199e+57
          2020.31270	         6.83018e+57
          2021.11900	         7.39801e+57
          2021.92530	         6.89403e+57
          2022.73160	         7.12256e+57
          2023.53790	         6.94224e+57
          2024.34420	         6.52564e+57
          2025.15050	         5.62751e+57
          2025.95680	         5.65626e+57
          2026.76310	         6.20729e+57
          2027.56940	         5.48384e+57
          2028.37570	         5.31878e+57
          2029.18200	         5.24831e+57
          2029.98830	         5.91424e+57
          2030.79460	         5.73509e+57
          2031.60090	         5.85149e+57
          2032.40720	         5.81565e+57
          2033.21350	         5.77499e+57
          2034.01980	         5.71629e+57
          2034.82610	         4.92221e+57
          2035.63240	         4.83443e+57
          2036.43870	         4.64841e+57
          2037.24500	         6.86489e+57
          2038.05130	         7.19184e+57
          2038.85760	         6.10195e+57
          2039.66390	         6.50112e+57
          2040.47020	         5.10477e+57
          2041.27650	         6.40447e+57
          2042.08280	         5.04553e+57
          2042.88910	         5.54063e+57
          2043.69540	         5.20769e+57
          2044.50170	         6.10942e+57
          2045.30800	         6.12609e+57
          2046.11430	         3.39856e+57
          2046.92060	         5.11920e+57
          2047.72690	         6.31304e+57
          2048.53320	         4.81396e+57
          2049.33950	         2.75933e+57
          2050.14580	         5.31839e+57
          2050.95210	         6.38228e+57
          2051.75840	         7.29079e+57
          2052.56470	         5.50179e+57
          2053.37100	         4.43191e+57
          2054.17730	         3.59888e+57
          2054.98360	         3.76725e+57
          2055.78990	         2.89126e+57
          2056.59620	         2.99098e+57
          2057.40250	         5.43711e+57
          2058.20880	         7.36105e+57
          2059.01510	         6.19185e+57
          2059.82140	         6.39601e+57
          2060.62770	         1.00148e+58
          2061.43400	         1.50452e+58
          2062.24030	         1.14324e+58
          2063.04660	         2.73735e+57
          2063.85290	         1.28854e+57
          2064.65920	        -3.45920e+57
          2065.46550	        -8.90353e+57
          2066.27180	        -8.50589e+57
          2067.07810	         4.35264e+57
          2067.88440	         6.53292e+57
          2068.69070	         6.41304e+57
          2069.49700	         6.46448e+57
          2070.30330	         6.41835e+57
          2071.10960	         6.66807e+57
          2071.91590	         5.71475e+57
          2072.72220	         3.10095e+57
          2073.52850	         5.08725e+57
          2074.33480	         4.50571e+57
          2075.14110	         4.77683e+57
          2075.94740	         4.61438e+57
          2076.75370	         4.88276e+57
          2077.56000	         4.65636e+57
          2078.36630	         4.56322e+57
          2079.17260	         4.50373e+57
          2079.97890	         5.24966e+57
          2080.78520	         6.67718e+57
          2081.59150	         5.25045e+57
          2082.39780	         5.18934e+57
          2083.20410	         2.40023e+57
          2084.01040	         2.01745e+57
          2084.81670	         2.95578e+57
          2085.62300	         4.44902e+57
          2086.42930	         5.06920e+57
          2087.23560	         5.03598e+57
          2088.04190	         4.33798e+57
          2088.84820	         3.39767e+57
          2089.65450	         2.66186e+57
          2090.46080	         2.73077e+57
          2091.26710	         3.19401e+57
          2092.07340	         2.73941e+57
          2092.87970	         3.18513e+57
          2093.68600	         8.65461e+56
          2094.49230	         3.19909e+56
          2095.29860	         5.29029e+57
          2096.10490	         1.95353e+57
          2096.91120	         6.55333e+56
          2097.71750	         3.89964e+56
          2098.52380	         2.36527e+57
          2099.33010	         2.88850e+57
          2100.13640	         1.50115e+57
          2100.94270	         2.05878e+56
          2101.74900	         3.37361e+57
          2102.55530	         3.06930e+57
          2103.36160	         1.74197e+57
          2104.16790	         2.54101e+57
          2104.97420	         1.23530e+57
          2105.78050	         3.67138e+57
          2106.58680	         4.33778e+57
          2107.39310	        -4.69216e+56
          2108.19940	         1.47572e+57
          2109.00570	        -1.50439e+57
          2109.81200	        -1.71101e+56
          2110.61830	         6.65564e+56
          2111.42460	         1.56677e+57
          2112.23090	         1.63016e+57
          2113.03720	        -1.52253e+57
          2113.84350	         1.50390e+57
          2114.64980	         1.38364e+57
          2115.45610	        -8.60115e+56
          2116.26240	        -6.46286e+57
          2117.06870	         9.04934e+56
          2117.87500	        -1.23700e+57
          2118.68130	        -4.51536e+55
          2119.48760	         2.05499e+57
          2120.29390	         1.61931e+57
          2121.10020	        -3.17302e+57
          2121.90650	        -1.15939e+57
          2122.71280	        -1.40625e+56
          2123.51910	         3.40241e+57
          2124.32540	         2.47541e+57
          2125.13170	         2.15686e+57
          2125.93800	        -4.36815e+56
          2126.74430	        -2.89212e+57
          2127.55060	        -7.63172e+57
          2128.35690	        -4.15830e+57
          2129.16320	        -2.07890e+57
          2129.96950	        -6.98307e+57
          2130.77580	         2.72905e+56
          2131.58210	         1.65542e+57
          2132.38840	         2.08057e+57
          2133.19470	        -2.65943e+57
          2134.00100	         1.02611e+57
          2134.80730	        -2.91910e+57
          2135.61360	         1.34904e+57
          2136.41990	         4.68089e+56
          2137.22620	         7.14640e+57
          2138.03250	         9.57275e+57
          2138.83880	         6.59580e+56
          2139.64510	        -6.08546e+56
          2140.45140	        -6.35545e+57
          2141.25770	        -8.54933e+57
          2142.06400	        -9.27934e+56
          2142.87030	         2.02155e+57
          2143.67660	         9.28799e+57
          2144.48290	         2.33311e+57
          2145.28920	        -8.41526e+57
          2146.09550	        -1.16807e+58
          2146.90180	        -9.93213e+57
          2147.70810	        -3.25783e+57
          2148.51440	        -1.48283e+57
          2149.32070	        -1.28290e+57
          2150.12700	        -1.12948e+58
          2150.93330	        -7.55544e+56
          2151.73960	        -4.54383e+57
          2152.54590	         1.70746e+57
          2153.35220	         3.32953e+57
          2154.15850	        -8.99334e+56
          2154.96480	        -8.68878e+57
          2155.77110	        -3.64491e+57
          2156.57740	        -8.49211e+57
          2157.38370	        -1.18273e+57
          2158.19000	        -4.04602e+57
          2158.99630	        -2.69219e+57
          2159.80260	        -1.43441e+58
          2160.60890	        -9.32367e+57
          2161.41520	         5.75266e+57
          2162.22150	        -1.63192e+57
          2163.02780	         1.18315e+57
          2163.83410	        -4.82401e+57
          2164.64040	        -1.06713e+58
          2165.44670	        -6.31683e+57
          2166.25300	         3.85921e+57
          2167.05930	         1.69740e+57
          2167.86560	        -8.64652e+57
          2168.67190	         3.54996e+57
          2169.47820	        -7.85022e+56
          2170.28450	        -1.10007e+58
          2171.09080	         2.15076e+57
          2171.89710	        -2.37092e+57
          2172.70340	        -6.17902e+55
          2173.50970	        -4.70876e+57
          2174.31600	        -5.19445e+57
          2175.12230	        -6.39734e+56
          2175.92860	        -7.19388e+57
          2176.73490	        -1.23741e+58
          2177.54120	        -8.76507e+57
          2178.34750	        -2.13385e+57
          2179.15380	                 nan
          2179.96010	                 nan
          2180.76640	                 nan
          2181.57270	                 nan
          2182.37900	                 nan
          2183.18530	                 nan
          2183.99160	                 nan
          2184.79790	                 nan
          2185.60420	                 nan
          2186.41050	                 nan
          2187.21680	                 nan
          2188.02310	                 nan
          2188.82940	                 nan
          2189.63570	                 nan
          2190.44200	                 nan
          2191.24830	                 nan
          2192.05460	                 nan
          2192.86090	                 nan
          2193.66720	                 nan
          2194.47350	                 nan
          2195.27980	                 nan
          2196.08610	                 nan
          2196.89240	                 nan
          2197.69870	                 nan
          2198.50500	                 nan
          2199.31130	                 nan
          2200.11760	                 nan
          2200.92390	                 nan
          2201.73020	                 nan
          2202.53650	                 nan
          2203.34280	                 nan
          2204.14910	                 nan
          2204.95540	                 nan
          2205.76170	                 nan
          2206.56800	                 nan
          2207.37430	                 nan
          2208.18060	                 nan
          2208.98690	                 nan
          2209.79320	                 nan
          2210.59950	                 nan
          2211.40580	                 nan
          2212.21210	                 nan
          2213.01840	                 nan
          2213.82470	                 nan
          2214.63100	                 nan
          2215.43730	         0.00000e+00
