#sample_218_stacked_spectrum_rest_UV-bands_median_H-alpha_noDC.txt
#median Lum: 1.71529e+42
#Rest-frame wavelength (A) | Luminosity (erg/s/A)
#
          1110.00000	         0.00000e+00
          1110.80630	        -3.69035e+59
          1111.61260	         2.07482e+59
          1112.41890	         3.56225e+59
          1113.22520	        -3.75810e+58
          1114.03150	        -1.05436e+59
          1114.83780	         1.72927e+59
          1115.64410	         5.17712e+58
          1116.45040	         1.08497e+59
          1117.25670	         1.29924e+59
          1118.06300	         1.21679e+58
          1118.86930	         2.31250e+58
          1119.67560	         2.09998e+59
          1120.48190	         8.75387e+58
          1121.28820	        -3.34081e+58
          1122.09450	         2.42892e+58
          1122.90080	         2.88820e+58
          1123.70710	         3.04008e+58
          1124.51340	         7.28265e+58
          1125.31970	         4.68034e+58
          1126.12600	         6.40366e+56
          1126.93230	        -4.96004e+58
          1127.73860	        -6.56000e+58
          1128.54490	        -7.08786e+57
          1129.35120	         2.82323e+57
          1130.15750	        -3.82646e+58
          1130.96380	        -3.08989e+58
          1131.77010	         4.89918e+58
          1132.57640	         5.29229e+58
          1133.38270	         2.70782e+58
          1134.18900	        -1.14088e+58
          1134.99530	         3.69285e+58
          1135.80160	         1.10360e+58
          1136.60790	         3.41874e+58
          1137.41420	         1.30979e+58
          1138.22050	         6.57538e+57
          1139.02680	         9.24188e+57
          1139.83310	         1.77298e+58
          1140.63940	         1.28018e+58
          1141.44570	        -2.99703e+58
          1142.25200	        -4.66167e+57
          1143.05830	         7.99463e+57
          1143.86460	         1.85368e+58
          1144.67090	         4.00192e+58
          1145.47720	         4.59454e+57
          1146.28350	        -6.27644e+57
          1147.08980	         6.96631e+57
          1147.89610	         2.09900e+58
          1148.70240	         2.45039e+58
          1149.50870	         1.75593e+58
          1150.31500	         1.82503e+58
          1151.12130	         2.16760e+58
          1151.92760	         1.05927e+58
          1152.73390	         1.35218e+57
          1153.54020	         1.04800e+58
          1154.34650	         3.06734e+58
          1155.15280	         2.45790e+58
          1155.95910	         1.46058e+58
          1156.76540	         1.58822e+57
          1157.57170	        -2.15440e+56
          1158.37800	         6.60039e+56
          1159.18430	         3.09794e+57
          1159.99060	         1.81889e+58
          1160.79690	         6.61748e+57
          1161.60320	         1.99095e+58
          1162.40950	         1.82793e+58
          1163.21580	         1.32746e+58
          1164.02210	         1.63410e+58
          1164.82840	         4.38285e+57
          1165.63470	         1.97949e+58
          1166.44100	         2.58650e+58
          1167.24730	         1.83094e+58
          1168.05360	         1.16912e+58
          1168.85990	         5.05449e+57
          1169.66620	         5.01386e+57
          1170.47250	         4.61876e+57
          1171.27880	         5.73931e+57
          1172.08510	         1.27304e+58
          1172.89140	         6.58582e+57
          1173.69770	         2.83916e+57
          1174.50400	         8.34186e+57
          1175.31030	         1.37504e+58
          1176.11660	         1.62327e+58
          1176.92290	         1.81446e+58
          1177.72920	         1.45556e+58
          1178.53550	         7.79435e+57
          1179.34180	         4.60335e+57
          1180.14810	         4.94037e+57
          1180.95440	         7.61482e+57
          1181.76070	         5.77817e+57
          1182.56700	         6.44057e+57
          1183.37330	         5.20118e+57
          1184.17960	         9.02821e+57
          1184.98590	         1.06794e+58
          1185.79220	         7.41712e+57
          1186.59850	         1.08023e+58
          1187.40480	         1.20253e+58
          1188.21110	         1.88804e+58
          1189.01740	         1.07182e+58
          1189.82370	         7.04429e+57
          1190.63000	         1.20262e+58
          1191.43630	         1.82222e+58
          1192.24260	         1.19514e+58
          1193.04890	         1.52765e+58
          1193.85520	         9.55055e+57
          1194.66150	         6.68072e+57
          1195.46780	         1.20379e+58
          1196.27410	         1.30615e+58
          1197.08040	         1.10673e+58
          1197.88670	         1.06701e+58
          1198.69300	         1.19192e+58
          1199.49930	         1.40484e+58
          1200.30560	         1.14068e+58
          1201.11190	         1.53728e+58
          1201.91820	         1.13083e+58
          1202.72450	         7.43604e+57
          1203.53080	         1.61299e+58
          1204.33710	         1.06179e+58
          1205.14340	         3.84693e+57
          1205.94970	         5.99064e+57
          1206.75600	         6.22134e+57
          1207.56230	         4.16015e+57
          1208.36860	         7.02936e+57
          1209.17490	         2.73475e+57
          1209.98120	         6.91997e+57
          1210.78750	         8.29190e+57
          1211.59380	         1.04445e+58
          1212.40010	         1.75380e+58
          1213.20640	         2.06708e+58
          1214.01270	         2.04919e+58
          1214.81900	         2.27209e+58
          1215.62530	         4.50101e+58
          1216.43160	         9.18573e+58
          1217.23790	         1.49642e+59
          1218.04420	         1.21279e+59
          1218.85050	         8.84981e+58
          1219.65680	         5.47065e+58
          1220.46310	         3.37385e+58
          1221.26940	         2.32212e+58
          1222.07570	         1.14908e+58
          1222.88200	         9.33839e+57
          1223.68830	         1.07073e+58
          1224.49460	         7.02986e+57
          1225.30090	         2.94568e+57
          1226.10720	         3.18263e+57
          1226.91350	         5.93337e+57
          1227.71980	         7.33568e+57
          1228.52610	         1.49350e+58
          1229.33240	         9.22866e+57
          1230.13870	         8.33156e+57
          1230.94500	         1.10121e+58
          1231.75130	         5.73408e+57
          1232.55760	         7.09318e+57
          1233.36390	         9.34827e+57
          1234.17020	         9.74617e+57
          1234.97650	         6.27051e+57
          1235.78280	         7.10096e+57
          1236.58910	         8.52390e+57
          1237.39540	         1.04634e+58
          1238.20170	         1.13281e+58
          1239.00800	         1.27442e+58
          1239.81430	         1.58673e+58
          1240.62060	         1.30346e+58
          1241.42690	         9.27542e+57
          1242.23320	         1.34787e+58
          1243.03950	         1.07312e+58
          1243.84580	         7.69904e+57
          1244.65210	         1.18881e+58
          1245.45840	         1.36679e+58
          1246.26470	         1.05120e+58
          1247.07100	         8.19934e+57
          1247.87730	         5.25963e+57
          1248.68360	         6.44438e+57
          1249.48990	         6.66341e+57
          1250.29620	         6.98574e+57
          1251.10250	         6.08357e+57
          1251.90880	         6.35129e+57
          1252.71510	         4.75571e+57
          1253.52140	         6.31070e+57
          1254.32770	         7.57623e+57
          1255.13400	         1.01536e+58
          1255.94030	         1.14821e+58
          1256.74660	         1.21041e+58
          1257.55290	         1.26668e+58
          1258.35920	         9.83412e+57
          1259.16550	         5.63286e+57
          1259.97180	         5.23483e+57
          1260.77810	         7.83712e+57
          1261.58440	         1.20989e+58
          1262.39070	         9.28214e+57
          1263.19700	         9.73006e+57
          1264.00330	         1.29187e+58
          1264.80960	         1.35169e+58
          1265.61590	         1.28061e+58
          1266.42220	         1.03706e+58
          1267.22850	         8.39870e+57
          1268.03480	         1.30362e+58
          1268.84110	         1.57876e+58
          1269.64740	         1.46354e+58
          1270.45370	         1.32147e+58
          1271.26000	         1.29213e+58
          1272.06630	         1.37856e+58
          1272.87260	         1.34194e+58
          1273.67890	         1.35931e+58
          1274.48520	         1.31728e+58
          1275.29150	         1.29091e+58
          1276.09780	         1.02684e+58
          1276.90410	         1.42844e+58
          1277.71040	         1.45891e+58
          1278.51670	         1.26455e+58
          1279.32300	         1.53160e+58
          1280.12930	         1.38398e+58
          1280.93560	         1.14431e+58
          1281.74190	         1.24765e+58
          1282.54820	         1.40694e+58
          1283.35450	         1.06487e+58
          1284.16080	         1.06924e+58
          1284.96710	         1.43795e+58
          1285.77340	         1.03331e+58
          1286.57970	         1.08678e+58
          1287.38600	         1.50307e+58
          1288.19230	         1.74451e+58
          1288.99860	         1.49621e+58
          1289.80490	         1.14467e+58
          1290.61120	         1.42167e+58
          1291.41750	         1.50703e+58
          1292.22380	         1.07576e+58
          1293.03010	         9.95133e+57
          1293.83640	         1.15983e+58
          1294.64270	         1.02706e+58
          1295.44900	         6.02193e+57
          1296.25530	         6.71388e+57
          1297.06160	         8.97369e+57
          1297.86790	         1.02101e+58
          1298.67420	         1.16360e+58
          1299.48050	         1.06394e+58
          1300.28680	         1.01886e+58
          1301.09310	         8.52138e+57
          1301.89940	         4.96242e+57
          1302.70570	         7.50941e+57
          1303.51200	         8.53004e+57
          1304.31830	         9.55253e+57
          1305.12460	         1.15520e+58
          1305.93090	         1.40161e+58
          1306.73720	         1.47980e+58
          1307.54350	         1.51802e+58
          1308.34980	         1.52456e+58
          1309.15610	         1.67352e+58
          1309.96240	         1.73397e+58
          1310.76870	         1.50690e+58
          1311.57500	         1.19665e+58
          1312.38130	         1.22507e+58
          1313.18760	         1.44222e+58
          1313.99390	         1.54560e+58
          1314.80020	         1.61969e+58
          1315.60650	         1.54749e+58
          1316.41280	         1.23170e+58
          1317.21910	         9.75880e+57
          1318.02540	         1.03739e+58
          1318.83170	         1.15022e+58
          1319.63800	         1.22973e+58
          1320.44430	         1.17331e+58
          1321.25060	         1.29942e+58
          1322.05690	         1.30902e+58
          1322.86320	         1.28715e+58
          1323.66950	         1.25427e+58
          1324.47580	         1.14360e+58
          1325.28210	         1.09026e+58
          1326.08840	         1.18253e+58
          1326.89470	         1.39060e+58
          1327.70100	         1.17037e+58
          1328.50730	         7.93007e+57
          1329.31360	         9.06590e+57
          1330.11990	         1.02116e+58
          1330.92620	         1.02017e+58
          1331.73250	         1.12492e+58
          1332.53880	         1.08921e+58
          1333.34510	         1.05090e+58
          1334.15140	         1.04432e+58
          1334.95770	         9.16507e+57
          1335.76400	         9.80695e+57
          1336.57030	         1.10294e+58
          1337.37660	         1.11642e+58
          1338.18290	         1.10224e+58
          1338.98920	         1.23378e+58
          1339.79550	         1.22219e+58
          1340.60180	         1.31836e+58
          1341.40810	         1.48125e+58
          1342.21440	         1.12305e+58
          1343.02070	         1.14984e+58
          1343.82700	         1.32314e+58
          1344.63330	         1.43240e+58
          1345.43960	         1.50633e+58
          1346.24590	         1.13566e+58
          1347.05220	         1.27310e+58
          1347.85850	         9.81625e+57
          1348.66480	         1.16294e+58
          1349.47110	         1.38807e+58
          1350.27740	         1.28928e+58
          1351.08370	         1.18002e+58
          1351.89000	         1.23270e+58
          1352.69630	         1.21845e+58
          1353.50260	         1.21128e+58
          1354.30890	         1.18483e+58
          1355.11520	         1.12796e+58
          1355.92150	         1.14100e+58
          1356.72780	         9.77054e+57
          1357.53410	         9.67816e+57
          1358.34040	         1.18394e+58
          1359.14670	         1.17793e+58
          1359.95300	         1.14843e+58
          1360.75930	         1.09301e+58
          1361.56560	         1.10237e+58
          1362.37190	         1.22560e+58
          1363.17820	         1.19446e+58
          1363.98450	         1.20047e+58
          1364.79080	         1.27564e+58
          1365.59710	         1.32565e+58
          1366.40340	         1.19166e+58
          1367.20970	         1.03026e+58
          1368.01600	         1.02357e+58
          1368.82230	         1.11583e+58
          1369.62860	         1.14503e+58
          1370.43490	         8.51144e+57
          1371.24120	         8.51553e+57
          1372.04750	         8.47969e+57
          1372.85380	         9.29779e+57
          1373.66010	         9.72417e+57
          1374.46640	         1.04284e+58
          1375.27270	         1.11879e+58
          1376.07900	         9.14331e+57
          1376.88530	         9.78256e+57
          1377.69160	         1.00935e+58
          1378.49790	         8.38854e+57
          1379.30420	         7.92148e+57
          1380.11050	         9.20740e+57
          1380.91680	         7.88552e+57
          1381.72310	         7.13280e+57
          1382.52940	         8.16521e+57
          1383.33570	         8.41674e+57
          1384.14200	         8.60352e+57
          1384.94830	         1.13197e+58
          1385.75460	         1.20829e+58
          1386.56090	         1.07583e+58
          1387.36720	         1.14810e+58
          1388.17350	         1.30068e+58
          1388.97980	         1.15037e+58
          1389.78610	         8.91412e+57
          1390.59240	         8.46342e+57
          1391.39870	         8.84569e+57
          1392.20500	         9.89222e+57
          1393.01130	         7.87200e+57
          1393.81760	         7.39966e+57
          1394.62390	         8.37785e+57
          1395.43020	         7.04364e+57
          1396.23650	         7.19423e+57
          1397.04280	         8.24546e+57
          1397.84910	         8.78092e+57
          1398.65540	         9.14631e+57
          1399.46170	         1.02677e+58
          1400.26800	         9.65062e+57
          1401.07430	         8.19358e+57
          1401.88060	         8.14427e+57
          1402.68690	         9.47938e+57
          1403.49320	         9.44723e+57
          1404.29950	         9.53523e+57
          1405.10580	         1.15647e+58
          1405.91210	         1.25628e+58
          1406.71840	         1.23795e+58
          1407.52470	         1.11708e+58
          1408.33100	         9.98247e+57
          1409.13730	         1.07103e+58
          1409.94360	         1.06417e+58
          1410.74990	         1.10714e+58
          1411.55620	         1.05315e+58
          1412.36250	         9.12537e+57
          1413.16880	         9.65248e+57
          1413.97510	         8.49720e+57
          1414.78140	         9.10323e+57
          1415.58770	         1.07374e+58
          1416.39400	         1.19855e+58
          1417.20030	         1.11017e+58
          1418.00660	         1.13221e+58
          1418.81290	         1.21716e+58
          1419.61920	         1.15337e+58
          1420.42550	         1.16024e+58
          1421.23180	         1.43896e+58
          1422.03810	         1.26145e+58
          1422.84440	         1.19792e+58
          1423.65070	         1.50938e+58
          1424.45700	         1.28105e+58
          1425.26330	         1.01556e+58
          1426.06960	         1.00319e+58
          1426.87590	         1.01876e+58
          1427.68220	         9.81979e+57
          1428.48850	         1.08959e+58
          1429.29480	         1.15179e+58
          1430.10110	         1.10149e+58
          1430.90740	         8.94338e+57
          1431.71370	         9.06372e+57
          1432.52000	         9.48931e+57
          1433.32630	         8.80249e+57
          1434.13260	         7.48887e+57
          1434.93890	         8.80364e+57
          1435.74520	         9.90487e+57
          1436.55150	         1.03385e+58
          1437.35780	         8.85772e+57
          1438.16410	         9.07646e+57
          1438.97040	         1.08462e+58
          1439.77670	         1.09796e+58
          1440.58300	         9.84675e+57
          1441.38930	         9.39200e+57
          1442.19560	         9.94972e+57
          1443.00190	         1.04806e+58
          1443.80820	         1.16867e+58
          1444.61450	         9.30184e+57
          1445.42080	         7.69247e+57
          1446.22710	         1.05944e+58
          1447.03340	         1.00859e+58
          1447.83970	         1.03256e+58
          1448.64600	         1.12142e+58
          1449.45230	         1.04950e+58
          1450.25860	         9.57656e+57
          1451.06490	         9.36821e+57
          1451.87120	         7.97735e+57
          1452.67750	         8.00816e+57
          1453.48380	         1.00078e+58
          1454.29010	         9.05018e+57
          1455.09640	         7.82473e+57
          1455.90270	         8.78430e+57
          1456.70900	         8.35328e+57
          1457.51530	         8.93799e+57
          1458.32160	         1.17786e+58
          1459.12790	         1.17101e+58
          1459.93420	         1.03247e+58
          1460.74050	         8.47215e+57
          1461.54680	         8.35427e+57
          1462.35310	         9.15114e+57
          1463.15940	         1.13343e+58
          1463.96570	         1.29538e+58
          1464.77200	         1.29492e+58
          1465.57830	         1.13397e+58
          1466.38460	         1.00143e+58
          1467.19090	         8.75030e+57
          1467.99720	         9.52451e+57
          1468.80350	         1.06549e+58
          1469.60980	         1.02877e+58
          1470.41610	         1.03875e+58
          1471.22240	         1.02527e+58
          1472.02870	         1.00397e+58
          1472.83500	         1.02403e+58
          1473.64130	         1.03280e+58
          1474.44760	         9.52662e+57
          1475.25390	         9.15174e+57
          1476.06020	         9.75668e+57
          1476.86650	         9.29453e+57
          1477.67280	         7.79030e+57
          1478.47910	         7.61268e+57
          1479.28540	         7.04498e+57
          1480.09170	         8.66524e+57
          1480.89800	         8.84938e+57
          1481.70430	         7.97789e+57
          1482.51060	         8.30500e+57
          1483.31690	         8.34474e+57
          1484.12320	         7.26710e+57
          1484.92950	         7.62147e+57
          1485.73580	         8.32879e+57
          1486.54210	         8.36901e+57
          1487.34840	         8.49922e+57
          1488.15470	         8.10545e+57
          1488.96100	         8.66035e+57
          1489.76730	         9.26398e+57
          1490.57360	         8.98619e+57
          1491.37990	         8.36149e+57
          1492.18620	         8.33550e+57
          1492.99250	         9.04138e+57
          1493.79880	         9.15657e+57
          1494.60510	         8.89469e+57
          1495.41140	         8.06748e+57
          1496.21770	         1.01855e+58
          1497.02400	         1.19112e+58
          1497.83030	         9.56028e+57
          1498.63660	         6.85811e+57
          1499.44290	         7.12941e+57
          1500.24920	         7.75947e+57
          1501.05550	         8.52810e+57
          1501.86180	         8.91049e+57
          1502.66810	         1.00295e+58
          1503.47440	         9.36167e+57
          1504.28070	         8.17015e+57
          1505.08700	         9.14685e+57
          1505.89330	         9.70929e+57
          1506.69960	         8.83026e+57
          1507.50590	         8.69820e+57
          1508.31220	         9.59116e+57
          1509.11850	         9.63099e+57
          1509.92480	         9.74181e+57
          1510.73110	         8.67790e+57
          1511.53740	         7.50923e+57
          1512.34370	         6.73845e+57
          1513.15000	         9.05379e+57
          1513.95630	         1.04069e+58
          1514.76260	         9.96113e+57
          1515.56890	         9.47413e+57
          1516.37520	         9.02319e+57
          1517.18150	         9.71183e+57
          1517.98780	         8.82040e+57
          1518.79410	         6.96969e+57
          1519.60040	         8.05148e+57
          1520.40670	         1.05638e+58
          1521.21300	         1.04559e+58
          1522.01930	         9.07223e+57
          1522.82560	         1.00048e+58
          1523.63190	         1.09990e+58
          1524.43820	         9.07264e+57
          1525.24450	         6.97420e+57
          1526.05080	         7.15996e+57
          1526.85710	         7.36434e+57
          1527.66340	         7.87561e+57
          1528.46970	         8.36445e+57
          1529.27600	         8.23093e+57
          1530.08230	         8.49900e+57
          1530.88860	         8.39916e+57
          1531.69490	         8.47715e+57
          1532.50120	         9.81583e+57
          1533.30750	         9.86023e+57
          1534.11380	         9.27140e+57
          1534.92010	         9.22011e+57
          1535.72640	         9.20460e+57
          1536.53270	         9.30539e+57
          1537.33900	         9.46613e+57
          1538.14530	         9.76152e+57
          1538.95160	         1.00846e+58
          1539.75790	         8.93876e+57
          1540.56420	         8.85654e+57
          1541.37050	         9.16919e+57
          1542.17680	         7.61836e+57
          1542.98310	         7.48138e+57
          1543.78940	         7.49905e+57
          1544.59570	         6.14548e+57
          1545.40200	         8.12991e+57
          1546.20830	         1.06210e+58
          1547.01460	         1.12808e+58
          1547.82090	         1.10629e+58
          1548.62720	         1.13401e+58
          1549.43350	         1.12322e+58
          1550.23980	         1.12656e+58
          1551.04610	         1.23012e+58
          1551.85240	         1.29365e+58
          1552.65870	         1.20690e+58
          1553.46500	         1.03183e+58
          1554.27130	         1.03341e+58
          1555.07760	         1.07953e+58
          1555.88390	         9.50833e+57
          1556.69020	         9.61249e+57
          1557.49650	         9.40654e+57
          1558.30280	         8.43521e+57
          1559.10910	         9.06828e+57
          1559.91540	         9.72833e+57
          1560.72170	         9.18936e+57
          1561.52800	         8.46319e+57
          1562.33430	         8.84229e+57
          1563.14060	         9.34371e+57
          1563.94690	         8.42638e+57
          1564.75320	         7.90807e+57
          1565.55950	         6.74544e+57
          1566.36580	         8.57281e+57
          1567.17210	         1.02583e+58
          1567.97840	         9.37298e+57
          1568.78470	         9.05258e+57
          1569.59100	         9.19702e+57
          1570.39730	         8.75381e+57
          1571.20360	         7.07066e+57
          1572.00990	         6.99664e+57
          1572.81620	         9.39686e+57
          1573.62250	         1.04655e+58
          1574.42880	         9.30119e+57
          1575.23510	         8.15422e+57
          1576.04140	         8.29389e+57
          1576.84770	         9.22033e+57
          1577.65400	         9.60096e+57
          1578.46030	         1.02164e+58
          1579.26660	         1.06413e+58
          1580.07290	         9.29595e+57
          1580.87920	         7.83910e+57
          1581.68550	         7.84274e+57
          1582.49180	         7.99240e+57
          1583.29810	         8.26162e+57
          1584.10440	         8.87609e+57
          1584.91070	         9.03342e+57
          1585.71700	         8.13640e+57
          1586.52330	         9.20100e+57
          1587.32960	         9.92487e+57
          1588.13590	         1.01353e+58
          1588.94220	         9.48381e+57
          1589.74850	         9.54824e+57
          1590.55480	         9.49359e+57
          1591.36110	         9.36284e+57
          1592.16740	         8.58140e+57
          1592.97370	         7.24807e+57
          1593.78000	         8.46962e+57
          1594.58630	         9.69896e+57
          1595.39260	         8.80229e+57
          1596.19890	         9.62131e+57
          1597.00520	         9.29134e+57
          1597.81150	         8.24658e+57
          1598.61780	         7.90774e+57
          1599.42410	         6.83212e+57
          1600.23040	         6.61642e+57
          1601.03670	         7.16641e+57
          1601.84300	         7.63785e+57
          1602.64930	         9.98816e+57
          1603.45560	         1.06573e+58
          1604.26190	         9.59617e+57
          1605.06820	         8.86435e+57
          1605.87450	         8.17840e+57
          1606.68080	         7.37387e+57
          1607.48710	         6.22961e+57
          1608.29340	         6.28462e+57
          1609.09970	         7.04013e+57
          1609.90600	         7.97361e+57
          1610.71230	         8.16642e+57
          1611.51860	         7.49375e+57
          1612.32490	         6.85077e+57
          1613.13120	         8.32324e+57
          1613.93750	         9.11211e+57
          1614.74380	         8.96189e+57
          1615.55010	         9.03190e+57
          1616.35640	         9.48161e+57
          1617.16270	         1.03064e+58
          1617.96900	         1.06095e+58
          1618.77530	         9.45871e+57
          1619.58160	         9.30914e+57
          1620.38790	         8.93701e+57
          1621.19420	         9.22875e+57
          1622.00050	         8.46477e+57
          1622.80680	         8.96605e+57
          1623.61310	         9.02250e+57
          1624.41940	         9.56470e+57
          1625.22570	         1.07872e+58
          1626.03200	         1.00262e+58
          1626.83830	         8.05883e+57
          1627.64460	         7.57702e+57
          1628.45090	         7.04081e+57
          1629.25720	         9.35593e+57
          1630.06350	         1.02049e+58
          1630.86980	         6.99372e+57
          1631.67610	         8.37727e+57
          1632.48240	         8.33852e+57
          1633.28870	         8.11957e+57
          1634.09500	         8.93259e+57
          1634.90130	         9.92236e+57
          1635.70760	         8.66363e+57
          1636.51390	         6.79192e+57
          1637.32020	         6.48555e+57
          1638.12650	         8.11814e+57
          1638.93280	         8.89031e+57
          1639.73910	         1.02051e+58
          1640.54540	         1.00240e+58
          1641.35170	         8.17873e+57
          1642.15800	         8.96121e+57
          1642.96430	         8.40037e+57
          1643.77060	         8.50203e+57
          1644.57690	         7.73177e+57
          1645.38320	         8.39727e+57
          1646.18950	         7.75793e+57
          1646.99580	         7.98226e+57
          1647.80210	         8.34554e+57
          1648.60840	         8.04109e+57
          1649.41470	         8.98055e+57
          1650.22100	         8.07154e+57
          1651.02730	         6.83762e+57
          1651.83360	         7.44917e+57
          1652.63990	         8.11333e+57
          1653.44620	         9.44266e+57
          1654.25250	         9.20221e+57
          1655.05880	         8.24699e+57
          1655.86510	         8.18561e+57
          1656.67140	         8.43914e+57
          1657.47770	         8.10556e+57
          1658.28400	         9.25230e+57
          1659.09030	         8.93210e+57
          1659.89660	         8.52402e+57
          1660.70290	         1.02738e+58
          1661.50920	         1.04848e+58
          1662.31550	         1.04099e+58
          1663.12180	         9.25391e+57
          1663.92810	         1.01282e+58
          1664.73440	         1.13596e+58
          1665.54070	         1.16802e+58
          1666.34700	         1.20748e+58
          1667.15330	         1.12946e+58
          1667.95960	         8.96218e+57
          1668.76590	         7.12210e+57
          1669.57220	         6.55670e+57
          1670.37850	         7.89217e+57
          1671.18480	         8.34743e+57
          1671.99110	         8.23101e+57
          1672.79740	         8.06909e+57
          1673.60370	         7.07445e+57
          1674.41000	         6.76926e+57
          1675.21630	         7.52871e+57
          1676.02260	         6.78745e+57
          1676.82890	         6.84856e+57
          1677.63520	         7.09391e+57
          1678.44150	         7.62638e+57
          1679.24780	         9.38583e+57
          1680.05410	         7.70568e+57
          1680.86040	         6.51275e+57
          1681.66670	         7.88980e+57
          1682.47300	         7.88210e+57
          1683.27930	         8.49830e+57
          1684.08560	         9.25702e+57
          1684.89190	         8.28938e+57
          1685.69820	         5.72441e+57
          1686.50450	         5.26238e+57
          1687.31080	         7.06023e+57
          1688.11710	         8.00079e+57
          1688.92340	         7.05706e+57
          1689.72970	         5.85112e+57
          1690.53600	         6.86855e+57
          1691.34230	         7.35715e+57
          1692.14860	         8.13081e+57
          1692.95490	         7.66121e+57
          1693.76120	         6.70701e+57
          1694.56750	         5.73925e+57
          1695.37380	         8.28714e+57
          1696.18010	         9.75467e+57
          1696.98640	         9.45343e+57
          1697.79270	         9.20575e+57
          1698.59900	         8.89504e+57
          1699.40530	         7.84636e+57
          1700.21160	         8.01274e+57
          1701.01790	         8.53535e+57
          1701.82420	         6.89657e+57
          1702.63050	         7.17754e+57
          1703.43680	         7.59679e+57
          1704.24310	         7.94203e+57
          1705.04940	         6.37069e+57
          1705.85570	         7.43298e+57
          1706.66200	         9.12388e+57
          1707.46830	         8.11666e+57
          1708.27460	         8.00679e+57
          1709.08090	         8.87938e+57
          1709.88720	         7.49416e+57
          1710.69350	         7.25582e+57
          1711.49980	         7.68171e+57
          1712.30610	         7.66174e+57
          1713.11240	         8.84728e+57
          1713.91870	         7.39134e+57
          1714.72500	         7.76561e+57
          1715.53130	         8.75825e+57
          1716.33760	         7.14646e+57
          1717.14390	         6.74818e+57
          1717.95020	         8.22963e+57
          1718.75650	         8.51627e+57
          1719.56280	         8.71814e+57
          1720.36910	         7.31625e+57
          1721.17540	         8.36859e+57
          1721.98170	         7.97105e+57
          1722.78800	         6.36955e+57
          1723.59430	         6.76031e+57
          1724.40060	         8.20900e+57
          1725.20690	         9.39685e+57
          1726.01320	         9.31568e+57
          1726.81950	         8.56462e+57
          1727.62580	         8.31629e+57
          1728.43210	         7.03840e+57
          1729.23840	         6.96298e+57
          1730.04470	         7.82781e+57
          1730.85100	         8.59980e+57
          1731.65730	         8.63535e+57
          1732.46360	         7.86029e+57
          1733.26990	         7.15590e+57
          1734.07620	         7.24103e+57
          1734.88250	         7.88284e+57
          1735.68880	         8.84358e+57
          1736.49510	         8.65208e+57
          1737.30140	         8.37723e+57
          1738.10770	         7.21041e+57
          1738.91400	         7.52752e+57
          1739.72030	         7.94602e+57
          1740.52660	         7.32801e+57
          1741.33290	         6.79041e+57
          1742.13920	         7.41413e+57
          1742.94550	         7.81498e+57
          1743.75180	         7.84371e+57
          1744.55810	         8.59805e+57
          1745.36440	         8.59865e+57
          1746.17070	         6.05863e+57
          1746.97700	         5.24056e+57
          1747.78330	         7.41638e+57
          1748.58960	         6.92896e+57
          1749.39590	         6.39575e+57
          1750.20220	         6.59758e+57
          1751.00850	         5.68968e+57
          1751.81480	         5.45203e+57
          1752.62110	         6.94121e+57
          1753.42740	         7.42398e+57
          1754.23370	         6.46836e+57
          1755.04000	         7.87912e+57
          1755.84630	         9.74740e+57
          1756.65260	         9.56866e+57
          1757.45890	         8.99941e+57
          1758.26520	         7.61219e+57
          1759.07150	         9.02199e+57
          1759.87780	         8.37693e+57
          1760.68410	         8.49062e+57
          1761.49040	         8.80988e+57
          1762.29670	         6.59296e+57
          1763.10300	         7.46168e+57
          1763.90930	         7.74525e+57
          1764.71560	         8.30515e+57
          1765.52190	         8.23358e+57
          1766.32820	         8.05801e+57
          1767.13450	         8.68530e+57
          1767.94080	         7.60796e+57
          1768.74710	         6.17129e+57
          1769.55340	         6.55341e+57
          1770.35970	         6.21939e+57
          1771.16600	         6.74373e+57
          1771.97230	         7.72726e+57
          1772.77860	         8.67651e+57
          1773.58490	         7.86031e+57
          1774.39120	         6.49084e+57
          1775.19750	         6.65628e+57
          1776.00380	         7.13670e+57
          1776.81010	         7.17187e+57
          1777.61640	         6.59959e+57
          1778.42270	         6.90339e+57
          1779.22900	         7.06125e+57
          1780.03530	         7.16271e+57
          1780.84160	         7.58747e+57
          1781.64790	         7.63918e+57
          1782.45420	         7.81628e+57
          1783.26050	         7.65180e+57
          1784.06680	         7.96021e+57
          1784.87310	         7.51296e+57
          1785.67940	         7.16711e+57
          1786.48570	         6.55503e+57
          1787.29200	         6.31550e+57
          1788.09830	         6.39662e+57
          1788.90460	         6.15774e+57
          1789.71090	         6.20666e+57
          1790.51720	         6.51329e+57
          1791.32350	         7.90351e+57
          1792.12980	         9.00971e+57
          1792.93610	         8.68457e+57
          1793.74240	         8.24948e+57
          1794.54870	         8.15031e+57
          1795.35500	         8.96788e+57
          1796.16130	         9.41992e+57
          1796.96760	         8.19720e+57
          1797.77390	         8.36233e+57
          1798.58020	         8.86086e+57
          1799.38650	         8.30823e+57
          1800.19280	         8.04360e+57
          1800.99910	         8.10558e+57
          1801.80540	         7.58241e+57
          1802.61170	         8.38490e+57
          1803.41800	         8.29955e+57
          1804.22430	         7.16998e+57
          1805.03060	         6.45901e+57
          1805.83690	         6.77932e+57
          1806.64320	         7.39732e+57
          1807.44950	         7.71941e+57
          1808.25580	         7.82060e+57
          1809.06210	         8.70359e+57
          1809.86840	         8.31150e+57
          1810.67470	         7.52659e+57
          1811.48100	         7.98842e+57
          1812.28730	         8.29913e+57
          1813.09360	         6.76456e+57
          1813.89990	         7.25797e+57
          1814.70620	         7.38531e+57
          1815.51250	         9.42702e+57
          1816.31880	         9.63556e+57
          1817.12510	         8.59986e+57
          1817.93140	         6.74056e+57
          1818.73770	         7.12467e+57
          1819.54400	         8.31342e+57
          1820.35030	         9.27291e+57
          1821.15660	         7.23939e+57
          1821.96290	         6.95567e+57
          1822.76920	         8.64296e+57
          1823.57550	         8.59333e+57
          1824.38180	         8.68360e+57
          1825.18810	         8.40884e+57
          1825.99440	         8.84630e+57
          1826.80070	         8.55295e+57
          1827.60700	         7.46988e+57
          1828.41330	         6.25128e+57
          1829.21960	         6.36266e+57
          1830.02590	         6.87666e+57
          1830.83220	         7.98799e+57
          1831.63850	         7.94599e+57
          1832.44480	         7.86362e+57
          1833.25110	         8.86567e+57
          1834.05740	         8.91320e+57
          1834.86370	         8.31317e+57
          1835.67000	         6.82065e+57
          1836.47630	         7.87106e+57
          1837.28260	         9.09445e+57
          1838.08890	         9.33760e+57
          1838.89520	         9.26197e+57
          1839.70150	         8.49731e+57
          1840.50780	         7.90418e+57
          1841.31410	         7.04942e+57
          1842.12040	         6.98416e+57
          1842.92670	         6.56265e+57
          1843.73300	         5.83309e+57
          1844.53930	         7.07146e+57
          1845.34560	         8.61795e+57
          1846.15190	         8.92353e+57
          1846.95820	         8.21480e+57
          1847.76450	         7.03137e+57
          1848.57080	         5.83233e+57
          1849.37710	         5.57829e+57
          1850.18340	         7.28047e+57
          1850.98970	         8.33526e+57
          1851.79600	         8.52837e+57
          1852.60230	         8.28727e+57
          1853.40860	         7.54390e+57
          1854.21490	         7.70803e+57
          1855.02120	         6.09386e+57
          1855.82750	         4.50364e+57
          1856.63380	         5.91092e+57
          1857.44010	         6.66106e+57
          1858.24640	         6.37091e+57
          1859.05270	         7.08256e+57
          1859.85900	         6.25481e+57
          1860.66530	         5.87223e+57
          1861.47160	         6.84763e+57
          1862.27790	         7.35946e+57
          1863.08420	         7.57063e+57
          1863.89050	         7.97871e+57
          1864.69680	         7.89751e+57
          1865.50310	         7.68344e+57
          1866.30940	         6.68952e+57
          1867.11570	         6.71021e+57
          1867.92200	         7.42343e+57
          1868.72830	         7.64939e+57
          1869.53460	         7.43597e+57
          1870.34090	         8.47859e+57
          1871.14720	         8.45492e+57
          1871.95350	         8.13414e+57
          1872.75980	         8.32140e+57
          1873.56610	         8.01687e+57
          1874.37240	         6.90906e+57
          1875.17870	         5.99366e+57
          1875.98500	         7.11560e+57
          1876.79130	         8.07104e+57
          1877.59760	         8.57729e+57
          1878.40390	         6.80385e+57
          1879.21020	         6.45834e+57
          1880.01650	         7.78478e+57
          1880.82280	         8.56024e+57
          1881.62910	         8.73278e+57
          1882.43540	         1.03634e+58
          1883.24170	         8.14461e+57
          1884.04800	         7.09543e+57
          1884.85430	         7.78434e+57
          1885.66060	         7.92815e+57
          1886.46690	         8.38913e+57
          1887.27320	         7.84382e+57
          1888.07950	         6.34020e+57
          1888.88580	         6.36719e+57
          1889.69210	         8.93306e+57
          1890.49840	         8.43865e+57
          1891.30470	         8.32812e+57
          1892.11100	         8.61617e+57
          1892.91730	         7.84220e+57
          1893.72360	         7.46872e+57
          1894.52990	         8.59494e+57
          1895.33620	         8.01897e+57
          1896.14250	         6.49032e+57
          1896.94880	         6.07624e+57
          1897.75510	         5.60893e+57
          1898.56140	         5.77902e+57
          1899.36770	         7.99618e+57
          1900.17400	         6.55244e+57
          1900.98030	         6.71437e+57
          1901.78660	         7.00586e+57
          1902.59290	         6.54854e+57
          1903.39920	         8.13802e+57
          1904.20550	         8.66384e+57
          1905.01180	         7.87057e+57
          1905.81810	         1.00509e+58
          1906.62440	         1.25905e+58
          1907.43070	         1.45953e+58
          1908.23700	         1.69993e+58
          1909.04330	         1.44554e+58
          1909.84960	         1.15433e+58
          1910.65590	         1.09945e+58
          1911.46220	         1.11966e+58
          1912.26850	         8.96758e+57
          1913.07480	         6.76214e+57
          1913.88110	         6.91503e+57
          1914.68740	         7.18202e+57
          1915.49370	         7.08710e+57
          1916.30000	         6.71607e+57
          1917.10630	         7.18510e+57
          1917.91260	         6.89345e+57
          1918.71890	         7.01115e+57
          1919.52520	         6.43559e+57
          1920.33150	         6.50327e+57
          1921.13780	         6.21821e+57
          1921.94410	         7.77604e+57
          1922.75040	         7.81279e+57
          1923.55670	         7.94295e+57
          1924.36300	         7.54838e+57
          1925.16930	         6.13588e+57
          1925.97560	         6.37620e+57
          1926.78190	         5.18462e+57
          1927.58820	         6.15091e+57
          1928.39450	         7.26471e+57
          1929.20080	         6.63670e+57
          1930.00710	         6.96275e+57
          1930.81340	         7.98634e+57
          1931.61970	         7.00614e+57
          1932.42600	         6.97265e+57
          1933.23230	         8.43739e+57
          1934.03860	         8.37589e+57
          1934.84490	         5.70140e+57
          1935.65120	         6.34751e+57
          1936.45750	         9.57185e+57
          1937.26380	         9.25661e+57
          1938.07010	         8.86223e+57
          1938.87640	         8.46440e+57
          1939.68270	         8.82892e+57
          1940.48900	         8.30668e+57
          1941.29530	         8.29832e+57
          1942.10160	         7.33469e+57
          1942.90790	         6.05024e+57
          1943.71420	         6.36201e+57
          1944.52050	         6.49941e+57
          1945.32680	         5.68949e+57
          1946.13310	         7.77524e+57
          1946.93940	         8.46556e+57
          1947.74570	         7.24100e+57
          1948.55200	         6.35293e+57
          1949.35830	         5.22476e+57
          1950.16460	         5.02318e+57
          1950.97090	         6.53439e+57
          1951.77720	         8.39684e+57
          1952.58350	         8.72024e+57
          1953.38980	         6.65584e+57
          1954.19610	         4.77502e+57
          1955.00240	         4.48417e+57
          1955.80870	         5.73477e+57
          1956.61500	         6.27448e+57
          1957.42130	         6.93203e+57
          1958.22760	         7.08985e+57
          1959.03390	         7.24628e+57
          1959.84020	         7.57965e+57
          1960.64650	         7.39123e+57
          1961.45280	         5.72694e+57
          1962.25910	         5.53320e+57
          1963.06540	         6.29922e+57
          1963.87170	         6.61196e+57
          1964.67800	         8.02403e+57
          1965.48430	         7.42169e+57
          1966.29060	         6.99032e+57
          1967.09690	         8.31623e+57
          1967.90320	         7.69208e+57
          1968.70950	         7.05501e+57
          1969.51580	         6.37822e+57
          1970.32210	         6.90247e+57
          1971.12840	         6.61427e+57
          1971.93470	         5.19535e+57
          1972.74100	         4.83080e+57
          1973.54730	         6.19406e+57
          1974.35360	         7.59805e+57
          1975.15990	         8.37484e+57
          1975.96620	         8.33593e+57
          1976.77250	         7.69187e+57
          1977.57880	         8.74980e+57
          1978.38510	         7.11217e+57
          1979.19140	         7.83691e+57
          1979.99770	         7.32069e+57
          1980.80400	         7.39922e+57
          1981.61030	         7.67875e+57
          1982.41660	         5.02194e+57
          1983.22290	         4.96538e+57
          1984.02920	         5.82116e+57
          1984.83550	         6.23642e+57
          1985.64180	         6.61190e+57
          1986.44810	         6.46222e+57
          1987.25440	         4.61818e+57
          1988.06070	         5.44639e+57
          1988.86700	         6.35537e+57
          1989.67330	         7.00367e+57
          1990.47960	         6.62105e+57
          1991.28590	         6.90549e+57
          1992.09220	         6.48996e+57
          1992.89850	         6.36836e+57
          1993.70480	         5.43975e+57
          1994.51110	         5.72877e+57
          1995.31740	         4.09637e+57
          1996.12370	         4.02581e+57
          1996.93000	         5.50162e+57
          1997.73630	         6.93451e+57
          1998.54260	         7.74612e+57
          1999.34890	         6.29357e+57
          2000.15520	         6.09033e+57
          2000.96150	         7.03734e+57
          2001.76780	         5.75720e+57
          2002.57410	         5.45683e+57
          2003.38040	         6.73251e+57
          2004.18670	         7.53938e+57
          2004.99300	         7.12644e+57
          2005.79930	         7.48937e+57
          2006.60560	         7.09253e+57
          2007.41190	         5.81419e+57
          2008.21820	         6.85588e+57
          2009.02450	         8.02254e+57
          2009.83080	         6.78986e+57
          2010.63710	         6.54295e+57
          2011.44340	         7.23736e+57
          2012.24970	         7.58433e+57
          2013.05600	         7.91043e+57
          2013.86230	         6.16900e+57
          2014.66860	         5.97496e+57
          2015.47490	         6.67120e+57
          2016.28120	         6.72666e+57
          2017.08750	         5.44810e+57
          2017.89380	         6.71478e+57
          2018.70010	         6.37828e+57
          2019.50640	         6.47666e+57
          2020.31270	         6.74972e+57
          2021.11900	         7.27717e+57
          2021.92530	         7.81953e+57
          2022.73160	         7.23759e+57
          2023.53790	         6.90255e+57
          2024.34420	         7.13151e+57
          2025.15050	         5.50068e+57
          2025.95680	         6.10827e+57
          2026.76310	         7.58908e+57
          2027.56940	         7.54006e+57
          2028.37570	         6.93514e+57
          2029.18200	         7.00847e+57
          2029.98830	         7.67055e+57
          2030.79460	         6.10243e+57
          2031.60090	         5.40984e+57
          2032.40720	         7.21806e+57
          2033.21350	         6.92056e+57
          2034.01980	         5.99423e+57
          2034.82610	         4.55901e+57
          2035.63240	         5.32226e+57
          2036.43870	         5.01248e+57
          2037.24500	         6.54506e+57
          2038.05130	         8.06018e+57
          2038.85760	         6.55332e+57
          2039.66390	         6.68779e+57
          2040.47020	         5.45309e+57
          2041.27650	         5.23307e+57
          2042.08280	         4.51849e+57
          2042.88910	         4.74130e+57
          2043.69540	         5.17817e+57
          2044.50170	         5.97330e+57
          2045.30800	         4.42808e+57
          2046.11430	         2.78551e+57
          2046.92060	         5.10344e+57
          2047.72690	         6.64592e+57
          2048.53320	         6.17793e+57
          2049.33950	         5.34738e+57
          2050.14580	         4.54864e+57
          2050.95210	         5.08138e+57
          2051.75840	         7.39741e+57
          2052.56470	         5.58445e+57
          2053.37100	         3.85081e+57
          2054.17730	         3.86294e+57
          2054.98360	         4.21155e+57
          2055.78990	         3.40234e+57
          2056.59620	         2.86189e+57
          2057.40250	         5.51235e+57
          2058.20880	         6.77062e+57
          2059.01510	         7.63823e+57
          2059.82140	         7.61036e+57
          2060.62770	         1.04815e+58
          2061.43400	         1.74308e+58
          2062.24030	         1.25840e+58
          2063.04660	         5.18492e+57
          2063.85290	         1.30457e+57
          2064.65920	        -2.69177e+57
          2065.46550	        -7.60678e+57
          2066.27180	        -6.02834e+57
          2067.07810	         3.99697e+57
          2067.88440	         6.13928e+57
          2068.69070	         6.95867e+57
          2069.49700	         6.73715e+57
          2070.30330	         4.37336e+57
          2071.10960	         6.31957e+57
          2071.91590	         7.02502e+57
          2072.72220	         5.15763e+57
          2073.52850	         4.92596e+57
          2074.33480	         4.43777e+57
          2075.14110	         4.05844e+57
          2075.94740	         5.64142e+57
          2076.75370	         5.55611e+57
          2077.56000	         5.72366e+57
          2078.36630	         5.50739e+57
          2079.17260	         4.81263e+57
          2079.97890	         5.37900e+57
          2080.78520	         4.31528e+57
          2081.59150	         4.68154e+57
          2082.39780	         3.88278e+57
          2083.20410	         2.62579e+57
          2084.01040	         2.16696e+57
          2084.81670	         3.52854e+57
          2085.62300	         3.61403e+57
          2086.42930	         3.97243e+57
          2087.23560	         4.50196e+57
          2088.04190	         3.82717e+57
          2088.84820	         4.35689e+57
          2089.65450	         4.00592e+57
          2090.46080	         2.71209e+57
          2091.26710	         2.97940e+57
          2092.07340	         3.33439e+57
          2092.87970	         3.03706e+57
          2093.68600	        -8.54686e+56
          2094.49230	         1.89479e+56
          2095.29860	         3.93638e+57
          2096.10490	         3.59732e+57
          2096.91120	         1.62981e+57
          2097.71750	         1.14776e+57
          2098.52380	         1.93927e+57
          2099.33010	         5.56664e+56
          2100.13640	         1.45313e+57
          2100.94270	         2.14285e+57
          2101.74900	         1.59823e+57
          2102.55530	         1.90570e+57
          2103.36160	         2.23628e+57
          2104.16790	         3.10132e+57
          2104.97420	         2.32172e+57
          2105.78050	         1.45718e+57
          2106.58680	         1.74273e+57
          2107.39310	        -6.74700e+56
          2108.19940	         2.47409e+57
          2109.00570	         7.79675e+56
          2109.81200	         9.79284e+56
          2110.61830	        -8.25943e+56
          2111.42460	        -2.65880e+57
          2112.23090	         2.04846e+57
          2113.03720	         1.92953e+56
          2113.84350	        -8.65657e+56
          2114.64980	         9.25265e+56
          2115.45610	         2.00215e+56
          2116.26240	        -2.32356e+57
          2117.06870	         3.16735e+57
          2117.87500	        -1.38221e+57
          2118.68130	        -1.85935e+57
          2119.48760	         1.80638e+57
          2120.29390	         4.02735e+57
          2121.10020	         2.27773e+55
          2121.90650	        -2.12646e+57
          2122.71280	        -2.61337e+57
          2123.51910	         1.36537e+57
          2124.32540	         1.09673e+57
          2125.13170	         2.65000e+57
          2125.93800	         6.66582e+57
          2126.74430	        -8.91648e+56
          2127.55060	        -5.46213e+57
          2128.35690	        -4.23963e+57
          2129.16320	        -4.99053e+57
          2129.96950	        -4.32660e+57
          2130.77580	         2.03373e+57
          2131.58210	         2.23197e+57
          2132.38840	         5.91875e+55
          2133.19470	        -1.53681e+57
          2134.00100	         5.35571e+57
          2134.80730	        -1.71442e+57
          2135.61360	         2.81700e+57
          2136.41990	        -1.10029e+57
          2137.22620	         1.88726e+57
          2138.03250	         6.43041e+56
          2138.83880	        -3.34952e+57
          2139.64510	         4.31456e+57
          2140.45140	         3.30401e+57
          2141.25770	        -8.11650e+57
          2142.06400	        -8.51696e+57
          2142.87030	         1.38794e+57
          2143.67660	         7.36519e+57
          2144.48290	         8.53393e+57
          2145.28920	         1.08874e+58
          2146.09550	        -5.25543e+57
          2146.90180	        -3.91426e+57
          2147.70810	        -4.74366e+57
          2148.51440	        -5.17063e+57
          2149.32070	        -4.99649e+57
          2150.12700	        -7.68303e+57
          2150.93330	        -4.73620e+57
          2151.73960	         5.68147e+57
          2152.54590	        -1.50386e+57
          2153.35220	        -5.60466e+57
          2154.15850	        -6.11578e+57
          2154.96480	         1.86628e+57
          2155.77110	         8.29871e+55
          2156.57740	         1.89580e+57
          2157.38370	        -1.71729e+58
          2158.19000	        -2.73062e+57
          2158.99630	         2.58744e+57
          2159.80260	        -2.26146e+58
          2160.60890	        -9.01621e+57
          2161.41520	         1.95705e+57
          2162.22150	        -3.88937e+57
          2163.02780	         3.45133e+57
          2163.83410	         6.97996e+56
          2164.64040	        -1.09894e+58
          2165.44670	        -1.01229e+58
          2166.25300	        -4.51303e+57
          2167.05930	         3.23815e+57
          2167.86560	         2.30179e+57
          2168.67190	        -2.48694e+57
          2169.47820	        -1.68674e+57
          2170.28450	        -4.22935e+57
          2171.09080	        -2.76817e+57
          2171.89710	         3.06560e+56
          2172.70340	         4.62849e+56
          2173.50970	        -8.69204e+57
          2174.31600	        -3.72569e+57
          2175.12230	         1.30364e+57
          2175.92860	        -1.11318e+57
          2176.73490	        -3.15581e+57
          2177.54120	        -7.89399e+57
          2178.34750	        -5.11651e+57
          2179.15380	                 nan
          2179.96010	                 nan
          2180.76640	                 nan
          2181.57270	                 nan
          2182.37900	                 nan
          2183.18530	                 nan
          2183.99160	                 nan
          2184.79790	                 nan
          2185.60420	                 nan
          2186.41050	                 nan
          2187.21680	                 nan
          2188.02310	                 nan
          2188.82940	                 nan
          2189.63570	                 nan
          2190.44200	                 nan
          2191.24830	                 nan
          2192.05460	                 nan
          2192.86090	                 nan
          2193.66720	                 nan
          2194.47350	                 nan
          2195.27980	                 nan
          2196.08610	                 nan
          2196.89240	                 nan
          2197.69870	                 nan
          2198.50500	                 nan
          2199.31130	                 nan
          2200.11760	                 nan
          2200.92390	                 nan
          2201.73020	                 nan
          2202.53650	                 nan
          2203.34280	                 nan
          2204.14910	                 nan
          2204.95540	                 nan
          2205.76170	                 nan
          2206.56800	                 nan
          2207.37430	                 nan
          2208.18060	                 nan
          2208.98690	                 nan
          2209.79320	                 nan
          2210.59950	                 nan
          2211.40580	                 nan
          2212.21210	                 nan
          2213.01840	                 nan
          2213.82470	                 nan
          2214.63100	                 nan
          2215.43730	         0.00000e+00
