#sample_274_stacked_spectrum_rest_UV-bands_median_H-alpha_noDC.txt
#median Lum: 1.69704e+42
#Rest-frame wavelength (A) | Luminosity (erg/s/A)
#
          1110.00000	         0.00000e+00
          1110.80630	         1.47048e+59
          1111.61260	         4.41769e+58
          1112.41890	         3.28361e+58
          1113.22520	        -5.46554e+58
          1114.03150	        -1.15705e+59
          1114.83780	         2.75857e+59
          1115.64410	         2.13030e+59
          1116.45040	        -4.59731e+58
          1117.25670	         1.10959e+59
          1118.06300	         1.19426e+59
          1118.86930	        -4.08212e+58
          1119.67560	         3.04590e+58
          1120.48190	         3.23829e+58
          1121.28820	        -7.04948e+58
          1122.09450	         4.21092e+58
          1122.90080	         1.92856e+58
          1123.70710	         3.58585e+58
          1124.51340	         1.20897e+59
          1125.31970	         2.40706e+58
          1126.12600	         2.75030e+58
          1126.93230	        -6.22509e+58
          1127.73860	        -9.37327e+57
          1128.54490	         6.09275e+58
          1129.35120	        -2.33906e+58
          1130.15750	        -3.55073e+58
          1130.96380	        -4.94655e+58
          1131.77010	         7.38398e+58
          1132.57640	         5.91387e+58
          1133.38270	         6.24491e+58
          1134.18900	         1.12594e+58
          1134.99530	        -1.09081e+58
          1135.80160	         9.60223e+57
          1136.60790	         1.98094e+58
          1137.41420	        -1.74701e+58
          1138.22050	         2.76841e+58
          1139.02680	         3.63788e+58
          1139.83310	         2.31200e+58
          1140.63940	         1.54659e+58
          1141.44570	        -2.34021e+58
          1142.25200	        -1.42383e+58
          1143.05830	         2.31688e+58
          1143.86460	         3.65436e+58
          1144.67090	         1.64872e+58
          1145.47720	         1.65437e+58
          1146.28350	         1.13224e+58
          1147.08980	         1.04576e+58
          1147.89610	         2.17356e+58
          1148.70240	         2.04319e+58
          1149.50870	         3.41720e+58
          1150.31500	         1.07027e+58
          1151.12130	         5.88080e+57
          1151.92760	        -6.76005e+56
          1152.73390	         1.21535e+58
          1153.54020	         6.09637e+57
          1154.34650	         2.62939e+58
          1155.15280	         1.95158e+58
          1155.95910	         1.87242e+58
          1156.76540	         1.89794e+58
          1157.57170	         4.51523e+57
          1158.37800	        -2.80995e+57
          1159.18430	        -2.92256e+57
          1159.99060	         1.08979e+58
          1160.79690	         7.75843e+57
          1161.60320	         8.39373e+57
          1162.40950	         2.26014e+58
          1163.21580	         7.89751e+57
          1164.02210	         1.47503e+58
          1164.82840	         1.55734e+58
          1165.63470	         2.35238e+58
          1166.44100	         3.70440e+58
          1167.24730	         2.56892e+58
          1168.05360	         6.91929e+57
          1168.85990	         1.25417e+58
          1169.66620	         1.00242e+58
          1170.47250	         1.08094e+57
          1171.27880	        -4.98089e+55
          1172.08510	         1.17000e+58
          1172.89140	         9.73276e+57
          1173.69770	         2.59910e+57
          1174.50400	         6.07634e+57
          1175.31030	         1.73439e+58
          1176.11660	         2.03984e+58
          1176.92290	         1.97712e+58
          1177.72920	         1.47525e+58
          1178.53550	         1.05103e+58
          1179.34180	         4.98020e+57
          1180.14810	         7.06401e+57
          1180.95440	         1.08773e+58
          1181.76070	         8.66163e+57
          1182.56700	         1.09329e+58
          1183.37330	         1.02164e+58
          1184.17960	         1.34511e+58
          1184.98590	         1.28898e+58
          1185.79220	         1.01431e+58
          1186.59850	         1.45008e+58
          1187.40480	         1.41071e+58
          1188.21110	         1.95919e+58
          1189.01740	         8.45170e+57
          1189.82370	         5.79298e+57
          1190.63000	         4.55366e+57
          1191.43630	         9.63661e+57
          1192.24260	         1.02203e+58
          1193.04890	         1.62460e+58
          1193.85520	         1.42382e+58
          1194.66150	         7.43171e+57
          1195.46780	         8.96651e+57
          1196.27410	         1.56646e+58
          1197.08040	         1.24526e+58
          1197.88670	         1.72650e+58
          1198.69300	         1.70430e+58
          1199.49930	         1.60293e+58
          1200.30560	         1.14151e+58
          1201.11190	         1.06732e+58
          1201.91820	         1.07371e+58
          1202.72450	         8.37730e+57
          1203.53080	         1.47244e+58
          1204.33710	         9.06955e+57
          1205.14340	         7.39975e+57
          1205.94970	         6.33076e+57
          1206.75600	         5.51873e+57
          1207.56230	         5.32347e+57
          1208.36860	         6.86209e+57
          1209.17490	         5.43026e+57
          1209.98120	         5.91315e+57
          1210.78750	         8.11207e+57
          1211.59380	         1.25106e+58
          1212.40010	         1.52514e+58
          1213.20640	         1.98426e+58
          1214.01270	         2.00004e+58
          1214.81900	         2.72061e+58
          1215.62530	         4.74384e+58
          1216.43160	         8.93691e+58
          1217.23790	         1.47752e+59
          1218.04420	         1.14435e+59
          1218.85050	         8.63856e+58
          1219.65680	         5.99996e+58
          1220.46310	         3.27306e+58
          1221.26940	         2.17169e+58
          1222.07570	         1.49347e+58
          1222.88200	         1.35696e+58
          1223.68830	         1.18513e+58
          1224.49460	         6.96944e+57
          1225.30090	         4.81683e+57
          1226.10720	         5.99008e+57
          1226.91350	         6.40518e+57
          1227.71980	         8.51796e+57
          1228.52610	         9.41837e+57
          1229.33240	         7.16025e+57
          1230.13870	         1.14455e+58
          1230.94500	         9.77260e+57
          1231.75130	         8.20794e+57
          1232.55760	         7.24048e+57
          1233.36390	         9.01323e+57
          1234.17020	         8.50421e+57
          1234.97650	         8.59831e+57
          1235.78280	         8.06817e+57
          1236.58910	         9.41330e+57
          1237.39540	         1.14631e+58
          1238.20170	         1.12116e+58
          1239.00800	         1.27926e+58
          1239.81430	         1.51258e+58
          1240.62060	         1.13802e+58
          1241.42690	         1.00247e+58
          1242.23320	         1.16932e+58
          1243.03950	         9.27861e+57
          1243.84580	         7.48945e+57
          1244.65210	         1.07078e+58
          1245.45840	         1.19354e+58
          1246.26470	         1.13410e+58
          1247.07100	         7.12410e+57
          1247.87730	         6.07384e+57
          1248.68360	         4.89749e+57
          1249.48990	         6.36157e+57
          1250.29620	         7.81666e+57
          1251.10250	         6.00904e+57
          1251.90880	         3.36321e+57
          1252.71510	         4.30530e+57
          1253.52140	         5.34119e+57
          1254.32770	         8.36068e+57
          1255.13400	         1.23309e+58
          1255.94030	         1.01233e+58
          1256.74660	         8.22484e+57
          1257.55290	         1.01443e+58
          1258.35920	         8.37898e+57
          1259.16550	         7.82016e+57
          1259.97180	         5.05268e+57
          1260.77810	         6.41317e+57
          1261.58440	         9.68351e+57
          1262.39070	         8.57010e+57
          1263.19700	         7.78340e+57
          1264.00330	         8.48582e+57
          1264.80960	         1.12115e+58
          1265.61590	         1.25910e+58
          1266.42220	         1.21758e+58
          1267.22850	         1.00659e+58
          1268.03480	         1.28257e+58
          1268.84110	         1.32980e+58
          1269.64740	         1.17129e+58
          1270.45370	         1.12262e+58
          1271.26000	         1.08037e+58
          1272.06630	         1.15032e+58
          1272.87260	         1.14050e+58
          1273.67890	         1.20797e+58
          1274.48520	         1.38991e+58
          1275.29150	         1.40884e+58
          1276.09780	         1.33592e+58
          1276.90410	         1.40134e+58
          1277.71040	         1.19189e+58
          1278.51670	         1.12848e+58
          1279.32300	         1.53392e+58
          1280.12930	         1.44437e+58
          1280.93560	         1.26182e+58
          1281.74190	         1.33741e+58
          1282.54820	         1.32593e+58
          1283.35450	         1.11904e+58
          1284.16080	         1.33475e+58
          1284.96710	         1.48376e+58
          1285.77340	         1.20023e+58
          1286.57970	         1.11557e+58
          1287.38600	         1.55984e+58
          1288.19230	         1.79501e+58
          1288.99860	         1.57264e+58
          1289.80490	         1.18451e+58
          1290.61120	         1.38577e+58
          1291.41750	         1.66311e+58
          1292.22380	         1.12942e+58
          1293.03010	         8.56084e+57
          1293.83640	         1.15871e+58
          1294.64270	         1.08647e+58
          1295.44900	         8.68522e+57
          1296.25530	         8.43071e+57
          1297.06160	         8.44879e+57
          1297.86790	         9.10691e+57
          1298.67420	         8.40046e+57
          1299.48050	         1.02485e+58
          1300.28680	         1.19671e+58
          1301.09310	         8.42033e+57
          1301.89940	         3.98777e+57
          1302.70570	         6.91110e+57
          1303.51200	         7.58837e+57
          1304.31830	         1.01320e+58
          1305.12460	         1.15984e+58
          1305.93090	         1.23211e+58
          1306.73720	         1.32862e+58
          1307.54350	         1.55872e+58
          1308.34980	         1.46734e+58
          1309.15610	         1.40578e+58
          1309.96240	         1.64154e+58
          1310.76870	         1.37549e+58
          1311.57500	         1.10808e+58
          1312.38130	         1.03722e+58
          1313.18760	         1.38484e+58
          1313.99390	         1.77484e+58
          1314.80020	         1.71961e+58
          1315.60650	         1.34364e+58
          1316.41280	         1.28705e+58
          1317.21910	         1.05813e+58
          1318.02540	         1.15229e+58
          1318.83170	         1.35599e+58
          1319.63800	         1.19617e+58
          1320.44430	         1.17314e+58
          1321.25060	         1.44785e+58
          1322.05690	         1.55159e+58
          1322.86320	         1.30287e+58
          1323.66950	         1.12136e+58
          1324.47580	         1.10532e+58
          1325.28210	         1.05657e+58
          1326.08840	         1.21433e+58
          1326.89470	         1.36802e+58
          1327.70100	         1.04612e+58
          1328.50730	         8.17295e+57
          1329.31360	         9.74098e+57
          1330.11990	         9.17771e+57
          1330.92620	         9.19599e+57
          1331.73250	         1.10588e+58
          1332.53880	         9.29886e+57
          1333.34510	         8.76262e+57
          1334.15140	         8.78328e+57
          1334.95770	         9.65707e+57
          1335.76400	         1.06502e+58
          1336.57030	         1.05786e+58
          1337.37660	         9.57995e+57
          1338.18290	         9.38129e+57
          1338.98920	         1.27412e+58
          1339.79550	         1.30640e+58
          1340.60180	         1.28701e+58
          1341.40810	         1.49131e+58
          1342.21440	         1.45868e+58
          1343.02070	         1.35060e+58
          1343.82700	         1.36213e+58
          1344.63330	         1.47021e+58
          1345.43960	         1.51335e+58
          1346.24590	         1.24107e+58
          1347.05220	         1.35905e+58
          1347.85850	         1.28073e+58
          1348.66480	         1.26450e+58
          1349.47110	         1.33921e+58
          1350.27740	         1.29652e+58
          1351.08370	         1.13149e+58
          1351.89000	         1.12684e+58
          1352.69630	         1.21364e+58
          1353.50260	         1.20921e+58
          1354.30890	         1.26014e+58
          1355.11520	         1.26891e+58
          1355.92150	         1.08095e+58
          1356.72780	         1.02595e+58
          1357.53410	         1.09253e+58
          1358.34040	         1.17172e+58
          1359.14670	         1.26625e+58
          1359.95300	         1.14549e+58
          1360.75930	         1.05148e+58
          1361.56560	         9.83878e+57
          1362.37190	         1.04034e+58
          1363.17820	         1.03561e+58
          1363.98450	         1.22600e+58
          1364.79080	         1.51465e+58
          1365.59710	         1.45163e+58
          1366.40340	         1.19513e+58
          1367.20970	         1.04383e+58
          1368.01600	         9.88225e+57
          1368.82230	         9.70852e+57
          1369.62860	         1.08355e+58
          1370.43490	         9.31331e+57
          1371.24120	         8.80254e+57
          1372.04750	         8.53207e+57
          1372.85380	         1.06193e+58
          1373.66010	         1.14228e+58
          1374.46640	         9.84804e+57
          1375.27270	         1.09732e+58
          1376.07900	         9.44424e+57
          1376.88530	         9.10747e+57
          1377.69160	         9.12975e+57
          1378.49790	         6.83620e+57
          1379.30420	         6.57637e+57
          1380.11050	         8.83728e+57
          1380.91680	         8.51323e+57
          1381.72310	         8.55872e+57
          1382.52940	         8.89699e+57
          1383.33570	         8.24754e+57
          1384.14200	         9.96742e+57
          1384.94830	         1.06496e+58
          1385.75460	         9.17004e+57
          1386.56090	         1.05903e+58
          1387.36720	         1.11552e+58
          1388.17350	         1.31760e+58
          1388.97980	         1.28467e+58
          1389.78610	         8.39046e+57
          1390.59240	         6.59403e+57
          1391.39870	         7.46655e+57
          1392.20500	         8.54917e+57
          1393.01130	         7.69644e+57
          1393.81760	         8.31964e+57
          1394.62390	         8.42790e+57
          1395.43020	         6.44534e+57
          1396.23650	         7.38472e+57
          1397.04280	         7.96138e+57
          1397.84910	         8.02146e+57
          1398.65540	         8.83287e+57
          1399.46170	         1.05493e+58
          1400.26800	         9.81935e+57
          1401.07430	         8.67300e+57
          1401.88060	         8.75587e+57
          1402.68690	         9.88008e+57
          1403.49320	         1.02918e+58
          1404.29950	         1.02666e+58
          1405.10580	         1.12500e+58
          1405.91210	         1.13562e+58
          1406.71840	         1.07850e+58
          1407.52470	         1.14046e+58
          1408.33100	         1.03800e+58
          1409.13730	         1.05365e+58
          1409.94360	         1.17281e+58
          1410.74990	         1.12658e+58
          1411.55620	         1.01633e+58
          1412.36250	         1.04029e+58
          1413.16880	         9.24377e+57
          1413.97510	         8.22093e+57
          1414.78140	         9.28451e+57
          1415.58770	         1.00694e+58
          1416.39400	         9.78409e+57
          1417.20030	         1.12936e+58
          1418.00660	         1.04773e+58
          1418.81290	         1.04845e+58
          1419.61920	         9.55387e+57
          1420.42550	         1.12908e+58
          1421.23180	         1.38056e+58
          1422.03810	         1.33400e+58
          1422.84440	         1.17161e+58
          1423.65070	         1.31956e+58
          1424.45700	         1.27096e+58
          1425.26330	         9.16794e+57
          1426.06960	         7.68610e+57
          1426.87590	         9.17063e+57
          1427.68220	         9.48476e+57
          1428.48850	         1.09875e+58
          1429.29480	         1.16053e+58
          1430.10110	         1.01934e+58
          1430.90740	         8.86190e+57
          1431.71370	         8.46545e+57
          1432.52000	         9.29986e+57
          1433.32630	         8.47003e+57
          1434.13260	         8.67640e+57
          1434.93890	         9.43576e+57
          1435.74520	         9.45550e+57
          1436.55150	         9.19953e+57
          1437.35780	         9.03704e+57
          1438.16410	         9.62315e+57
          1438.97040	         9.47511e+57
          1439.77670	         8.98190e+57
          1440.58300	         9.21070e+57
          1441.38930	         9.61895e+57
          1442.19560	         1.03713e+58
          1443.00190	         1.02457e+58
          1443.80820	         1.05511e+58
          1444.61450	         8.80665e+57
          1445.42080	         8.25307e+57
          1446.22710	         1.07237e+58
          1447.03340	         1.10514e+58
          1447.83970	         1.03182e+58
          1448.64600	         1.04462e+58
          1449.45230	         1.06057e+58
          1450.25860	         1.05667e+58
          1451.06490	         8.87465e+57
          1451.87120	         7.88638e+57
          1452.67750	         7.51956e+57
          1453.48380	         8.60230e+57
          1454.29010	         7.85801e+57
          1455.09640	         7.51689e+57
          1455.90270	         9.33593e+57
          1456.70900	         9.27483e+57
          1457.51530	         1.04127e+58
          1458.32160	         1.28611e+58
          1459.12790	         1.21795e+58
          1459.93420	         1.05775e+58
          1460.74050	         8.31690e+57
          1461.54680	         8.21875e+57
          1462.35310	         8.62736e+57
          1463.15940	         1.06483e+58
          1463.96570	         1.21251e+58
          1464.77200	         1.33368e+58
          1465.57830	         1.16778e+58
          1466.38460	         9.52702e+57
          1467.19090	         8.53491e+57
          1467.99720	         8.89878e+57
          1468.80350	         1.00909e+58
          1469.60980	         1.04048e+58
          1470.41610	         1.07779e+58
          1471.22240	         1.04529e+58
          1472.02870	         1.01997e+58
          1472.83500	         1.01397e+58
          1473.64130	         9.64809e+57
          1474.44760	         9.43019e+57
          1475.25390	         9.55395e+57
          1476.06020	         8.65312e+57
          1476.86650	         7.57286e+57
          1477.67280	         6.99523e+57
          1478.47910	         5.72760e+57
          1479.28540	         7.28888e+57
          1480.09170	         9.57828e+57
          1480.89800	         9.31154e+57
          1481.70430	         8.62787e+57
          1482.51060	         7.69646e+57
          1483.31690	         7.53215e+57
          1484.12320	         8.70557e+57
          1484.92950	         8.31760e+57
          1485.73580	         8.67107e+57
          1486.54210	         1.03298e+58
          1487.34840	         9.54605e+57
          1488.15470	         7.85150e+57
          1488.96100	         6.40623e+57
          1489.76730	         7.64329e+57
          1490.57360	         8.56494e+57
          1491.37990	         7.43132e+57
          1492.18620	         7.56180e+57
          1492.99250	         7.98519e+57
          1493.79880	         9.13393e+57
          1494.60510	         9.28683e+57
          1495.41140	         8.04697e+57
          1496.21770	         9.31483e+57
          1497.02400	         1.10771e+58
          1497.83030	         9.65883e+57
          1498.63660	         7.57410e+57
          1499.44290	         6.26231e+57
          1500.24920	         7.00441e+57
          1501.05550	         8.73658e+57
          1501.86180	         8.77235e+57
          1502.66810	         9.46677e+57
          1503.47440	         9.91824e+57
          1504.28070	         8.49441e+57
          1505.08700	         8.26336e+57
          1505.89330	         8.47462e+57
          1506.69960	         8.96049e+57
          1507.50590	         8.85905e+57
          1508.31220	         9.67269e+57
          1509.11850	         9.24627e+57
          1509.92480	         1.03833e+58
          1510.73110	         9.67983e+57
          1511.53740	         7.97790e+57
          1512.34370	         6.93778e+57
          1513.15000	         8.66608e+57
          1513.95630	         1.01717e+58
          1514.76260	         9.10905e+57
          1515.56890	         8.74767e+57
          1516.37520	         8.87427e+57
          1517.18150	         8.43551e+57
          1517.98780	         7.68237e+57
          1518.79410	         7.87214e+57
          1519.60040	         8.12059e+57
          1520.40670	         9.19198e+57
          1521.21300	         9.35673e+57
          1522.01930	         8.58891e+57
          1522.82560	         9.32260e+57
          1523.63190	         1.06597e+58
          1524.43820	         9.12946e+57
          1525.24450	         6.56507e+57
          1526.05080	         6.75885e+57
          1526.85710	         6.92793e+57
          1527.66340	         6.53736e+57
          1528.46970	         7.02104e+57
          1529.27600	         8.13813e+57
          1530.08230	         8.30815e+57
          1530.88860	         8.03974e+57
          1531.69490	         9.09098e+57
          1532.50120	         9.90452e+57
          1533.30750	         9.71696e+57
          1534.11380	         9.24263e+57
          1534.92010	         9.76865e+57
          1535.72640	         1.02079e+58
          1536.53270	         1.00453e+58
          1537.33900	         9.73396e+57
          1538.14530	         9.02151e+57
          1538.95160	         9.20863e+57
          1539.75790	         9.01972e+57
          1540.56420	         8.88521e+57
          1541.37050	         8.15604e+57
          1542.17680	         7.41514e+57
          1542.98310	         7.72209e+57
          1543.78940	         7.78625e+57
          1544.59570	         7.52399e+57
          1545.40200	         8.68582e+57
          1546.20830	         1.02487e+58
          1547.01460	         1.10581e+58
          1547.82090	         1.12643e+58
          1548.62720	         1.22076e+58
          1549.43350	         1.27775e+58
          1550.23980	         1.18044e+58
          1551.04610	         1.25948e+58
          1551.85240	         1.33299e+58
          1552.65870	         1.19847e+58
          1553.46500	         1.02405e+58
          1554.27130	         9.41009e+57
          1555.07760	         9.78232e+57
          1555.88390	         9.32534e+57
          1556.69020	         1.00621e+58
          1557.49650	         1.00793e+58
          1558.30280	         9.74665e+57
          1559.10910	         9.15475e+57
          1559.91540	         8.61734e+57
          1560.72170	         9.22118e+57
          1561.52800	         8.34751e+57
          1562.33430	         8.48715e+57
          1563.14060	         8.96896e+57
          1563.94690	         8.15231e+57
          1564.75320	         8.17834e+57
          1565.55950	         7.59908e+57
          1566.36580	         7.59663e+57
          1567.17210	         9.55887e+57
          1567.97840	         9.98113e+57
          1568.78470	         9.25302e+57
          1569.59100	         9.62249e+57
          1570.39730	         9.38342e+57
          1571.20360	         8.24670e+57
          1572.00990	         8.19564e+57
          1572.81620	         9.18369e+57
          1573.62250	         1.08818e+58
          1574.42880	         1.03027e+58
          1575.23510	         7.21519e+57
          1576.04140	         8.00359e+57
          1576.84770	         8.86299e+57
          1577.65400	         8.43545e+57
          1578.46030	         9.79951e+57
          1579.26660	         1.08334e+58
          1580.07290	         1.00584e+58
          1580.87920	         8.66616e+57
          1581.68550	         7.79618e+57
          1582.49180	         7.79676e+57
          1583.29810	         7.71655e+57
          1584.10440	         8.48747e+57
          1584.91070	         8.71600e+57
          1585.71700	         8.68670e+57
          1586.52330	         9.06040e+57
          1587.32960	         9.04046e+57
          1588.13590	         8.59679e+57
          1588.94220	         8.30483e+57
          1589.74850	         8.90051e+57
          1590.55480	         8.99410e+57
          1591.36110	         8.95387e+57
          1592.16740	         8.45170e+57
          1592.97370	         8.29633e+57
          1593.78000	         8.52482e+57
          1594.58630	         9.21214e+57
          1595.39260	         9.41172e+57
          1596.19890	         9.77169e+57
          1597.00520	         1.00224e+58
          1597.81150	         8.98859e+57
          1598.61780	         7.40508e+57
          1599.42410	         7.63813e+57
          1600.23040	         7.59989e+57
          1601.03670	         7.25178e+57
          1601.84300	         7.35601e+57
          1602.64930	         8.22929e+57
          1603.45560	         8.82039e+57
          1604.26190	         8.15012e+57
          1605.06820	         8.02547e+57
          1605.87450	         7.85914e+57
          1606.68080	         7.57228e+57
          1607.48710	         6.29763e+57
          1608.29340	         5.50530e+57
          1609.09970	         5.10118e+57
          1609.90600	         6.69678e+57
          1610.71230	         6.97481e+57
          1611.51860	         7.04404e+57
          1612.32490	         6.77125e+57
          1613.13120	         8.29945e+57
          1613.93750	         7.55888e+57
          1614.74380	         7.33241e+57
          1615.55010	         8.56184e+57
          1616.35640	         9.53681e+57
          1617.16270	         1.01749e+58
          1617.96900	         1.08699e+58
          1618.77530	         9.99389e+57
          1619.58160	         8.98871e+57
          1620.38790	         7.62582e+57
          1621.19420	         8.67171e+57
          1622.00050	         8.61141e+57
          1622.80680	         9.35514e+57
          1623.61310	         9.54904e+57
          1624.41940	         9.33622e+57
          1625.22570	         1.04676e+58
          1626.03200	         1.00876e+58
          1626.83830	         8.39303e+57
          1627.64460	         7.42814e+57
          1628.45090	         7.03342e+57
          1629.25720	         9.51901e+57
          1630.06350	         9.91729e+57
          1630.86980	         6.10353e+57
          1631.67610	         6.82965e+57
          1632.48240	         8.81209e+57
          1633.28870	         9.69186e+57
          1634.09500	         9.36182e+57
          1634.90130	         1.02297e+58
          1635.70760	         9.51321e+57
          1636.51390	         8.54367e+57
          1637.32020	         8.34373e+57
          1638.12650	         1.00551e+58
          1638.93280	         9.79490e+57
          1639.73910	         1.04738e+58
          1640.54540	         1.11302e+58
          1641.35170	         9.03767e+57
          1642.15800	         8.96601e+57
          1642.96430	         8.48110e+57
          1643.77060	         8.16085e+57
          1644.57690	         8.02793e+57
          1645.38320	         8.13775e+57
          1646.18950	         7.68698e+57
          1646.99580	         8.27992e+57
          1647.80210	         7.20646e+57
          1648.60840	         7.40680e+57
          1649.41470	         8.41302e+57
          1650.22100	         8.00411e+57
          1651.02730	         8.22118e+57
          1651.83360	         7.50296e+57
          1652.63990	         7.65879e+57
          1653.44620	         8.17296e+57
          1654.25250	         8.35268e+57
          1655.05880	         7.96767e+57
          1655.86510	         7.71075e+57
          1656.67140	         8.42363e+57
          1657.47770	         8.17112e+57
          1658.28400	         8.11679e+57
          1659.09030	         8.72773e+57
          1659.89660	         9.61221e+57
          1660.70290	         1.07541e+58
          1661.50920	         1.01552e+58
          1662.31550	         8.87063e+57
          1663.12180	         9.37426e+57
          1663.92810	         1.03712e+58
          1664.73440	         1.11637e+58
          1665.54070	         1.25701e+58
          1666.34700	         1.30291e+58
          1667.15330	         1.14959e+58
          1667.95960	         9.32364e+57
          1668.76590	         7.46958e+57
          1669.57220	         7.26423e+57
          1670.37850	         7.60507e+57
          1671.18480	         8.42364e+57
          1671.99110	         8.11627e+57
          1672.79740	         6.90264e+57
          1673.60370	         7.29935e+57
          1674.41000	         8.20348e+57
          1675.21630	         8.25166e+57
          1676.02260	         7.35214e+57
          1676.82890	         6.77629e+57
          1677.63520	         6.42147e+57
          1678.44150	         7.34538e+57
          1679.24780	         8.84418e+57
          1680.05410	         7.99700e+57
          1680.86040	         6.88622e+57
          1681.66670	         7.46633e+57
          1682.47300	         8.22030e+57
          1683.27930	         8.05871e+57
          1684.08560	         8.87277e+57
          1684.89190	         8.37896e+57
          1685.69820	         5.61959e+57
          1686.50450	         5.82307e+57
          1687.31080	         7.29534e+57
          1688.11710	         7.39015e+57
          1688.92340	         6.75311e+57
          1689.72970	         6.36256e+57
          1690.53600	         7.01482e+57
          1691.34230	         7.39859e+57
          1692.14860	         7.93885e+57
          1692.95490	         8.36523e+57
          1693.76120	         7.53517e+57
          1694.56750	         7.76143e+57
          1695.37380	         9.49508e+57
          1696.18010	         9.16141e+57
          1696.98640	         8.84643e+57
          1697.79270	         8.74070e+57
          1698.59900	         7.53603e+57
          1699.40530	         7.35269e+57
          1700.21160	         7.76044e+57
          1701.01790	         8.97456e+57
          1701.82420	         7.62121e+57
          1702.63050	         7.95364e+57
          1703.43680	         8.97553e+57
          1704.24310	         8.61743e+57
          1705.04940	         8.37530e+57
          1705.85570	         8.03801e+57
          1706.66200	         8.38869e+57
          1707.46830	         8.18610e+57
          1708.27460	         8.25897e+57
          1709.08090	         6.84960e+57
          1709.88720	         6.38043e+57
          1710.69350	         6.92703e+57
          1711.49980	         6.92138e+57
          1712.30610	         7.51311e+57
          1713.11240	         9.02432e+57
          1713.91870	         8.13731e+57
          1714.72500	         7.48017e+57
          1715.53130	         9.24980e+57
          1716.33760	         9.47391e+57
          1717.14390	         7.54096e+57
          1717.95020	         7.93171e+57
          1718.75650	         8.14597e+57
          1719.56280	         8.13905e+57
          1720.36910	         6.68449e+57
          1721.17540	         5.66622e+57
          1721.98170	         4.93953e+57
          1722.78800	         5.92594e+57
          1723.59430	         6.78304e+57
          1724.40060	         7.50749e+57
          1725.20690	         7.72442e+57
          1726.01320	         7.93294e+57
          1726.81950	         7.83601e+57
          1727.62580	         7.39400e+57
          1728.43210	         6.30264e+57
          1729.23840	         6.79777e+57
          1730.04470	         8.43243e+57
          1730.85100	         8.26704e+57
          1731.65730	         8.13915e+57
          1732.46360	         7.89686e+57
          1733.26990	         7.01037e+57
          1734.07620	         7.45550e+57
          1734.88250	         7.90810e+57
          1735.68880	         7.54046e+57
          1736.49510	         8.02560e+57
          1737.30140	         7.91501e+57
          1738.10770	         6.97637e+57
          1738.91400	         6.87503e+57
          1739.72030	         7.33163e+57
          1740.52660	         7.26002e+57
          1741.33290	         6.66574e+57
          1742.13920	         5.94942e+57
          1742.94550	         6.79836e+57
          1743.75180	         8.18296e+57
          1744.55810	         8.18061e+57
          1745.36440	         7.39111e+57
          1746.17070	         5.70947e+57
          1746.97700	         5.77675e+57
          1747.78330	         7.67105e+57
          1748.58960	         7.12530e+57
          1749.39590	         7.16830e+57
          1750.20220	         6.75944e+57
          1751.00850	         6.80118e+57
          1751.81480	         7.19821e+57
          1752.62110	         7.88379e+57
          1753.42740	         8.15265e+57
          1754.23370	         6.40329e+57
          1755.04000	         7.48942e+57
          1755.84630	         7.86361e+57
          1756.65260	         7.94253e+57
          1757.45890	         8.90352e+57
          1758.26520	         7.74860e+57
          1759.07150	         1.03871e+58
          1759.87780	         1.02190e+58
          1760.68410	         8.43319e+57
          1761.49040	         8.07668e+57
          1762.29670	         6.68913e+57
          1763.10300	         7.09503e+57
          1763.90930	         7.59738e+57
          1764.71560	         8.15752e+57
          1765.52190	         7.49788e+57
          1766.32820	         8.33519e+57
          1767.13450	         8.90412e+57
          1767.94080	         7.40614e+57
          1768.74710	         7.47487e+57
          1769.55340	         7.52862e+57
          1770.35970	         6.51701e+57
          1771.16600	         6.91914e+57
          1771.97230	         8.21010e+57
          1772.77860	         9.00597e+57
          1773.58490	         7.80181e+57
          1774.39120	         5.87604e+57
          1775.19750	         5.68979e+57
          1776.00380	         6.22549e+57
          1776.81010	         6.26766e+57
          1777.61640	         6.24751e+57
          1778.42270	         7.08532e+57
          1779.22900	         6.97173e+57
          1780.03530	         6.95143e+57
          1780.84160	         6.96254e+57
          1781.64790	         7.45276e+57
          1782.45420	         7.07495e+57
          1783.26050	         6.89371e+57
          1784.06680	         7.29257e+57
          1784.87310	         7.23271e+57
          1785.67940	         7.04276e+57
          1786.48570	         6.81522e+57
          1787.29200	         6.16760e+57
          1788.09830	         5.72486e+57
          1788.90460	         5.60854e+57
          1789.71090	         5.05508e+57
          1790.51720	         5.24231e+57
          1791.32350	         6.84195e+57
          1792.12980	         7.90102e+57
          1792.93610	         7.92681e+57
          1793.74240	         7.13408e+57
          1794.54870	         7.28224e+57
          1795.35500	         7.69897e+57
          1796.16130	         8.40756e+57
          1796.96760	         7.86767e+57
          1797.77390	         7.33689e+57
          1798.58020	         6.52957e+57
          1799.38650	         6.20844e+57
          1800.19280	         7.73305e+57
          1800.99910	         8.16107e+57
          1801.80540	         7.64789e+57
          1802.61170	         8.84262e+57
          1803.41800	         7.61996e+57
          1804.22430	         6.83366e+57
          1805.03060	         7.75409e+57
          1805.83690	         7.43866e+57
          1806.64320	         6.41906e+57
          1807.44950	         7.04440e+57
          1808.25580	         6.65314e+57
          1809.06210	         7.18374e+57
          1809.86840	         6.61960e+57
          1810.67470	         7.04354e+57
          1811.48100	         9.35419e+57
          1812.28730	         9.18956e+57
          1813.09360	         8.49831e+57
          1813.89990	         7.79420e+57
          1814.70620	         7.24530e+57
          1815.51250	         8.81699e+57
          1816.31880	         8.23734e+57
          1817.12510	         7.78173e+57
          1817.93140	         7.64336e+57
          1818.73770	         7.78930e+57
          1819.54400	         7.98449e+57
          1820.35030	         8.78851e+57
          1821.15660	         7.36519e+57
          1821.96290	         7.22631e+57
          1822.76920	         7.58423e+57
          1823.57550	         7.58362e+57
          1824.38180	         7.32571e+57
          1825.18810	         7.75993e+57
          1825.99440	         8.09851e+57
          1826.80070	         8.31714e+57
          1827.60700	         7.34396e+57
          1828.41330	         6.59492e+57
          1829.21960	         7.03939e+57
          1830.02590	         7.01044e+57
          1830.83220	         8.05181e+57
          1831.63850	         7.38941e+57
          1832.44480	         6.64046e+57
          1833.25110	         7.41781e+57
          1834.05740	         8.17087e+57
          1834.86370	         7.61315e+57
          1835.67000	         5.84920e+57
          1836.47630	         7.63131e+57
          1837.28260	         9.47322e+57
          1838.08890	         8.68677e+57
          1838.89520	         8.17610e+57
          1839.70150	         7.38629e+57
          1840.50780	         7.96958e+57
          1841.31410	         7.74472e+57
          1842.12040	         7.17013e+57
          1842.92670	         6.94497e+57
          1843.73300	         7.21829e+57
          1844.53930	         7.41999e+57
          1845.34560	         7.24644e+57
          1846.15190	         7.72790e+57
          1846.95820	         6.62418e+57
          1847.76450	         5.85823e+57
          1848.57080	         5.84696e+57
          1849.37710	         6.16356e+57
          1850.18340	         7.64825e+57
          1850.98970	         8.37512e+57
          1851.79600	         7.84724e+57
          1852.60230	         7.19530e+57
          1853.40860	         6.45395e+57
          1854.21490	         7.28199e+57
          1855.02120	         6.50612e+57
          1855.82750	         5.25388e+57
          1856.63380	         6.46930e+57
          1857.44010	         7.49250e+57
          1858.24640	         6.92355e+57
          1859.05270	         6.52208e+57
          1859.85900	         5.62438e+57
          1860.66530	         6.10750e+57
          1861.47160	         6.87675e+57
          1862.27790	         7.40401e+57
          1863.08420	         8.03423e+57
          1863.89050	         8.51032e+57
          1864.69680	         7.72990e+57
          1865.50310	         7.54216e+57
          1866.30940	         6.81574e+57
          1867.11570	         6.93395e+57
          1867.92200	         7.31502e+57
          1868.72830	         7.54428e+57
          1869.53460	         7.64860e+57
          1870.34090	         7.77816e+57
          1871.14720	         7.95302e+57
          1871.95350	         7.33734e+57
          1872.75980	         6.79771e+57
          1873.56610	         6.81978e+57
          1874.37240	         5.85543e+57
          1875.17870	         5.83921e+57
          1875.98500	         7.67511e+57
          1876.79130	         8.76977e+57
          1877.59760	         7.37332e+57
          1878.40390	         5.66366e+57
          1879.21020	         5.77219e+57
          1880.01650	         6.39873e+57
          1880.82280	         8.32605e+57
          1881.62910	         9.25413e+57
          1882.43540	         1.11501e+58
          1883.24170	         9.33501e+57
          1884.04800	         7.33002e+57
          1884.85430	         7.65629e+57
          1885.66060	         8.43439e+57
          1886.46690	         8.29893e+57
          1887.27320	         7.37548e+57
          1888.07950	         5.96033e+57
          1888.88580	         6.89030e+57
          1889.69210	         7.69574e+57
          1890.49840	         7.52060e+57
          1891.30470	         7.88778e+57
          1892.11100	         8.25917e+57
          1892.91730	         7.16504e+57
          1893.72360	         7.34455e+57
          1894.52990	         6.92672e+57
          1895.33620	         6.20234e+57
          1896.14250	         6.13154e+57
          1896.94880	         5.92363e+57
          1897.75510	         4.79701e+57
          1898.56140	         6.16477e+57
          1899.36770	         7.90962e+57
          1900.17400	         6.79265e+57
          1900.98030	         5.98720e+57
          1901.78660	         6.43519e+57
          1902.59290	         7.68363e+57
          1903.39920	         8.77651e+57
          1904.20550	         8.16628e+57
          1905.01180	         8.85362e+57
          1905.81810	         1.05069e+58
          1906.62440	         1.28472e+58
          1907.43070	         1.54784e+58
          1908.23700	         1.51081e+58
          1909.04330	         1.33059e+58
          1909.84960	         1.13009e+58
          1910.65590	         8.71717e+57
          1911.46220	         8.62794e+57
          1912.26850	         8.31133e+57
          1913.07480	         5.44667e+57
          1913.88110	         5.47942e+57
          1914.68740	         6.11643e+57
          1915.49370	         5.30953e+57
          1916.30000	         5.55098e+57
          1917.10630	         6.83854e+57
          1917.91260	         6.19070e+57
          1918.71890	         5.76652e+57
          1919.52520	         5.78890e+57
          1920.33150	         5.65736e+57
          1921.13780	         7.07356e+57
          1921.94410	         8.06542e+57
          1922.75040	         8.63260e+57
          1923.55670	         7.38808e+57
          1924.36300	         8.01487e+57
          1925.16930	         6.66347e+57
          1925.97560	         4.83609e+57
          1926.78190	         3.96885e+57
          1927.58820	         5.31477e+57
          1928.39450	         6.13744e+57
          1929.20080	         5.05131e+57
          1930.00710	         6.81582e+57
          1930.81340	         7.30261e+57
          1931.61970	         5.64312e+57
          1932.42600	         6.47895e+57
          1933.23230	         8.18131e+57
          1934.03860	         7.72242e+57
          1934.84490	         5.64853e+57
          1935.65120	         6.50643e+57
          1936.45750	         7.85318e+57
          1937.26380	         7.21169e+57
          1938.07010	         6.99215e+57
          1938.87640	         7.65463e+57
          1939.68270	         7.89599e+57
          1940.48900	         7.97830e+57
          1941.29530	         8.75188e+57
          1942.10160	         7.44850e+57
          1942.90790	         6.60877e+57
          1943.71420	         6.32448e+57
          1944.52050	         5.35540e+57
          1945.32680	         5.78828e+57
          1946.13310	         8.02806e+57
          1946.93940	         8.61096e+57
          1947.74570	         7.73485e+57
          1948.55200	         6.93803e+57
          1949.35830	         6.50484e+57
          1950.16460	         5.85653e+57
          1950.97090	         6.32854e+57
          1951.77720	         7.41804e+57
          1952.58350	         7.30871e+57
          1953.38980	         5.62033e+57
          1954.19610	         5.00300e+57
          1955.00240	         4.66110e+57
          1955.80870	         5.14664e+57
          1956.61500	         5.25833e+57
          1957.42130	         5.86606e+57
          1958.22760	         5.63350e+57
          1959.03390	         5.89645e+57
          1959.84020	         7.19517e+57
          1960.64650	         7.63524e+57
          1961.45280	         6.65318e+57
          1962.25910	         5.81398e+57
          1963.06540	         6.14190e+57
          1963.87170	         6.31950e+57
          1964.67800	         7.40141e+57
          1965.48430	         6.56374e+57
          1966.29060	         5.35733e+57
          1967.09690	         7.22471e+57
          1967.90320	         7.53934e+57
          1968.70950	         7.09446e+57
          1969.51580	         7.09436e+57
          1970.32210	         8.26798e+57
          1971.12840	         8.05146e+57
          1971.93470	         5.45890e+57
          1972.74100	         6.17580e+57
          1973.54730	         7.10515e+57
          1974.35360	         7.23279e+57
          1975.15990	         7.45379e+57
          1975.96620	         7.45277e+57
          1976.77250	         7.97071e+57
          1977.57880	         8.33071e+57
          1978.38510	         6.36481e+57
          1979.19140	         6.50547e+57
          1979.99770	         8.12954e+57
          1980.80400	         8.88034e+57
          1981.61030	         6.90529e+57
          1982.41660	         5.92174e+57
          1983.22290	         6.23335e+57
          1984.02920	         5.01855e+57
          1984.83550	         5.29760e+57
          1985.64180	         7.10405e+57
          1986.44810	         6.57139e+57
          1987.25440	         5.39609e+57
          1988.06070	         5.24601e+57
          1988.86700	         6.08597e+57
          1989.67330	         6.65918e+57
          1990.47960	         7.06528e+57
          1991.28590	         7.05696e+57
          1992.09220	         6.21290e+57
          1992.89850	         6.21706e+57
          1993.70480	         5.24195e+57
          1994.51110	         5.09359e+57
          1995.31740	         5.50673e+57
          1996.12370	         5.20330e+57
          1996.93000	         6.05989e+57
          1997.73630	         7.77238e+57
          1998.54260	         8.13244e+57
          1999.34890	         7.28633e+57
          2000.15520	         6.04619e+57
          2000.96150	         6.82630e+57
          2001.76780	         5.00826e+57
          2002.57410	         5.87371e+57
          2003.38040	         6.70186e+57
          2004.18670	         6.84464e+57
          2004.99300	         5.27941e+57
          2005.79930	         6.54437e+57
          2006.60560	         7.28074e+57
          2007.41190	         5.83565e+57
          2008.21820	         7.11341e+57
          2009.02450	         7.20171e+57
          2009.83080	         6.49382e+57
          2010.63710	         7.41074e+57
          2011.44340	         7.90298e+57
          2012.24970	         7.13541e+57
          2013.05600	         6.81282e+57
          2013.86230	         6.67912e+57
          2014.66860	         6.21279e+57
          2015.47490	         6.36233e+57
          2016.28120	         5.80778e+57
          2017.08750	         5.62352e+57
          2017.89380	         6.00759e+57
          2018.70010	         5.33675e+57
          2019.50640	         5.38520e+57
          2020.31270	         6.97636e+57
          2021.11900	         6.90650e+57
          2021.92530	         7.26471e+57
          2022.73160	         8.34112e+57
          2023.53790	         6.87262e+57
          2024.34420	         5.17016e+57
          2025.15050	         5.47402e+57
          2025.95680	         6.40111e+57
          2026.76310	         6.40862e+57
          2027.56940	         5.94137e+57
          2028.37570	         6.84486e+57
          2029.18200	         6.69173e+57
          2029.98830	         6.68862e+57
          2030.79460	         6.02360e+57
          2031.60090	         6.12324e+57
          2032.40720	         5.85115e+57
          2033.21350	         4.66178e+57
          2034.01980	         4.40670e+57
          2034.82610	         4.42320e+57
          2035.63240	         5.80772e+57
          2036.43870	         6.33029e+57
          2037.24500	         6.01569e+57
          2038.05130	         6.23694e+57
          2038.85760	         5.29329e+57
          2039.66390	         4.77332e+57
          2040.47020	         5.60322e+57
          2041.27650	         5.79812e+57
          2042.08280	         4.98754e+57
          2042.88910	         5.10450e+57
          2043.69540	         6.13606e+57
          2044.50170	         7.33219e+57
          2045.30800	         5.89639e+57
          2046.11430	         5.79594e+57
          2046.92060	         7.37272e+57
          2047.72690	         7.59444e+57
          2048.53320	         7.49836e+57
          2049.33950	         5.95639e+57
          2050.14580	         5.59684e+57
          2050.95210	         6.63157e+57
          2051.75840	         7.48572e+57
          2052.56470	         5.90013e+57
          2053.37100	         3.88428e+57
          2054.17730	         4.65150e+57
          2054.98360	         4.72371e+57
          2055.78990	         4.07634e+57
          2056.59620	         2.96255e+57
          2057.40250	         4.61211e+57
          2058.20880	         5.81346e+57
          2059.01510	         6.23490e+57
          2059.82140	         5.89249e+57
          2060.62770	         1.07035e+58
          2061.43400	         1.55711e+58
          2062.24030	         1.56551e+58
          2063.04660	         7.77959e+57
          2063.85290	         3.42179e+57
          2064.65920	        -7.07641e+57
          2065.46550	        -1.17386e+58
          2066.27180	        -7.29494e+57
          2067.07810	         3.41698e+57
          2067.88440	         4.40154e+57
          2068.69070	         6.82076e+57
          2069.49700	         5.62636e+57
          2070.30330	         3.84892e+57
          2071.10960	         7.05603e+57
          2071.91590	         6.24197e+57
          2072.72220	         4.07260e+57
          2073.52850	         5.13880e+57
          2074.33480	         5.29021e+57
          2075.14110	         5.19833e+57
          2075.94740	         3.29190e+57
          2076.75370	         3.26332e+57
          2077.56000	         5.54942e+57
          2078.36630	         5.80964e+57
          2079.17260	         4.89350e+57
          2079.97890	         5.41260e+57
          2080.78520	         4.79730e+57
          2081.59150	         4.76445e+57
          2082.39780	         6.06520e+57
          2083.20410	         4.92166e+57
          2084.01040	         2.84814e+57
          2084.81670	         2.19207e+57
          2085.62300	         3.10866e+57
          2086.42930	         2.30231e+57
          2087.23560	         4.55464e+57
          2088.04190	         4.68891e+57
          2088.84820	         2.26857e+57
          2089.65450	         2.46564e+57
          2090.46080	         2.23173e+57
          2091.26710	         1.29785e+57
          2092.07340	         2.42591e+57
          2092.87970	         4.72708e+57
          2093.68600	         1.21371e+57
          2094.49230	         2.93733e+56
          2095.29860	         3.41245e+57
          2096.10490	         1.41770e+57
          2096.91120	         8.57509e+56
          2097.71750	         4.91262e+56
          2098.52380	         6.34633e+56
          2099.33010	        -1.48574e+56
          2100.13640	         1.38043e+57
          2100.94270	         2.58023e+57
          2101.74900	         2.71537e+57
          2102.55530	         2.23693e+57
          2103.36160	         4.12803e+57
          2104.16790	         5.33485e+57
          2104.97420	         3.78848e+57
          2105.78050	         1.70299e+57
          2106.58680	         8.59815e+56
          2107.39310	         4.48183e+56
          2108.19940	         2.78840e+57
          2109.00570	         5.44177e+56
          2109.81200	         1.25456e+57
          2110.61830	         6.31795e+56
          2111.42460	         7.21240e+56
          2112.23090	         2.93893e+57
          2113.03720	         3.19436e+56
          2113.84350	         5.60040e+56
          2114.64980	        -1.47425e+57
          2115.45610	         9.61093e+56
          2116.26240	        -1.04686e+57
          2117.06870	        -4.34748e+56
          2117.87500	        -1.55515e+57
          2118.68130	         9.07952e+56
          2119.48760	         1.20237e+57
          2120.29390	        -2.39068e+57
          2121.10020	        -3.47854e+57
          2121.90650	        -3.78232e+57
          2122.71280	        -3.32585e+57
          2123.51910	         2.18127e+57
          2124.32540	         9.24007e+56
          2125.13170	         3.46114e+57
          2125.93800	         3.14772e+57
          2126.74430	        -1.57626e+57
          2127.55060	        -2.79896e+57
          2128.35690	        -2.14322e+57
          2129.16320	        -1.56551e+57
          2129.96950	         3.60824e+56
          2130.77580	         7.42444e+56
          2131.58210	        -1.81367e+57
          2132.38840	         2.34518e+57
          2133.19470	        -4.78921e+56
          2134.00100	        -1.26310e+57
          2134.80730	         2.94087e+57
          2135.61360	        -4.39840e+57
          2136.41990	        -5.44147e+57
          2137.22620	        -2.44572e+57
          2138.03250	         2.37876e+57
          2138.83880	         5.88598e+56
          2139.64510	         5.71667e+57
          2140.45140	        -3.85808e+57
          2141.25770	        -1.09160e+58
          2142.06400	        -9.10222e+57
          2142.87030	         4.63228e+57
          2143.67660	        -1.82711e+57
          2144.48290	         6.53859e+57
          2145.28920	         1.76944e+58
          2146.09550	        -2.39241e+57
          2146.90180	        -5.88363e+57
          2147.70810	        -4.61138e+57
          2148.51440	        -1.60981e+57
          2149.32070	        -6.31602e+57
          2150.12700	        -1.03249e+58
          2150.93330	        -3.37949e+57
          2151.73960	         2.06003e+56
          2152.54590	         4.89982e+57
          2153.35220	         2.79490e+57
          2154.15850	        -1.68087e+57
          2154.96480	         5.45952e+57
          2155.77110	         1.10971e+57
          2156.57740	        -3.11907e+57
          2157.38370	        -6.32386e+57
          2158.19000	        -2.88487e+56
          2158.99630	        -3.50751e+57
          2159.80260	        -1.32321e+58
          2160.60890	        -9.19868e+57
          2161.41520	        -5.25290e+56
          2162.22150	        -1.03114e+57
          2163.02780	        -3.88221e+56
          2163.83410	        -5.31718e+57
          2164.64040	        -3.00113e+57
          2165.44670	        -8.82077e+57
          2166.25300	        -3.49511e+57
          2167.05930	        -9.22795e+56
          2167.86560	        -1.34325e+58
          2168.67190	        -1.36708e+58
          2169.47820	        -2.40823e+57
          2170.28450	        -1.01776e+58
          2171.09080	        -5.58480e+57
          2171.89710	        -1.54698e+57
          2172.70340	        -2.78745e+57
          2173.50970	        -8.05131e+57
          2174.31600	        -7.54550e+57
          2175.12230	        -5.31370e+57
          2175.92860	        -2.31470e+57
          2176.73490	        -3.46658e+57
          2177.54120	        -6.53695e+57
          2178.34750	        -4.73317e+57
          2179.15380	                 nan
          2179.96010	                 nan
          2180.76640	                 nan
          2181.57270	                 nan
          2182.37900	                 nan
          2183.18530	                 nan
          2183.99160	                 nan
          2184.79790	                 nan
          2185.60420	                 nan
          2186.41050	                 nan
          2187.21680	                 nan
          2188.02310	                 nan
          2188.82940	                 nan
          2189.63570	                 nan
          2190.44200	                 nan
          2191.24830	                 nan
          2192.05460	                 nan
          2192.86090	                 nan
          2193.66720	                 nan
          2194.47350	                 nan
          2195.27980	                 nan
          2196.08610	                 nan
          2196.89240	                 nan
          2197.69870	                 nan
          2198.50500	                 nan
          2199.31130	                 nan
          2200.11760	                 nan
          2200.92390	                 nan
          2201.73020	                 nan
          2202.53650	                 nan
          2203.34280	                 nan
          2204.14910	                 nan
          2204.95540	                 nan
          2205.76170	                 nan
          2206.56800	                 nan
          2207.37430	                 nan
          2208.18060	                 nan
          2208.98690	                 nan
          2209.79320	                 nan
          2210.59950	                 nan
          2211.40580	                 nan
          2212.21210	                 nan
          2213.01840	                 nan
          2213.82470	                 nan
          2214.63100	                 nan
          2215.43730	         0.00000e+00
