#sample_367_stacked_spectrum_rest_UV-bands_median_H-alpha_noDC.txt
#median Lum: 1.66544e+42
#Rest-frame wavelength (A) | Luminosity (erg/s/A)
#
          1110.00000	         0.00000e+00
          1110.80630	        -9.12577e+58
          1111.61260	         1.30115e+59
          1112.41890	         1.21753e+59
          1113.22520	         1.02323e+59
          1114.03150	        -1.00355e+59
          1114.83780	         5.11791e+57
          1115.64410	        -7.18912e+58
          1116.45040	         1.82257e+58
          1117.25670	         4.20261e+58
          1118.06300	        -2.77297e+58
          1118.86930	        -6.62774e+57
          1119.67560	         1.59628e+58
          1120.48190	        -8.41533e+58
          1121.28820	        -2.18803e+59
          1122.09450	        -3.03172e+58
          1122.90080	         3.45303e+58
          1123.70710	         1.33884e+58
          1124.51340	         3.54112e+58
          1125.31970	         3.92107e+58
          1126.12600	         7.39236e+57
          1126.93230	        -7.24000e+58
          1127.73860	        -2.66041e+58
          1128.54490	        -8.67256e+57
          1129.35120	         7.31562e+57
          1130.15750	        -2.84406e+58
          1130.96380	        -8.16479e+57
          1131.77010	         2.48992e+58
          1132.57640	         5.53105e+58
          1133.38270	         5.21769e+58
          1134.18900	         1.65836e+58
          1134.99530	         2.37726e+58
          1135.80160	         1.05465e+58
          1136.60790	        -3.04645e+57
          1137.41420	        -1.56237e+58
          1138.22050	         2.56632e+58
          1139.02680	         1.91593e+58
          1139.83310	        -4.02880e+57
          1140.63940	         1.18001e+58
          1141.44570	        -1.84179e+58
          1142.25200	        -6.76417e+57
          1143.05830	         3.36130e+58
          1143.86460	         2.37808e+58
          1144.67090	         3.00095e+58
          1145.47720	         1.69213e+58
          1146.28350	         1.78809e+58
          1147.08980	         1.19428e+58
          1147.89610	         1.80909e+58
          1148.70240	         3.29075e+58
          1149.50870	         2.59355e+58
          1150.31500	         1.14130e+58
          1151.12130	         1.25763e+58
          1151.92760	         6.12232e+57
          1152.73390	         6.57276e+57
          1153.54020	         8.05979e+57
          1154.34650	         2.37301e+58
          1155.15280	         1.49266e+58
          1155.95910	         9.13834e+57
          1156.76540	         3.21077e+57
          1157.57170	        -4.62533e+57
          1158.37800	         7.69414e+56
          1159.18430	         3.84516e+57
          1159.99060	         2.10529e+57
          1160.79690	        -7.98711e+57
          1161.60320	         1.26725e+58
          1162.40950	         1.09534e+58
          1163.21580	         1.70849e+58
          1164.02210	         2.16884e+58
          1164.82840	         1.24684e+58
          1165.63470	         1.97507e+58
          1166.44100	         3.05307e+58
          1167.24730	         2.63926e+58
          1168.05360	         1.14194e+58
          1168.85990	         1.11791e+58
          1169.66620	         7.70509e+57
          1170.47250	         1.21825e+58
          1171.27880	         1.19204e+58
          1172.08510	         1.65345e+58
          1172.89140	         9.34191e+57
          1173.69770	         9.60463e+57
          1174.50400	         1.06080e+58
          1175.31030	         1.39130e+58
          1176.11660	         1.88311e+58
          1176.92290	         1.79768e+58
          1177.72920	         1.03712e+58
          1178.53550	         3.31378e+57
          1179.34180	         2.47348e+57
          1180.14810	         7.38282e+57
          1180.95440	         1.16818e+58
          1181.76070	         9.80204e+57
          1182.56700	         1.17013e+58
          1183.37330	         8.96564e+57
          1184.17960	         1.34637e+58
          1184.98590	         1.73177e+58
          1185.79220	         1.13442e+58
          1186.59850	         1.25169e+58
          1187.40480	         1.32079e+58
          1188.21110	         1.59140e+58
          1189.01740	         1.25223e+58
          1189.82370	         1.38581e+58
          1190.63000	         8.08550e+57
          1191.43630	         9.39303e+57
          1192.24260	         5.20669e+57
          1193.04890	         9.40083e+57
          1193.85520	         1.35278e+58
          1194.66150	         8.51718e+57
          1195.46780	         8.18611e+57
          1196.27410	         1.45463e+58
          1197.08040	         1.02148e+58
          1197.88670	         1.24882e+58
          1198.69300	         1.75081e+58
          1199.49930	         1.74761e+58
          1200.30560	         1.08314e+58
          1201.11190	         1.40209e+58
          1201.91820	         1.39953e+58
          1202.72450	         9.68575e+57
          1203.53080	         1.41738e+58
          1204.33710	         6.73347e+57
          1205.14340	         5.76810e+57
          1205.94970	         3.88050e+57
          1206.75600	         4.06318e+57
          1207.56230	         8.64058e+57
          1208.36860	         1.20493e+58
          1209.17490	         8.31048e+57
          1209.98120	         6.00819e+57
          1210.78750	         8.65675e+57
          1211.59380	         1.13750e+58
          1212.40010	         1.77256e+58
          1213.20640	         2.03256e+58
          1214.01270	         2.31707e+58
          1214.81900	         2.50482e+58
          1215.62530	         4.22141e+58
          1216.43160	         8.98318e+58
          1217.23790	         1.50464e+59
          1218.04420	         1.12906e+59
          1218.85050	         8.61363e+58
          1219.65680	         5.49008e+58
          1220.46310	         3.23902e+58
          1221.26940	         2.28842e+58
          1222.07570	         1.01630e+58
          1222.88200	         1.08121e+58
          1223.68830	         1.32590e+58
          1224.49460	         9.90489e+57
          1225.30090	         8.15317e+57
          1226.10720	         6.58677e+57
          1226.91350	         5.98199e+57
          1227.71980	         9.12636e+57
          1228.52610	         1.23253e+58
          1229.33240	         1.20594e+58
          1230.13870	         1.06508e+58
          1230.94500	         8.06853e+57
          1231.75130	         4.47543e+57
          1232.55760	         6.92396e+57
          1233.36390	         7.27646e+57
          1234.17020	         7.61221e+57
          1234.97650	         7.47632e+57
          1235.78280	         8.30908e+57
          1236.58910	         1.10158e+58
          1237.39540	         1.38860e+58
          1238.20170	         1.10045e+58
          1239.00800	         9.90566e+57
          1239.81430	         1.33272e+58
          1240.62060	         1.26708e+58
          1241.42690	         1.32426e+58
          1242.23320	         1.26772e+58
          1243.03950	         8.31937e+57
          1243.84580	         8.17039e+57
          1244.65210	         1.04053e+58
          1245.45840	         1.26527e+58
          1246.26470	         1.20056e+58
          1247.07100	         1.03388e+58
          1247.87730	         7.62611e+57
          1248.68360	         2.19418e+57
          1249.48990	         4.80851e+57
          1250.29620	         1.05368e+58
          1251.10250	         7.84351e+57
          1251.90880	         4.46523e+57
          1252.71510	         4.80227e+57
          1253.52140	         6.11543e+57
          1254.32770	         7.69192e+57
          1255.13400	         1.15578e+58
          1255.94030	         1.20760e+58
          1256.74660	         9.94775e+57
          1257.55290	         8.82863e+57
          1258.35920	         7.61775e+57
          1259.16550	         4.17513e+57
          1259.97180	         4.13289e+57
          1260.77810	         7.54301e+57
          1261.58440	         1.11385e+58
          1262.39070	         1.01201e+58
          1263.19700	         8.29624e+57
          1264.00330	         9.78251e+57
          1264.80960	         9.73646e+57
          1265.61590	         1.07701e+58
          1266.42220	         1.05261e+58
          1267.22850	         9.32070e+57
          1268.03480	         1.29618e+58
          1268.84110	         1.53798e+58
          1269.64740	         1.44229e+58
          1270.45370	         1.22998e+58
          1271.26000	         9.95635e+57
          1272.06630	         1.24326e+58
          1272.87260	         1.39950e+58
          1273.67890	         1.36430e+58
          1274.48520	         1.15404e+58
          1275.29150	         1.11751e+58
          1276.09780	         1.15189e+58
          1276.90410	         1.43129e+58
          1277.71040	         1.36703e+58
          1278.51670	         1.26016e+58
          1279.32300	         1.53401e+58
          1280.12930	         1.35377e+58
          1280.93560	         1.08680e+58
          1281.74190	         1.24088e+58
          1282.54820	         1.15591e+58
          1283.35450	         1.10250e+58
          1284.16080	         1.21207e+58
          1284.96710	         1.33827e+58
          1285.77340	         1.02797e+58
          1286.57970	         1.03569e+58
          1287.38600	         1.44789e+58
          1288.19230	         1.70847e+58
          1288.99860	         1.59143e+58
          1289.80490	         1.13276e+58
          1290.61120	         1.24944e+58
          1291.41750	         1.41402e+58
          1292.22380	         1.29577e+58
          1293.03010	         1.30541e+58
          1293.83640	         1.44278e+58
          1294.64270	         1.18331e+58
          1295.44900	         7.29632e+57
          1296.25530	         9.47986e+57
          1297.06160	         9.75819e+57
          1297.86790	         8.51424e+57
          1298.67420	         8.09000e+57
          1299.48050	         9.43240e+57
          1300.28680	         1.03366e+58
          1301.09310	         8.57322e+57
          1301.89940	         4.24780e+57
          1302.70570	         5.41034e+57
          1303.51200	         6.48036e+57
          1304.31830	         9.97392e+57
          1305.12460	         1.06550e+58
          1305.93090	         1.04981e+58
          1306.73720	         1.16539e+58
          1307.54350	         1.35756e+58
          1308.34980	         1.41193e+58
          1309.15610	         1.41603e+58
          1309.96240	         1.45393e+58
          1310.76870	         1.43450e+58
          1311.57500	         1.20405e+58
          1312.38130	         1.25408e+58
          1313.18760	         1.64334e+58
          1313.99390	         1.53646e+58
          1314.80020	         1.46655e+58
          1315.60650	         1.49682e+58
          1316.41280	         1.24509e+58
          1317.21910	         1.06928e+58
          1318.02540	         1.22503e+58
          1318.83170	         1.41574e+58
          1319.63800	         1.28024e+58
          1320.44430	         1.05830e+58
          1321.25060	         1.20305e+58
          1322.05690	         1.19502e+58
          1322.86320	         1.17573e+58
          1323.66950	         1.05950e+58
          1324.47580	         9.19497e+57
          1325.28210	         9.75131e+57
          1326.08840	         1.10454e+58
          1326.89470	         1.31917e+58
          1327.70100	         1.00722e+58
          1328.50730	         6.96071e+57
          1329.31360	         7.91332e+57
          1330.11990	         8.89439e+57
          1330.92620	         9.40854e+57
          1331.73250	         1.11588e+58
          1332.53880	         1.02129e+58
          1333.34510	         8.98669e+57
          1334.15140	         9.03567e+57
          1334.95770	         9.38729e+57
          1335.76400	         9.46645e+57
          1336.57030	         1.06476e+58
          1337.37660	         1.06376e+58
          1338.18290	         1.09321e+58
          1338.98920	         1.26917e+58
          1339.79550	         1.22208e+58
          1340.60180	         1.09143e+58
          1341.40810	         1.29718e+58
          1342.21440	         1.18695e+58
          1343.02070	         1.13351e+58
          1343.82700	         1.30606e+58
          1344.63330	         1.29589e+58
          1345.43960	         1.29362e+58
          1346.24590	         1.02138e+58
          1347.05220	         1.11742e+58
          1347.85850	         1.06874e+58
          1348.66480	         1.03267e+58
          1349.47110	         1.16493e+58
          1350.27740	         1.11668e+58
          1351.08370	         1.16738e+58
          1351.89000	         1.27364e+58
          1352.69630	         1.13012e+58
          1353.50260	         1.25440e+58
          1354.30890	         1.31533e+58
          1355.11520	         1.25926e+58
          1355.92150	         1.08487e+58
          1356.72780	         1.03562e+58
          1357.53410	         1.14128e+58
          1358.34040	         1.10524e+58
          1359.14670	         1.12760e+58
          1359.95300	         1.08039e+58
          1360.75930	         1.19861e+58
          1361.56560	         1.17496e+58
          1362.37190	         1.24238e+58
          1363.17820	         1.22937e+58
          1363.98450	         1.16053e+58
          1364.79080	         1.25933e+58
          1365.59710	         1.39741e+58
          1366.40340	         1.11818e+58
          1367.20970	         8.31709e+57
          1368.01600	         9.60566e+57
          1368.82230	         1.07800e+58
          1369.62860	         9.94637e+57
          1370.43490	         7.68335e+57
          1371.24120	         9.06970e+57
          1372.04750	         9.13695e+57
          1372.85380	         1.17626e+58
          1373.66010	         1.16274e+58
          1374.46640	         9.40251e+57
          1375.27270	         9.07000e+57
          1376.07900	         9.45315e+57
          1376.88530	         1.00081e+58
          1377.69160	         8.25547e+57
          1378.49790	         6.15852e+57
          1379.30420	         6.95448e+57
          1380.11050	         7.86852e+57
          1380.91680	         8.27809e+57
          1381.72310	         9.23323e+57
          1382.52940	         8.09199e+57
          1383.33570	         7.54367e+57
          1384.14200	         9.45840e+57
          1384.94830	         1.20653e+58
          1385.75460	         1.19676e+58
          1386.56090	         1.11831e+58
          1387.36720	         1.06378e+58
          1388.17350	         1.18086e+58
          1388.97980	         1.13359e+58
          1389.78610	         9.21473e+57
          1390.59240	         8.23898e+57
          1391.39870	         5.99020e+57
          1392.20500	         8.50195e+57
          1393.01130	         8.61787e+57
          1393.81760	         6.28986e+57
          1394.62390	         7.42852e+57
          1395.43020	         7.83508e+57
          1396.23650	         7.24113e+57
          1397.04280	         7.46693e+57
          1397.84910	         9.11564e+57
          1398.65540	         8.72185e+57
          1399.46170	         9.71361e+57
          1400.26800	         8.80910e+57
          1401.07430	         7.59394e+57
          1401.88060	         7.78718e+57
          1402.68690	         9.32913e+57
          1403.49320	         1.00749e+58
          1404.29950	         9.58389e+57
          1405.10580	         9.68222e+57
          1405.91210	         9.84661e+57
          1406.71840	         1.03462e+58
          1407.52470	         1.07880e+58
          1408.33100	         9.47472e+57
          1409.13730	         1.03655e+58
          1409.94360	         1.15896e+58
          1410.74990	         1.15748e+58
          1411.55620	         1.01740e+58
          1412.36250	         1.00786e+58
          1413.16880	         1.04180e+58
          1413.97510	         9.92426e+57
          1414.78140	         1.00379e+58
          1415.58770	         1.17192e+58
          1416.39400	         1.03728e+58
          1417.20030	         9.45859e+57
          1418.00660	         1.01991e+58
          1418.81290	         1.05272e+58
          1419.61920	         1.02810e+58
          1420.42550	         1.23299e+58
          1421.23180	         1.33788e+58
          1422.03810	         1.20114e+58
          1422.84440	         1.08630e+58
          1423.65070	         1.20622e+58
          1424.45700	         1.15856e+58
          1425.26330	         9.42700e+57
          1426.06960	         9.63425e+57
          1426.87590	         1.07694e+58
          1427.68220	         1.07582e+58
          1428.48850	         1.18263e+58
          1429.29480	         1.11509e+58
          1430.10110	         9.56600e+57
          1430.90740	         8.50952e+57
          1431.71370	         8.33976e+57
          1432.52000	         8.93685e+57
          1433.32630	         8.09807e+57
          1434.13260	         8.07385e+57
          1434.93890	         8.58692e+57
          1435.74520	         9.53375e+57
          1436.55150	         9.41294e+57
          1437.35780	         8.37605e+57
          1438.16410	         9.12081e+57
          1438.97040	         8.37462e+57
          1439.77670	         8.21686e+57
          1440.58300	         9.90968e+57
          1441.38930	         9.40461e+57
          1442.19560	         9.40816e+57
          1443.00190	         1.00987e+58
          1443.80820	         1.09083e+58
          1444.61450	         9.28991e+57
          1445.42080	         7.42400e+57
          1446.22710	         8.68404e+57
          1447.03340	         9.71693e+57
          1447.83970	         1.17285e+58
          1448.64600	         1.11554e+58
          1449.45230	         1.00034e+58
          1450.25860	         1.05943e+58
          1451.06490	         8.79596e+57
          1451.87120	         7.37129e+57
          1452.67750	         6.97022e+57
          1453.48380	         8.59274e+57
          1454.29010	         7.58353e+57
          1455.09640	         7.09337e+57
          1455.90270	         8.80614e+57
          1456.70900	         8.79225e+57
          1457.51530	         1.00167e+58
          1458.32160	         1.25365e+58
          1459.12790	         1.18014e+58
          1459.93420	         1.07481e+58
          1460.74050	         8.99509e+57
          1461.54680	         7.98453e+57
          1462.35310	         8.57260e+57
          1463.15940	         1.05544e+58
          1463.96570	         1.11493e+58
          1464.77200	         1.16953e+58
          1465.57830	         1.12365e+58
          1466.38460	         9.91675e+57
          1467.19090	         8.65724e+57
          1467.99720	         1.00275e+58
          1468.80350	         9.77018e+57
          1469.60980	         9.10333e+57
          1470.41610	         1.05311e+58
          1471.22240	         1.01054e+58
          1472.02870	         9.69043e+57
          1472.83500	         1.07929e+58
          1473.64130	         1.01487e+58
          1474.44760	         9.94777e+57
          1475.25390	         9.06094e+57
          1476.06020	         8.25353e+57
          1476.86650	         8.19458e+57
          1477.67280	         8.15151e+57
          1478.47910	         7.43341e+57
          1479.28540	         7.67060e+57
          1480.09170	         9.18580e+57
          1480.89800	         8.73376e+57
          1481.70430	         7.57571e+57
          1482.51060	         7.63185e+57
          1483.31690	         7.27437e+57
          1484.12320	         7.15975e+57
          1484.92950	         6.79742e+57
          1485.73580	         7.84060e+57
          1486.54210	         8.43528e+57
          1487.34840	         8.23948e+57
          1488.15470	         9.06166e+57
          1488.96100	         9.50352e+57
          1489.76730	         8.84453e+57
          1490.57360	         8.69631e+57
          1491.37990	         8.20498e+57
          1492.18620	         8.33033e+57
          1492.99250	         8.54737e+57
          1493.79880	         8.76084e+57
          1494.60510	         8.91659e+57
          1495.41140	         7.41859e+57
          1496.21770	         7.34531e+57
          1497.02400	         9.11302e+57
          1497.83030	         8.83950e+57
          1498.63660	         8.18690e+57
          1499.44290	         7.92640e+57
          1500.24920	         7.99521e+57
          1501.05550	         8.87852e+57
          1501.86180	         8.59739e+57
          1502.66810	         9.29810e+57
          1503.47440	         9.62141e+57
          1504.28070	         8.60626e+57
          1505.08700	         1.00841e+58
          1505.89330	         1.06158e+58
          1506.69960	         9.19928e+57
          1507.50590	         8.42082e+57
          1508.31220	         8.06749e+57
          1509.11850	         7.90935e+57
          1509.92480	         9.96268e+57
          1510.73110	         1.04872e+58
          1511.53740	         8.53733e+57
          1512.34370	         7.27712e+57
          1513.15000	         9.08033e+57
          1513.95630	         9.87536e+57
          1514.76260	         8.45050e+57
          1515.56890	         8.47644e+57
          1516.37520	         9.09192e+57
          1517.18150	         7.73222e+57
          1517.98780	         7.17751e+57
          1518.79410	         7.04946e+57
          1519.60040	         7.61459e+57
          1520.40670	         9.03060e+57
          1521.21300	         9.26914e+57
          1522.01930	         8.98016e+57
          1522.82560	         9.17925e+57
          1523.63190	         1.08588e+58
          1524.43820	         9.54348e+57
          1525.24450	         6.55644e+57
          1526.05080	         5.75138e+57
          1526.85710	         6.48535e+57
          1527.66340	         7.69636e+57
          1528.46970	         8.10651e+57
          1529.27600	         8.09112e+57
          1530.08230	         8.62107e+57
          1530.88860	         7.63167e+57
          1531.69490	         8.37586e+57
          1532.50120	         8.58353e+57
          1533.30750	         8.64588e+57
          1534.11380	         8.90626e+57
          1534.92010	         9.53687e+57
          1535.72640	         9.31203e+57
          1536.53270	         9.24640e+57
          1537.33900	         8.65928e+57
          1538.14530	         8.93119e+57
          1538.95160	         9.89230e+57
          1539.75790	         9.09437e+57
          1540.56420	         9.36043e+57
          1541.37050	         8.15283e+57
          1542.17680	         6.72463e+57
          1542.98310	         6.48467e+57
          1543.78940	         7.21555e+57
          1544.59570	         6.72609e+57
          1545.40200	         7.68444e+57
          1546.20830	         9.65943e+57
          1547.01460	         1.12667e+58
          1547.82090	         1.10194e+58
          1548.62720	         1.25119e+58
          1549.43350	         1.25430e+58
          1550.23980	         1.11068e+58
          1551.04610	         1.19717e+58
          1551.85240	         1.19870e+58
          1552.65870	         1.20348e+58
          1553.46500	         1.02977e+58
          1554.27130	         9.63331e+57
          1555.07760	         9.38218e+57
          1555.88390	         8.82426e+57
          1556.69020	         9.24153e+57
          1557.49650	         8.83456e+57
          1558.30280	         7.76439e+57
          1559.10910	         8.18231e+57
          1559.91540	         8.73046e+57
          1560.72170	         8.62988e+57
          1561.52800	         8.86851e+57
          1562.33430	         8.59940e+57
          1563.14060	         8.23139e+57
          1563.94690	         8.15642e+57
          1564.75320	         7.80269e+57
          1565.55950	         6.71455e+57
          1566.36580	         7.47559e+57
          1567.17210	         9.64182e+57
          1567.97840	         9.83922e+57
          1568.78470	         8.80272e+57
          1569.59100	         8.69100e+57
          1570.39730	         8.55604e+57
          1571.20360	         7.28684e+57
          1572.00990	         7.25138e+57
          1572.81620	         8.88757e+57
          1573.62250	         9.77681e+57
          1574.42880	         9.08106e+57
          1575.23510	         8.09387e+57
          1576.04140	         8.96559e+57
          1576.84770	         9.52937e+57
          1577.65400	         8.96232e+57
          1578.46030	         9.82221e+57
          1579.26660	         1.01291e+58
          1580.07290	         9.23414e+57
          1580.87920	         7.66237e+57
          1581.68550	         7.19717e+57
          1582.49180	         7.97785e+57
          1583.29810	         7.66621e+57
          1584.10440	         8.06442e+57
          1584.91070	         8.81562e+57
          1585.71700	         9.08500e+57
          1586.52330	         8.90777e+57
          1587.32960	         8.44536e+57
          1588.13590	         8.74833e+57
          1588.94220	         8.31147e+57
          1589.74850	         8.79048e+57
          1590.55480	         9.02479e+57
          1591.36110	         8.12358e+57
          1592.16740	         8.22641e+57
          1592.97370	         7.96045e+57
          1593.78000	         8.04976e+57
          1594.58630	         8.09481e+57
          1595.39260	         8.12855e+57
          1596.19890	         8.36230e+57
          1597.00520	         8.51594e+57
          1597.81150	         9.24362e+57
          1598.61780	         7.69723e+57
          1599.42410	         6.30787e+57
          1600.23040	         6.37346e+57
          1601.03670	         7.39088e+57
          1601.84300	         6.86227e+57
          1602.64930	         7.97303e+57
          1603.45560	         9.17152e+57
          1604.26190	         7.50495e+57
          1605.06820	         6.83233e+57
          1605.87450	         7.32612e+57
          1606.68080	         6.54661e+57
          1607.48710	         5.46674e+57
          1608.29340	         5.22227e+57
          1609.09970	         6.35103e+57
          1609.90600	         6.31428e+57
          1610.71230	         6.21184e+57
          1611.51860	         6.97819e+57
          1612.32490	         6.72203e+57
          1613.13120	         7.47408e+57
          1613.93750	         7.85309e+57
          1614.74380	         8.68808e+57
          1615.55010	         9.03264e+57
          1616.35640	         9.04487e+57
          1617.16270	         1.02523e+58
          1617.96900	         1.05634e+58
          1618.77530	         8.30744e+57
          1619.58160	         8.47945e+57
          1620.38790	         8.07178e+57
          1621.19420	         8.48775e+57
          1622.00050	         8.12627e+57
          1622.80680	         9.35764e+57
          1623.61310	         9.69637e+57
          1624.41940	         8.64541e+57
          1625.22570	         9.41666e+57
          1626.03200	         9.10041e+57
          1626.83830	         8.23355e+57
          1627.64460	         8.69269e+57
          1628.45090	         7.26317e+57
          1629.25720	         9.65166e+57
          1630.06350	         1.08974e+58
          1630.86980	         7.61659e+57
          1631.67610	         8.67851e+57
          1632.48240	         8.18321e+57
          1633.28870	         7.29390e+57
          1634.09500	         8.30137e+57
          1634.90130	         1.09264e+58
          1635.70760	         9.84114e+57
          1636.51390	         7.97541e+57
          1637.32020	         6.56993e+57
          1638.12650	         7.45804e+57
          1638.93280	         9.47473e+57
          1639.73910	         1.06321e+58
          1640.54540	         1.05926e+58
          1641.35170	         9.48472e+57
          1642.15800	         9.44129e+57
          1642.96430	         8.10322e+57
          1643.77060	         7.08160e+57
          1644.57690	         6.90225e+57
          1645.38320	         7.55652e+57
          1646.18950	         7.05903e+57
          1646.99580	         8.81186e+57
          1647.80210	         7.97529e+57
          1648.60840	         7.02800e+57
          1649.41470	         8.69871e+57
          1650.22100	         7.45175e+57
          1651.02730	         7.21290e+57
          1651.83360	         6.45630e+57
          1652.63990	         7.38653e+57
          1653.44620	         9.12000e+57
          1654.25250	         8.06859e+57
          1655.05880	         7.36207e+57
          1655.86510	         8.06879e+57
          1656.67140	         8.16579e+57
          1657.47770	         7.79805e+57
          1658.28400	         7.18123e+57
          1659.09030	         8.04265e+57
          1659.89660	         9.64999e+57
          1660.70290	         1.00292e+58
          1661.50920	         9.76727e+57
          1662.31550	         8.56020e+57
          1663.12180	         8.48043e+57
          1663.92810	         8.88477e+57
          1664.73440	         1.06490e+58
          1665.54070	         1.24360e+58
          1666.34700	         1.18095e+58
          1667.15330	         1.13250e+58
          1667.95960	         9.29803e+57
          1668.76590	         7.68827e+57
          1669.57220	         6.68705e+57
          1670.37850	         7.51378e+57
          1671.18480	         7.94154e+57
          1671.99110	         7.80182e+57
          1672.79740	         6.71718e+57
          1673.60370	         5.69148e+57
          1674.41000	         6.29844e+57
          1675.21630	         7.65763e+57
          1676.02260	         7.26316e+57
          1676.82890	         6.56138e+57
          1677.63520	         6.40698e+57
          1678.44150	         6.26875e+57
          1679.24780	         8.26331e+57
          1680.05410	         8.01035e+57
          1680.86040	         5.98448e+57
          1681.66670	         7.05730e+57
          1682.47300	         9.60777e+57
          1683.27930	         8.62039e+57
          1684.08560	         8.17430e+57
          1684.89190	         7.76287e+57
          1685.69820	         6.12984e+57
          1686.50450	         6.39018e+57
          1687.31080	         7.50998e+57
          1688.11710	         8.24488e+57
          1688.92340	         7.35101e+57
          1689.72970	         6.51301e+57
          1690.53600	         6.49090e+57
          1691.34230	         7.26442e+57
          1692.14860	         7.83882e+57
          1692.95490	         7.10100e+57
          1693.76120	         7.24821e+57
          1694.56750	         7.61770e+57
          1695.37380	         8.74399e+57
          1696.18010	         8.87886e+57
          1696.98640	         8.89427e+57
          1697.79270	         7.72339e+57
          1698.59900	         7.60090e+57
          1699.40530	         7.27755e+57
          1700.21160	         7.78958e+57
          1701.01790	         8.33180e+57
          1701.82420	         8.33664e+57
          1702.63050	         8.90236e+57
          1703.43680	         9.00541e+57
          1704.24310	         9.05001e+57
          1705.04940	         7.78648e+57
          1705.85570	         6.13066e+57
          1706.66200	         8.11253e+57
          1707.46830	         9.44665e+57
          1708.27460	         7.76663e+57
          1709.08090	         6.38373e+57
          1709.88720	         5.98737e+57
          1710.69350	         6.82552e+57
          1711.49980	         6.79984e+57
          1712.30610	         7.67404e+57
          1713.11240	         8.85428e+57
          1713.91870	         7.54528e+57
          1714.72500	         8.53475e+57
          1715.53130	         8.94831e+57
          1716.33760	         7.45242e+57
          1717.14390	         7.14084e+57
          1717.95020	         8.35290e+57
          1718.75650	         8.54720e+57
          1719.56280	         8.38494e+57
          1720.36910	         7.50429e+57
          1721.17540	         7.34748e+57
          1721.98170	         7.41791e+57
          1722.78800	         6.20493e+57
          1723.59430	         6.35335e+57
          1724.40060	         8.15748e+57
          1725.20690	         9.07928e+57
          1726.01320	         8.89562e+57
          1726.81950	         7.45380e+57
          1727.62580	         7.24655e+57
          1728.43210	         7.05849e+57
          1729.23840	         7.20237e+57
          1730.04470	         8.00946e+57
          1730.85100	         8.32692e+57
          1731.65730	         8.16953e+57
          1732.46360	         8.25449e+57
          1733.26990	         7.42266e+57
          1734.07620	         6.17536e+57
          1734.88250	         7.37823e+57
          1735.68880	         7.85475e+57
          1736.49510	         9.27070e+57
          1737.30140	         8.71356e+57
          1738.10770	         7.57983e+57
          1738.91400	         8.17921e+57
          1739.72030	         7.04907e+57
          1740.52660	         5.75844e+57
          1741.33290	         6.14181e+57
          1742.13920	         5.77369e+57
          1742.94550	         7.10379e+57
          1743.75180	         8.07352e+57
          1744.55810	         8.06514e+57
          1745.36440	         7.51305e+57
          1746.17070	         4.65400e+57
          1746.97700	         5.00767e+57
          1747.78330	         6.87954e+57
          1748.58960	         6.88230e+57
          1749.39590	         5.69114e+57
          1750.20220	         5.68686e+57
          1751.00850	         5.24453e+57
          1751.81480	         5.22731e+57
          1752.62110	         7.55523e+57
          1753.42740	         7.78207e+57
          1754.23370	         6.52839e+57
          1755.04000	         6.55441e+57
          1755.84630	         7.82956e+57
          1756.65260	         7.72907e+57
          1757.45890	         7.97354e+57
          1758.26520	         8.17873e+57
          1759.07150	         9.45169e+57
          1759.87780	         9.41353e+57
          1760.68410	         8.73266e+57
          1761.49040	         8.61338e+57
          1762.29670	         7.67722e+57
          1763.10300	         7.98806e+57
          1763.90930	         7.98628e+57
          1764.71560	         6.91721e+57
          1765.52190	         6.80833e+57
          1766.32820	         7.54313e+57
          1767.13450	         9.09259e+57
          1767.94080	         8.56105e+57
          1768.74710	         7.78192e+57
          1769.55340	         7.39432e+57
          1770.35970	         6.40187e+57
          1771.16600	         7.42241e+57
          1771.97230	         8.99964e+57
          1772.77860	         8.95007e+57
          1773.58490	         6.45074e+57
          1774.39120	         5.12415e+57
          1775.19750	         5.65028e+57
          1776.00380	         6.18357e+57
          1776.81010	         6.62881e+57
          1777.61640	         7.37832e+57
          1778.42270	         7.72285e+57
          1779.22900	         7.09848e+57
          1780.03530	         6.58137e+57
          1780.84160	         6.99669e+57
          1781.64790	         8.42338e+57
          1782.45420	         6.26439e+57
          1783.26050	         4.99360e+57
          1784.06680	         6.45248e+57
          1784.87310	         6.71786e+57
          1785.67940	         6.85139e+57
          1786.48570	         7.44160e+57
          1787.29200	         6.10315e+57
          1788.09830	         6.39834e+57
          1788.90460	         5.63279e+57
          1789.71090	         4.37321e+57
          1790.51720	         4.92441e+57
          1791.32350	         6.92515e+57
          1792.12980	         8.10624e+57
          1792.93610	         7.23770e+57
          1793.74240	         7.35347e+57
          1794.54870	         8.13557e+57
          1795.35500	         8.22682e+57
          1796.16130	         7.60340e+57
          1796.96760	         7.00312e+57
          1797.77390	         7.42571e+57
          1798.58020	         6.99800e+57
          1799.38650	         6.70995e+57
          1800.19280	         6.50876e+57
          1800.99910	         7.49241e+57
          1801.80540	         7.87802e+57
          1802.61170	         9.25115e+57
          1803.41800	         8.27455e+57
          1804.22430	         7.20328e+57
          1805.03060	         7.61562e+57
          1805.83690	         8.43551e+57
          1806.64320	         7.99653e+57
          1807.44950	         7.71115e+57
          1808.25580	         6.80773e+57
          1809.06210	         8.48882e+57
          1809.86840	         7.43088e+57
          1810.67470	         6.89720e+57
          1811.48100	         8.60310e+57
          1812.28730	         9.03034e+57
          1813.09360	         7.53423e+57
          1813.89990	         7.51543e+57
          1814.70620	         6.94046e+57
          1815.51250	         7.20331e+57
          1816.31880	         8.46749e+57
          1817.12510	         7.58362e+57
          1817.93140	         6.93832e+57
          1818.73770	         7.31954e+57
          1819.54400	         8.92572e+57
          1820.35030	         8.73697e+57
          1821.15660	         6.73906e+57
          1821.96290	         6.42768e+57
          1822.76920	         6.58167e+57
          1823.57550	         7.06422e+57
          1824.38180	         7.26004e+57
          1825.18810	         7.92107e+57
          1825.99440	         8.65921e+57
          1826.80070	         7.89666e+57
          1827.60700	         7.09115e+57
          1828.41330	         6.01849e+57
          1829.21960	         6.86826e+57
          1830.02590	         7.45318e+57
          1830.83220	         7.55388e+57
          1831.63850	         7.53000e+57
          1832.44480	         7.06775e+57
          1833.25110	         7.82967e+57
          1834.05740	         8.91193e+57
          1834.86370	         8.32245e+57
          1835.67000	         6.73760e+57
          1836.47630	         7.37057e+57
          1837.28260	         8.59458e+57
          1838.08890	         8.62779e+57
          1838.89520	         7.99387e+57
          1839.70150	         7.76425e+57
          1840.50780	         6.96497e+57
          1841.31410	         6.75042e+57
          1842.12040	         6.92824e+57
          1842.92670	         7.30247e+57
          1843.73300	         7.19668e+57
          1844.53930	         7.49567e+57
          1845.34560	         7.04191e+57
          1846.15190	         7.09230e+57
          1846.95820	         7.99654e+57
          1847.76450	         7.70384e+57
          1848.57080	         6.39504e+57
          1849.37710	         6.65444e+57
          1850.18340	         7.99188e+57
          1850.98970	         7.72793e+57
          1851.79600	         7.07821e+57
          1852.60230	         8.15508e+57
          1853.40860	         7.17610e+57
          1854.21490	         5.57335e+57
          1855.02120	         5.67698e+57
          1855.82750	         5.27231e+57
          1856.63380	         5.98431e+57
          1857.44010	         6.98134e+57
          1858.24640	         7.99372e+57
          1859.05270	         7.49333e+57
          1859.85900	         6.67343e+57
          1860.66530	         6.13890e+57
          1861.47160	         7.08434e+57
          1862.27790	         6.75247e+57
          1863.08420	         6.56033e+57
          1863.89050	         7.44647e+57
          1864.69680	         7.52144e+57
          1865.50310	         7.30619e+57
          1866.30940	         6.06591e+57
          1867.11570	         6.59391e+57
          1867.92200	         7.58951e+57
          1868.72830	         7.47232e+57
          1869.53460	         6.53605e+57
          1870.34090	         6.53423e+57
          1871.14720	         7.66393e+57
          1871.95350	         7.17784e+57
          1872.75980	         7.52106e+57
          1873.56610	         6.93098e+57
          1874.37240	         4.35730e+57
          1875.17870	         5.47063e+57
          1875.98500	         7.42368e+57
          1876.79130	         8.14481e+57
          1877.59760	         7.15792e+57
          1878.40390	         6.15941e+57
          1879.21020	         6.63114e+57
          1880.01650	         8.03053e+57
          1880.82280	         9.05350e+57
          1881.62910	         9.49363e+57
          1882.43540	         1.02457e+58
          1883.24170	         7.67129e+57
          1884.04800	         5.61728e+57
          1884.85430	         7.19488e+57
          1885.66060	         8.36047e+57
          1886.46690	         8.07446e+57
          1887.27320	         8.06150e+57
          1888.07950	         7.03907e+57
          1888.88580	         6.43246e+57
          1889.69210	         7.64190e+57
          1890.49840	         7.89882e+57
          1891.30470	         8.53483e+57
          1892.11100	         9.45623e+57
          1892.91730	         8.97929e+57
          1893.72360	         8.40847e+57
          1894.52990	         7.25188e+57
          1895.33620	         8.19769e+57
          1896.14250	         7.85392e+57
          1896.94880	         6.17212e+57
          1897.75510	         4.56281e+57
          1898.56140	         6.84896e+57
          1899.36770	         8.70342e+57
          1900.17400	         6.44499e+57
          1900.98030	         5.93262e+57
          1901.78660	         7.37738e+57
          1902.59290	         7.03130e+57
          1903.39920	         8.39407e+57
          1904.20550	         9.23139e+57
          1905.01180	         9.62622e+57
          1905.81810	         1.01740e+58
          1906.62440	         1.14856e+58
          1907.43070	         1.44166e+58
          1908.23700	         1.64146e+58
          1909.04330	         1.29431e+58
          1909.84960	         1.11133e+58
          1910.65590	         1.00536e+58
          1911.46220	         9.02473e+57
          1912.26850	         7.87644e+57
          1913.07480	         5.63291e+57
          1913.88110	         4.77152e+57
          1914.68740	         5.48915e+57
          1915.49370	         5.16136e+57
          1916.30000	         5.95162e+57
          1917.10630	         7.17328e+57
          1917.91260	         6.02518e+57
          1918.71890	         6.92384e+57
          1919.52520	         6.84544e+57
          1920.33150	         5.56267e+57
          1921.13780	         6.81171e+57
          1921.94410	         8.19118e+57
          1922.75040	         7.89364e+57
          1923.55670	         7.83523e+57
          1924.36300	         7.72854e+57
          1925.16930	         7.05973e+57
          1925.97560	         5.39064e+57
          1926.78190	         4.31971e+57
          1927.58820	         7.18928e+57
          1928.39450	         6.70645e+57
          1929.20080	         4.75308e+57
          1930.00710	         5.65700e+57
          1930.81340	         7.60855e+57
          1931.61970	         6.76228e+57
          1932.42600	         6.69150e+57
          1933.23230	         8.14795e+57
          1934.03860	         7.86725e+57
          1934.84490	         6.88735e+57
          1935.65120	         8.04856e+57
          1936.45750	         9.21801e+57
          1937.26380	         7.72693e+57
          1938.07010	         7.31545e+57
          1938.87640	         7.50613e+57
          1939.68270	         7.67230e+57
          1940.48900	         8.23508e+57
          1941.29530	         7.81542e+57
          1942.10160	         6.50907e+57
          1942.90790	         7.14897e+57
          1943.71420	         6.07067e+57
          1944.52050	         6.34639e+57
          1945.32680	         6.37835e+57
          1946.13310	         7.64752e+57
          1946.93940	         8.65676e+57
          1947.74570	         7.02336e+57
          1948.55200	         6.26937e+57
          1949.35830	         6.12475e+57
          1950.16460	         5.65264e+57
          1950.97090	         6.06035e+57
          1951.77720	         6.84686e+57
          1952.58350	         7.11697e+57
          1953.38980	         5.98298e+57
          1954.19610	         4.35298e+57
          1955.00240	         4.85959e+57
          1955.80870	         5.93032e+57
          1956.61500	         5.31807e+57
          1957.42130	         5.54857e+57
          1958.22760	         6.91241e+57
          1959.03390	         7.36134e+57
          1959.84020	         7.30920e+57
          1960.64650	         6.54970e+57
          1961.45280	         5.46143e+57
          1962.25910	         5.80221e+57
          1963.06540	         6.82897e+57
          1963.87170	         6.21054e+57
          1964.67800	         7.19457e+57
          1965.48430	         5.81742e+57
          1966.29060	         6.26349e+57
          1967.09690	         7.42354e+57
          1967.90320	         6.16858e+57
          1968.70950	         5.66396e+57
          1969.51580	         6.24544e+57
          1970.32210	         7.18175e+57
          1971.12840	         7.08075e+57
          1971.93470	         5.92623e+57
          1972.74100	         5.93759e+57
          1973.54730	         6.38780e+57
          1974.35360	         6.99195e+57
          1975.15990	         8.44175e+57
          1975.96620	         6.97467e+57
          1976.77250	         6.94639e+57
          1977.57880	         6.25441e+57
          1978.38510	         6.28372e+57
          1979.19140	         6.77978e+57
          1979.99770	         7.13960e+57
          1980.80400	         7.26102e+57
          1981.61030	         6.79319e+57
          1982.41660	         5.99636e+57
          1983.22290	         6.10290e+57
          1984.02920	         6.33354e+57
          1984.83550	         6.83850e+57
          1985.64180	         7.45030e+57
          1986.44810	         7.25334e+57
          1987.25440	         6.11974e+57
          1988.06070	         5.79325e+57
          1988.86700	         6.88699e+57
          1989.67330	         6.88563e+57
          1990.47960	         6.66452e+57
          1991.28590	         6.49527e+57
          1992.09220	         6.00680e+57
          1992.89850	         5.87625e+57
          1993.70480	         5.55617e+57
          1994.51110	         4.70893e+57
          1995.31740	         4.86165e+57
          1996.12370	         4.82253e+57
          1996.93000	         6.32215e+57
          1997.73630	         7.71941e+57
          1998.54260	         7.36057e+57
          1999.34890	         5.69392e+57
          2000.15520	         5.90185e+57
          2000.96150	         6.15481e+57
          2001.76780	         5.38950e+57
          2002.57410	         4.09745e+57
          2003.38040	         5.90522e+57
          2004.18670	         6.65725e+57
          2004.99300	         6.20471e+57
          2005.79930	         7.04125e+57
          2006.60560	         7.50353e+57
          2007.41190	         6.07859e+57
          2008.21820	         6.45466e+57
          2009.02450	         6.55594e+57
          2009.83080	         5.83822e+57
          2010.63710	         6.16621e+57
          2011.44340	         6.59658e+57
          2012.24970	         7.21038e+57
          2013.05600	         7.04692e+57
          2013.86230	         6.22998e+57
          2014.66860	         6.03933e+57
          2015.47490	         6.45229e+57
          2016.28120	         5.40563e+57
          2017.08750	         5.54844e+57
          2017.89380	         5.58591e+57
          2018.70010	         6.89967e+57
          2019.50640	         6.12532e+57
          2020.31270	         7.18755e+57
          2021.11900	         6.89305e+57
          2021.92530	         6.61785e+57
          2022.73160	         6.71435e+57
          2023.53790	         5.42601e+57
          2024.34420	         5.87712e+57
          2025.15050	         6.01918e+57
          2025.95680	         5.77786e+57
          2026.76310	         6.64985e+57
          2027.56940	         6.16590e+57
          2028.37570	         5.64795e+57
          2029.18200	         5.49753e+57
          2029.98830	         6.48759e+57
          2030.79460	         6.70043e+57
          2031.60090	         6.57438e+57
          2032.40720	         6.00737e+57
          2033.21350	         5.69596e+57
          2034.01980	         5.71431e+57
          2034.82610	         4.70711e+57
          2035.63240	         4.69136e+57
          2036.43870	         5.57572e+57
          2037.24500	         7.31937e+57
          2038.05130	         6.07076e+57
          2038.85760	         6.58305e+57
          2039.66390	         7.11240e+57
          2040.47020	         6.16981e+57
          2041.27650	         7.51676e+57
          2042.08280	         5.93841e+57
          2042.88910	         4.26982e+57
          2043.69540	         3.61820e+57
          2044.50170	         4.76540e+57
          2045.30800	         3.96755e+57
          2046.11430	         5.44385e+57
          2046.92060	         5.29000e+57
          2047.72690	         7.56870e+57
          2048.53320	         6.49498e+57
          2049.33950	         4.89014e+57
          2050.14580	         6.80725e+57
          2050.95210	         6.20801e+57
          2051.75840	         6.78215e+57
          2052.56470	         5.31837e+57
          2053.37100	         4.07988e+57
          2054.17730	         4.94278e+57
          2054.98360	         6.00442e+57
          2055.78990	         3.53002e+57
          2056.59620	         3.54464e+57
          2057.40250	         5.41001e+57
          2058.20880	         7.30102e+57
          2059.01510	         6.09377e+57
          2059.82140	         6.84663e+57
          2060.62770	         9.59407e+57
          2061.43400	         1.62995e+58
          2062.24030	         1.03588e+58
          2063.04660	         2.74745e+57
          2063.85290	         2.12139e+57
          2064.65920	        -4.01595e+57
          2065.46550	        -9.32419e+57
          2066.27180	        -9.04713e+57
          2067.07810	         2.64847e+57
          2067.88440	         3.91397e+57
          2068.69070	         5.77763e+57
          2069.49700	         5.87825e+57
          2070.30330	         3.91217e+57
          2071.10960	         7.79745e+57
          2071.91590	         7.13122e+57
          2072.72220	         4.52155e+57
          2073.52850	         4.60760e+57
          2074.33480	         5.69625e+57
          2075.14110	         5.60582e+57
          2075.94740	         5.64646e+57
          2076.75370	         5.38948e+57
          2077.56000	         4.54343e+57
          2078.36630	         4.79503e+57
          2079.17260	         4.80006e+57
          2079.97890	         5.81171e+57
          2080.78520	         3.38417e+57
          2081.59150	         3.37607e+57
          2082.39780	         3.70064e+57
          2083.20410	         2.47586e+57
          2084.01040	         1.79947e+57
          2084.81670	         4.07773e+57
          2085.62300	         4.06874e+57
          2086.42930	         3.87364e+57
          2087.23560	         3.12503e+57
          2088.04190	         3.86382e+57
          2088.84820	         3.96710e+57
          2089.65450	         3.63614e+57
          2090.46080	         2.83057e+57
          2091.26710	         2.98410e+57
          2092.07340	         4.21971e+57
          2092.87970	         4.55601e+57
          2093.68600	         1.00935e+57
          2094.49230	         1.70753e+57
          2095.29860	         4.91029e+57
          2096.10490	         1.83651e+57
          2096.91120	         1.63317e+57
          2097.71750	         2.60430e+57
          2098.52380	         7.05439e+56
          2099.33010	         2.57032e+57
          2100.13640	         1.78907e+57
          2100.94270	         8.86618e+56
          2101.74900	         1.82709e+57
          2102.55530	         3.50534e+57
          2103.36160	         2.73460e+57
          2104.16790	         4.62217e+57
          2104.97420	         8.71322e+56
          2105.78050	         1.17185e+57
          2106.58680	         4.62609e+56
          2107.39310	        -3.03527e+57
          2108.19940	         7.90711e+56
          2109.00570	        -1.55943e+57
          2109.81200	        -1.58301e+57
          2110.61830	         1.46932e+57
          2111.42460	         2.63746e+57
          2112.23090	         8.51247e+56
          2113.03720	         1.88142e+57
          2113.84350	        -1.09683e+57
          2114.64980	         1.07676e+57
          2115.45610	         1.39172e+57
          2116.26240	        -1.75617e+57
          2117.06870	        -3.57330e+57
          2117.87500	        -3.21396e+57
          2118.68130	        -3.17588e+56
          2119.48760	         5.76838e+57
          2120.29390	         4.74318e+57
          2121.10020	        -4.17089e+57
          2121.90650	        -3.12069e+57
          2122.71280	         4.40760e+57
          2123.51910	         4.61446e+57
          2124.32540	         7.24930e+57
          2125.13170	        -3.80816e+54
          2125.93800	        -5.38935e+55
          2126.74430	        -7.54241e+57
          2127.55060	        -6.25191e+57
          2128.35690	        -3.15876e+57
          2129.16320	        -1.27612e+56
          2129.96950	        -6.99395e+57
          2130.77580	        -1.56485e+56
          2131.58210	         2.47144e+57
          2132.38840	        -3.35084e+56
          2133.19470	         4.72278e+57
          2134.00100	         2.12365e+57
          2134.80730	         5.65583e+57
          2135.61360	         3.66881e+57
          2136.41990	         6.47006e+57
          2137.22620	         5.44508e+57
          2138.03250	        -3.39212e+57
          2138.83880	        -7.79425e+57
          2139.64510	        -2.89319e+57
          2140.45140	        -5.75487e+56
          2141.25770	        -7.98117e+57
          2142.06400	        -4.33680e+57
          2142.87030	        -2.36711e+57
          2143.67660	         3.50645e+57
          2144.48290	         1.15563e+58
          2145.28920	         1.13722e+58
          2146.09550	        -8.70979e+57
          2146.90180	        -1.19450e+58
          2147.70810	        -1.08813e+58
          2148.51440	        -1.86587e+58
          2149.32070	        -1.63631e+58
          2150.12700	        -1.55342e+58
          2150.93330	        -6.46411e+56
          2151.73960	         4.34378e+57
          2152.54590	         3.66964e+57
          2153.35220	        -3.47966e+57
          2154.15850	         1.77740e+57
          2154.96480	        -1.03375e+57
          2155.77110	        -1.30650e+57
          2156.57740	        -4.01123e+57
          2157.38370	         6.40315e+57
          2158.19000	        -1.75488e+57
          2158.99630	        -1.98841e+57
          2159.80260	        -2.04085e+58
          2160.60890	        -1.37490e+58
          2161.41520	        -8.31563e+57
          2162.22150	        -4.66670e+57
          2163.02780	        -8.59594e+56
          2163.83410	        -6.41376e+57
          2164.64040	        -1.43620e+58
          2165.44670	        -1.87174e+58
          2166.25300	        -9.16569e+57
          2167.05930	        -5.94835e+57
          2167.86560	        -8.80247e+56
          2168.67190	        -1.06687e+58
          2169.47820	        -1.43916e+58
          2170.28450	        -1.40199e+58
          2171.09080	        -2.60293e+57
          2171.89710	         4.44287e+57
          2172.70340	         1.11390e+58
          2173.50970	        -3.98497e+57
          2174.31600	        -9.39620e+57
          2175.12230	        -2.21167e+57
          2175.92860	        -3.02513e+57
          2176.73490	        -4.98444e+57
          2177.54120	        -4.99169e+57
          2178.34750	        -1.84773e+57
          2179.15380	                 nan
          2179.96010	                 nan
          2180.76640	                 nan
          2181.57270	                 nan
          2182.37900	                 nan
          2183.18530	                 nan
          2183.99160	                 nan
          2184.79790	                 nan
          2185.60420	                 nan
          2186.41050	                 nan
          2187.21680	                 nan
          2188.02310	                 nan
          2188.82940	                 nan
          2189.63570	                 nan
          2190.44200	                 nan
          2191.24830	                 nan
          2192.05460	                 nan
          2192.86090	                 nan
          2193.66720	                 nan
          2194.47350	                 nan
          2195.27980	                 nan
          2196.08610	                 nan
          2196.89240	                 nan
          2197.69870	                 nan
          2198.50500	                 nan
          2199.31130	                 nan
          2200.11760	                 nan
          2200.92390	                 nan
          2201.73020	                 nan
          2202.53650	                 nan
          2203.34280	                 nan
          2204.14910	                 nan
          2204.95540	                 nan
          2205.76170	                 nan
          2206.56800	                 nan
          2207.37430	                 nan
          2208.18060	                 nan
          2208.98690	                 nan
          2209.79320	                 nan
          2210.59950	                 nan
          2211.40580	                 nan
          2212.21210	                 nan
          2213.01840	                 nan
          2213.82470	                 nan
          2214.63100	                 nan
          2215.43730	         0.00000e+00
