#sample_195_stacked_spectrum_rest_UV-bands_median_H-alpha_noDC.txt
#median Lum: 1.68700e+42
#Rest-frame wavelength (A) | Luminosity (erg/s/A)
#
          1110.00000	         0.00000e+00
          1110.80630	         4.07536e+59
          1111.61260	         3.90154e+58
          1112.41890	         1.55339e+59
          1113.22520	        -1.53283e+59
          1114.03150	        -1.30555e+59
          1114.83780	         1.97886e+59
          1115.64410	         1.26766e+58
          1116.45040	         4.52458e+58
          1117.25670	         8.75342e+57
          1118.06300	         1.35931e+59
          1118.86930	         4.63565e+58
          1119.67560	         1.48267e+59
          1120.48190	         8.56567e+57
          1121.28820	        -1.02254e+59
          1122.09450	         1.72964e+58
          1122.90080	         6.90790e+57
          1123.70710	         5.22294e+58
          1124.51340	         1.08081e+59
          1125.31970	        -3.34431e+58
          1126.12600	        -3.06536e+58
          1126.93230	        -4.48463e+58
          1127.73860	        -4.75248e+58
          1128.54490	        -3.11429e+58
          1129.35120	        -3.65330e+56
          1130.15750	        -2.75540e+57
          1130.96380	        -1.31154e+58
          1131.77010	         6.57092e+58
          1132.57640	         2.30732e+58
          1133.38270	         5.40232e+57
          1134.18900	         5.01646e+57
          1134.99530	        -1.46820e+58
          1135.80160	         1.39846e+58
          1136.60790	         1.43975e+58
          1137.41420	        -1.76567e+58
          1138.22050	         4.34805e+58
          1139.02680	         2.34068e+58
          1139.83310	         2.01375e+58
          1140.63940	         9.25681e+57
          1141.44570	        -1.71596e+58
          1142.25200	        -2.13740e+58
          1143.05830	         6.60495e+57
          1143.86460	         1.09203e+58
          1144.67090	         2.38964e+58
          1145.47720	         2.64987e+58
          1146.28350	         2.30421e+58
          1147.08980	         6.22340e+57
          1147.89610	         1.94914e+58
          1148.70240	         2.85543e+58
          1149.50870	         1.31674e+58
          1150.31500	         6.55690e+57
          1151.12130	         4.33121e+57
          1151.92760	         1.53379e+58
          1152.73390	         1.96502e+58
          1153.54020	         8.12309e+57
          1154.34650	         2.35390e+58
          1155.15280	         1.42643e+58
          1155.95910	         9.83911e+57
          1156.76540	         6.51207e+57
          1157.57170	        -5.10924e+57
          1158.37800	         9.01394e+57
          1159.18430	         5.81955e+57
          1159.99060	         8.38415e+57
          1160.79690	        -1.98760e+56
          1161.60320	         1.46472e+58
          1162.40950	         1.25224e+58
          1163.21580	         1.41905e+58
          1164.02210	         1.23447e+58
          1164.82840	         3.61679e+57
          1165.63470	         8.85964e+57
          1166.44100	         2.98322e+58
          1167.24730	         2.43560e+58
          1168.05360	         1.04602e+58
          1168.85990	         6.23199e+57
          1169.66620	         4.70231e+57
          1170.47250	         7.36256e+57
          1171.27880	         4.57627e+57
          1172.08510	         1.37896e+58
          1172.89140	         7.66367e+57
          1173.69770	         4.89090e+57
          1174.50400	         1.10928e+58
          1175.31030	         1.83446e+58
          1176.11660	         1.61545e+58
          1176.92290	         1.24015e+58
          1177.72920	         9.80421e+57
          1178.53550	         9.56102e+57
          1179.34180	         9.32138e+57
          1180.14810	         7.79194e+57
          1180.95440	         5.50397e+57
          1181.76070	        -6.87660e+56
          1182.56700	         5.12005e+57
          1183.37330	         9.01159e+57
          1184.17960	         1.34610e+58
          1184.98590	         8.66934e+57
          1185.79220	         8.03183e+57
          1186.59850	         1.47812e+58
          1187.40480	         1.04577e+58
          1188.21110	         1.61456e+58
          1189.01740	         1.52311e+58
          1189.82370	         1.21285e+58
          1190.63000	         7.85209e+57
          1191.43630	         1.11861e+58
          1192.24260	         1.20513e+58
          1193.04890	         1.28894e+58
          1193.85520	         1.44134e+58
          1194.66150	         1.00843e+58
          1195.46780	         1.21835e+58
          1196.27410	         1.32203e+58
          1197.08040	         9.15103e+57
          1197.88670	         1.30583e+58
          1198.69300	         1.35396e+58
          1199.49930	         1.52307e+58
          1200.30560	         1.28746e+58
          1201.11190	         7.21255e+57
          1201.91820	         8.17042e+57
          1202.72450	         5.97099e+57
          1203.53080	         1.40747e+58
          1204.33710	         1.03844e+58
          1205.14340	         5.55648e+57
          1205.94970	         7.95384e+57
          1206.75600	         9.37288e+57
          1207.56230	         7.65650e+57
          1208.36860	         9.86437e+57
          1209.17490	         4.68448e+57
          1209.98120	         6.14036e+57
          1210.78750	         1.58586e+58
          1211.59380	         1.57318e+58
          1212.40010	         1.83937e+58
          1213.20640	         2.12674e+58
          1214.01270	         2.18063e+58
          1214.81900	         2.24307e+58
          1215.62530	         4.38937e+58
          1216.43160	         9.42603e+58
          1217.23790	         1.52925e+59
          1218.04420	         1.14620e+59
          1218.85050	         8.53910e+58
          1219.65680	         5.51835e+58
          1220.46310	         3.12309e+58
          1221.26940	         2.24127e+58
          1222.07570	         1.42921e+58
          1222.88200	         9.37228e+57
          1223.68830	         9.85619e+57
          1224.49460	         8.21863e+57
          1225.30090	         5.85814e+57
          1226.10720	         4.55614e+57
          1226.91350	         4.84894e+57
          1227.71980	         9.69720e+57
          1228.52610	         1.25408e+58
          1229.33240	         7.59134e+57
          1230.13870	         7.52481e+57
          1230.94500	         7.38918e+57
          1231.75130	         6.49147e+57
          1232.55760	         1.01523e+58
          1233.36390	         9.08790e+57
          1234.17020	         8.37287e+57
          1234.97650	         8.66054e+57
          1235.78280	         8.58929e+57
          1236.58910	         9.47856e+57
          1237.39540	         1.16430e+58
          1238.20170	         1.15620e+58
          1239.00800	         1.15787e+58
          1239.81430	         1.43305e+58
          1240.62060	         1.28674e+58
          1241.42690	         9.12931e+57
          1242.23320	         9.00507e+57
          1243.03950	         8.70249e+57
          1243.84580	         9.32442e+57
          1244.65210	         9.42617e+57
          1245.45840	         1.04898e+58
          1246.26470	         1.00522e+58
          1247.07100	         7.27568e+57
          1247.87730	         9.30542e+57
          1248.68360	         5.01323e+57
          1249.48990	         6.81043e+57
          1250.29620	         8.92330e+57
          1251.10250	         5.36433e+57
          1251.90880	         3.29450e+57
          1252.71510	         7.08541e+57
          1253.52140	         8.42741e+57
          1254.32770	         1.00008e+58
          1255.13400	         1.14097e+58
          1255.94030	         9.30554e+57
          1256.74660	         9.64683e+57
          1257.55290	         1.20845e+58
          1258.35920	         1.04622e+58
          1259.16550	         6.25269e+57
          1259.97180	         4.80054e+57
          1260.77810	         8.18390e+57
          1261.58440	         1.03839e+58
          1262.39070	         8.66441e+57
          1263.19700	         7.61640e+57
          1264.00330	         8.26414e+57
          1264.80960	         8.99049e+57
          1265.61590	         1.08896e+58
          1266.42220	         1.15927e+58
          1267.22850	         1.15510e+58
          1268.03480	         1.49912e+58
          1268.84110	         1.59135e+58
          1269.64740	         1.42770e+58
          1270.45370	         1.03384e+58
          1271.26000	         7.89145e+57
          1272.06630	         7.89583e+57
          1272.87260	         1.08671e+58
          1273.67890	         1.23693e+58
          1274.48520	         1.44205e+58
          1275.29150	         1.49272e+58
          1276.09780	         1.22257e+58
          1276.90410	         1.48239e+58
          1277.71040	         1.41182e+58
          1278.51670	         1.38906e+58
          1279.32300	         1.58589e+58
          1280.12930	         1.36400e+58
          1280.93560	         1.12444e+58
          1281.74190	         1.31887e+58
          1282.54820	         1.47784e+58
          1283.35450	         1.11268e+58
          1284.16080	         1.05172e+58
          1284.96710	         1.45200e+58
          1285.77340	         1.07679e+58
          1286.57970	         9.53782e+57
          1287.38600	         1.47274e+58
          1288.19230	         1.76298e+58
          1288.99860	         1.58955e+58
          1289.80490	         9.95829e+57
          1290.61120	         1.19589e+58
          1291.41750	         1.32868e+58
          1292.22380	         1.10807e+58
          1293.03010	         1.07832e+58
          1293.83640	         1.19535e+58
          1294.64270	         1.03561e+58
          1295.44900	         7.95648e+57
          1296.25530	         8.26474e+57
          1297.06160	         9.12064e+57
          1297.86790	         8.85416e+57
          1298.67420	         7.58771e+57
          1299.48050	         9.84222e+57
          1300.28680	         1.09192e+58
          1301.09310	         7.76467e+57
          1301.89940	         3.92665e+57
          1302.70570	         5.68652e+57
          1303.51200	         8.12675e+57
          1304.31830	         1.08149e+58
          1305.12460	         1.21468e+58
          1305.93090	         1.20290e+58
          1306.73720	         1.17947e+58
          1307.54350	         1.25553e+58
          1308.34980	         1.37630e+58
          1309.15610	         1.56248e+58
          1309.96240	         1.55467e+58
          1310.76870	         1.38445e+58
          1311.57500	         1.40694e+58
          1312.38130	         1.18365e+58
          1313.18760	         1.08889e+58
          1313.99390	         1.47378e+58
          1314.80020	         1.73683e+58
          1315.60650	         1.68054e+58
          1316.41280	         1.29442e+58
          1317.21910	         1.05172e+58
          1318.02540	         1.10875e+58
          1318.83170	         1.31273e+58
          1319.63800	         1.25993e+58
          1320.44430	         1.23484e+58
          1321.25060	         1.42436e+58
          1322.05690	         1.18171e+58
          1322.86320	         1.11428e+58
          1323.66950	         1.13634e+58
          1324.47580	         8.67269e+57
          1325.28210	         9.21419e+57
          1326.08840	         1.09449e+58
          1326.89470	         1.09481e+58
          1327.70100	         8.39418e+57
          1328.50730	         8.24429e+57
          1329.31360	         1.03358e+58
          1330.11990	         1.03477e+58
          1330.92620	         9.21786e+57
          1331.73250	         9.98554e+57
          1332.53880	         7.83183e+57
          1333.34510	         7.78517e+57
          1334.15140	         8.47614e+57
          1334.95770	         8.59961e+57
          1335.76400	         1.08360e+58
          1336.57030	         1.11563e+58
          1337.37660	         1.06439e+58
          1338.18290	         1.11864e+58
          1338.98920	         1.19279e+58
          1339.79550	         1.10313e+58
          1340.60180	         1.12387e+58
          1341.40810	         1.24737e+58
          1342.21440	         1.11058e+58
          1343.02070	         1.12382e+58
          1343.82700	         1.38886e+58
          1344.63330	         1.46151e+58
          1345.43960	         1.29316e+58
          1346.24590	         8.87386e+57
          1347.05220	         1.07850e+58
          1347.85850	         1.18254e+58
          1348.66480	         1.17677e+58
          1349.47110	         1.15122e+58
          1350.27740	         1.14403e+58
          1351.08370	         1.20746e+58
          1351.89000	         1.32956e+58
          1352.69630	         1.24456e+58
          1353.50260	         1.09119e+58
          1354.30890	         1.18562e+58
          1355.11520	         1.19539e+58
          1355.92150	         1.05767e+58
          1356.72780	         1.01764e+58
          1357.53410	         1.18633e+58
          1358.34040	         1.19990e+58
          1359.14670	         1.01943e+58
          1359.95300	         1.08745e+58
          1360.75930	         1.15157e+58
          1361.56560	         1.15466e+58
          1362.37190	         1.21042e+58
          1363.17820	         1.22267e+58
          1363.98450	         1.28681e+58
          1364.79080	         1.34884e+58
          1365.59710	         1.26713e+58
          1366.40340	         1.13562e+58
          1367.20970	         9.48230e+57
          1368.01600	         9.93499e+57
          1368.82230	         1.03338e+58
          1369.62860	         1.12436e+58
          1370.43490	         1.05746e+58
          1371.24120	         1.02963e+58
          1372.04750	         9.71484e+57
          1372.85380	         1.12676e+58
          1373.66010	         1.16476e+58
          1374.46640	         1.09205e+58
          1375.27270	         1.02380e+58
          1376.07900	         8.32382e+57
          1376.88530	         8.48386e+57
          1377.69160	         8.94641e+57
          1378.49790	         6.85983e+57
          1379.30420	         7.40689e+57
          1380.11050	         9.30193e+57
          1380.91680	         9.16059e+57
          1381.72310	         9.75525e+57
          1382.52940	         9.85819e+57
          1383.33570	         8.30603e+57
          1384.14200	         8.95387e+57
          1384.94830	         1.17575e+58
          1385.75460	         1.01195e+58
          1386.56090	         8.35331e+57
          1387.36720	         9.77271e+57
          1388.17350	         1.30492e+58
          1388.97980	         1.17189e+58
          1389.78610	         9.09394e+57
          1390.59240	         8.79463e+57
          1391.39870	         8.33272e+57
          1392.20500	         8.83415e+57
          1393.01130	         7.80663e+57
          1393.81760	         7.22321e+57
          1394.62390	         6.91006e+57
          1395.43020	         6.90217e+57
          1396.23650	         7.53532e+57
          1397.04280	         7.68207e+57
          1397.84910	         7.73236e+57
          1398.65540	         8.42250e+57
          1399.46170	         9.75238e+57
          1400.26800	         8.65497e+57
          1401.07430	         6.97657e+57
          1401.88060	         6.98585e+57
          1402.68690	         8.67771e+57
          1403.49320	         8.85190e+57
          1404.29950	         8.68235e+57
          1405.10580	         9.67389e+57
          1405.91210	         1.17839e+58
          1406.71840	         1.18186e+58
          1407.52470	         1.08672e+58
          1408.33100	         9.66026e+57
          1409.13730	         1.03012e+58
          1409.94360	         1.09616e+58
          1410.74990	         1.08291e+58
          1411.55620	         9.73867e+57
          1412.36250	         9.69981e+57
          1413.16880	         9.76129e+57
          1413.97510	         9.05473e+57
          1414.78140	         9.10471e+57
          1415.58770	         1.00921e+58
          1416.39400	         9.49478e+57
          1417.20030	         9.68661e+57
          1418.00660	         9.34882e+57
          1418.81290	         1.02706e+58
          1419.61920	         1.09595e+58
          1420.42550	         1.19018e+58
          1421.23180	         1.29804e+58
          1422.03810	         1.21604e+58
          1422.84440	         9.98356e+57
          1423.65070	         1.22519e+58
          1424.45700	         1.20932e+58
          1425.26330	         9.07197e+57
          1426.06960	         8.48894e+57
          1426.87590	         9.61335e+57
          1427.68220	         9.46508e+57
          1428.48850	         1.14453e+58
          1429.29480	         1.15372e+58
          1430.10110	         9.68784e+57
          1430.90740	         8.76411e+57
          1431.71370	         8.88106e+57
          1432.52000	         8.63918e+57
          1433.32630	         7.83965e+57
          1434.13260	         8.38132e+57
          1434.93890	         8.89626e+57
          1435.74520	         9.72372e+57
          1436.55150	         9.25905e+57
          1437.35780	         8.63117e+57
          1438.16410	         8.67493e+57
          1438.97040	         9.06608e+57
          1439.77670	         8.39165e+57
          1440.58300	         8.35201e+57
          1441.38930	         9.23622e+57
          1442.19560	         9.68775e+57
          1443.00190	         1.00120e+58
          1443.80820	         1.08914e+58
          1444.61450	         9.56147e+57
          1445.42080	         8.52191e+57
          1446.22710	         1.00280e+58
          1447.03340	         9.74934e+57
          1447.83970	         1.03164e+58
          1448.64600	         1.04228e+58
          1449.45230	         9.68627e+57
          1450.25860	         9.65153e+57
          1451.06490	         8.64780e+57
          1451.87120	         7.72774e+57
          1452.67750	         6.86311e+57
          1453.48380	         8.27566e+57
          1454.29010	         8.49438e+57
          1455.09640	         7.84335e+57
          1455.90270	         8.42144e+57
          1456.70900	         8.27107e+57
          1457.51530	         9.37252e+57
          1458.32160	         1.16762e+58
          1459.12790	         1.11594e+58
          1459.93420	         1.04286e+58
          1460.74050	         8.42975e+57
          1461.54680	         8.20732e+57
          1462.35310	         8.53108e+57
          1463.15940	         9.50144e+57
          1463.96570	         1.11266e+58
          1464.77200	         1.18498e+58
          1465.57830	         1.07583e+58
          1466.38460	         9.04819e+57
          1467.19090	         8.18174e+57
          1467.99720	         8.26506e+57
          1468.80350	         9.37431e+57
          1469.60980	         1.02521e+58
          1470.41610	         1.02293e+58
          1471.22240	         9.22497e+57
          1472.02870	         1.07100e+58
          1472.83500	         1.06854e+58
          1473.64130	         9.23368e+57
          1474.44760	         9.20502e+57
          1475.25390	         9.70127e+57
          1476.06020	         7.70934e+57
          1476.86650	         7.57214e+57
          1477.67280	         7.80915e+57
          1478.47910	         6.66882e+57
          1479.28540	         6.77179e+57
          1480.09170	         8.00347e+57
          1480.89800	         9.29022e+57
          1481.70430	         8.87191e+57
          1482.51060	         7.44615e+57
          1483.31690	         7.68256e+57
          1484.12320	         8.66040e+57
          1484.92950	         8.60465e+57
          1485.73580	         8.48261e+57
          1486.54210	         8.15447e+57
          1487.34840	         9.13034e+57
          1488.15470	         9.38493e+57
          1488.96100	         9.45413e+57
          1489.76730	         1.03061e+58
          1490.57360	         8.82597e+57
          1491.37990	         6.27613e+57
          1492.18620	         8.19782e+57
          1492.99250	         9.33404e+57
          1493.79880	         9.15921e+57
          1494.60510	         8.65100e+57
          1495.41140	         6.73694e+57
          1496.21770	         7.94582e+57
          1497.02400	         1.02643e+58
          1497.83030	         9.17702e+57
          1498.63660	         7.51852e+57
          1499.44290	         7.99059e+57
          1500.24920	         8.54215e+57
          1501.05550	         8.78595e+57
          1501.86180	         9.06244e+57
          1502.66810	         9.06100e+57
          1503.47440	         9.04585e+57
          1504.28070	         8.88037e+57
          1505.08700	         9.60962e+57
          1505.89330	         8.98631e+57
          1506.69960	         7.70657e+57
          1507.50590	         8.64825e+57
          1508.31220	         9.31877e+57
          1509.11850	         9.18999e+57
          1509.92480	         9.89034e+57
          1510.73110	         8.80341e+57
          1511.53740	         7.31602e+57
          1512.34370	         7.63654e+57
          1513.15000	         9.03434e+57
          1513.95630	         9.92265e+57
          1514.76260	         9.34481e+57
          1515.56890	         8.30594e+57
          1516.37520	         8.76241e+57
          1517.18150	         9.06423e+57
          1517.98780	         8.18014e+57
          1518.79410	         7.17049e+57
          1519.60040	         7.91117e+57
          1520.40670	         9.83923e+57
          1521.21300	         9.87097e+57
          1522.01930	         8.73789e+57
          1522.82560	         8.80679e+57
          1523.63190	         1.05102e+58
          1524.43820	         8.40334e+57
          1525.24450	         6.37513e+57
          1526.05080	         6.69729e+57
          1526.85710	         6.65133e+57
          1527.66340	         6.81360e+57
          1528.46970	         7.82606e+57
          1529.27600	         7.83215e+57
          1530.08230	         7.18250e+57
          1530.88860	         6.94354e+57
          1531.69490	         7.77304e+57
          1532.50120	         9.00461e+57
          1533.30750	         9.73656e+57
          1534.11380	         9.20711e+57
          1534.92010	         8.48658e+57
          1535.72640	         8.66148e+57
          1536.53270	         9.24712e+57
          1537.33900	         8.75770e+57
          1538.14530	         8.96401e+57
          1538.95160	         9.82553e+57
          1539.75790	         9.86056e+57
          1540.56420	         8.71262e+57
          1541.37050	         8.84740e+57
          1542.17680	         8.51298e+57
          1542.98310	         8.65244e+57
          1543.78940	         8.40957e+57
          1544.59570	         6.99385e+57
          1545.40200	         7.58711e+57
          1546.20830	         9.45601e+57
          1547.01460	         1.10733e+58
          1547.82090	         1.12717e+58
          1548.62720	         1.22029e+58
          1549.43350	         1.17370e+58
          1550.23980	         1.08186e+58
          1551.04610	         1.19413e+58
          1551.85240	         1.14333e+58
          1552.65870	         1.08007e+58
          1553.46500	         1.07344e+58
          1554.27130	         9.95604e+57
          1555.07760	         9.97841e+57
          1555.88390	         8.95667e+57
          1556.69020	         8.68247e+57
          1557.49650	         8.79901e+57
          1558.30280	         8.85624e+57
          1559.10910	         8.74443e+57
          1559.91540	         8.52013e+57
          1560.72170	         8.26617e+57
          1561.52800	         7.79403e+57
          1562.33430	         7.33017e+57
          1563.14060	         7.43454e+57
          1563.94690	         8.72979e+57
          1564.75320	         8.72549e+57
          1565.55950	         6.82258e+57
          1566.36580	         6.77807e+57
          1567.17210	         8.08775e+57
          1567.97840	         8.57273e+57
          1568.78470	         8.69353e+57
          1569.59100	         8.55435e+57
          1570.39730	         7.66382e+57
          1571.20360	         6.83180e+57
          1572.00990	         7.77377e+57
          1572.81620	         8.41260e+57
          1573.62250	         9.59385e+57
          1574.42880	         9.67287e+57
          1575.23510	         7.17843e+57
          1576.04140	         7.12208e+57
          1576.84770	         8.66077e+57
          1577.65400	         8.79116e+57
          1578.46030	         9.82869e+57
          1579.26660	         1.04460e+58
          1580.07290	         9.41903e+57
          1580.87920	         8.41819e+57
          1581.68550	         7.95144e+57
          1582.49180	         8.11617e+57
          1583.29810	         7.68098e+57
          1584.10440	         8.31779e+57
          1584.91070	         8.78788e+57
          1585.71700	         7.77684e+57
          1586.52330	         8.03735e+57
          1587.32960	         8.76918e+57
          1588.13590	         9.38150e+57
          1588.94220	         7.70429e+57
          1589.74850	         8.37478e+57
          1590.55480	         9.75928e+57
          1591.36110	         8.16462e+57
          1592.16740	         7.53902e+57
          1592.97370	         8.62348e+57
          1593.78000	         9.17282e+57
          1594.58630	         8.62537e+57
          1595.39260	         7.93506e+57
          1596.19890	         8.39172e+57
          1597.00520	         9.65835e+57
          1597.81150	         9.38218e+57
          1598.61780	         6.72324e+57
          1599.42410	         5.78948e+57
          1600.23040	         7.22702e+57
          1601.03670	         7.95813e+57
          1601.84300	         7.44218e+57
          1602.64930	         8.51677e+57
          1603.45560	         8.85727e+57
          1604.26190	         8.11408e+57
          1605.06820	         7.83492e+57
          1605.87450	         7.54416e+57
          1606.68080	         7.18787e+57
          1607.48710	         5.50646e+57
          1608.29340	         5.64466e+57
          1609.09970	         7.11167e+57
          1609.90600	         6.68964e+57
          1610.71230	         6.23328e+57
          1611.51860	         7.09334e+57
          1612.32490	         6.65119e+57
          1613.13120	         7.99847e+57
          1613.93750	         8.59799e+57
          1614.74380	         8.65575e+57
          1615.55010	         9.52579e+57
          1616.35640	         9.19856e+57
          1617.16270	         1.02916e+58
          1617.96900	         1.02846e+58
          1618.77530	         8.25958e+57
          1619.58160	         8.01129e+57
          1620.38790	         7.76151e+57
          1621.19420	         7.82525e+57
          1622.00050	         7.35415e+57
          1622.80680	         8.82646e+57
          1623.61310	         8.89840e+57
          1624.41940	         7.95800e+57
          1625.22570	         8.87773e+57
          1626.03200	         8.44766e+57
          1626.83830	         7.25201e+57
          1627.64460	         6.75112e+57
          1628.45090	         7.26467e+57
          1629.25720	         9.36381e+57
          1630.06350	         9.34839e+57
          1630.86980	         6.52630e+57
          1631.67610	         8.27329e+57
          1632.48240	         8.27120e+57
          1633.28870	         6.72853e+57
          1634.09500	         7.11162e+57
          1634.90130	         1.00547e+58
          1635.70760	         9.38606e+57
          1636.51390	         7.97408e+57
          1637.32020	         7.90458e+57
          1638.12650	         8.97559e+57
          1638.93280	         9.14848e+57
          1639.73910	         1.02904e+58
          1640.54540	         1.12235e+58
          1641.35170	         9.44286e+57
          1642.15800	         8.89965e+57
          1642.96430	         8.25586e+57
          1643.77060	         7.86419e+57
          1644.57690	         7.65354e+57
          1645.38320	         7.04545e+57
          1646.18950	         7.29484e+57
          1646.99580	         7.97737e+57
          1647.80210	         7.74353e+57
          1648.60840	         8.19168e+57
          1649.41470	         8.53565e+57
          1650.22100	         7.65806e+57
          1651.02730	         7.30689e+57
          1651.83360	         7.48335e+57
          1652.63990	         8.39391e+57
          1653.44620	         8.60115e+57
          1654.25250	         7.25030e+57
          1655.05880	         7.27828e+57
          1655.86510	         8.37869e+57
          1656.67140	         8.71078e+57
          1657.47770	         8.30792e+57
          1658.28400	         8.77907e+57
          1659.09030	         9.16860e+57
          1659.89660	         9.38813e+57
          1660.70290	         1.00116e+58
          1661.50920	         9.66311e+57
          1662.31550	         8.50366e+57
          1663.12180	         8.43816e+57
          1663.92810	         9.29926e+57
          1664.73440	         1.06829e+58
          1665.54070	         1.14908e+58
          1666.34700	         1.27695e+58
          1667.15330	         1.16812e+58
          1667.95960	         9.25494e+57
          1668.76590	         7.34184e+57
          1669.57220	         6.69735e+57
          1670.37850	         7.43776e+57
          1671.18480	         7.92672e+57
          1671.99110	         8.14066e+57
          1672.79740	         7.53470e+57
          1673.60370	         6.51395e+57
          1674.41000	         6.64762e+57
          1675.21630	         6.89585e+57
          1676.02260	         7.41660e+57
          1676.82890	         7.62668e+57
          1677.63520	         7.53325e+57
          1678.44150	         6.94393e+57
          1679.24780	         8.33413e+57
          1680.05410	         8.01342e+57
          1680.86040	         6.21462e+57
          1681.66670	         6.72156e+57
          1682.47300	         7.88032e+57
          1683.27930	         7.47519e+57
          1684.08560	         8.57263e+57
          1684.89190	         8.77774e+57
          1685.69820	         6.10307e+57
          1686.50450	         5.22748e+57
          1687.31080	         6.47189e+57
          1688.11710	         7.26768e+57
          1688.92340	         6.82989e+57
          1689.72970	         7.11965e+57
          1690.53600	         6.90791e+57
          1691.34230	         7.54945e+57
          1692.14860	         8.60004e+57
          1692.95490	         7.89757e+57
          1693.76120	         6.95961e+57
          1694.56750	         6.58186e+57
          1695.37380	         7.20490e+57
          1696.18010	         8.84370e+57
          1696.98640	         9.61202e+57
          1697.79270	         8.47924e+57
          1698.59900	         7.98419e+57
          1699.40530	         7.15986e+57
          1700.21160	         7.29576e+57
          1701.01790	         8.33892e+57
          1701.82420	         7.89278e+57
          1702.63050	         8.00167e+57
          1703.43680	         8.58397e+57
          1704.24310	         8.19898e+57
          1705.04940	         6.78602e+57
          1705.85570	         5.89930e+57
          1706.66200	         8.56040e+57
          1707.46830	         8.85826e+57
          1708.27460	         6.44340e+57
          1709.08090	         6.75591e+57
          1709.88720	         6.31459e+57
          1710.69350	         6.65682e+57
          1711.49980	         6.64972e+57
          1712.30610	         7.23664e+57
          1713.11240	         8.58794e+57
          1713.91870	         6.70278e+57
          1714.72500	         6.60192e+57
          1715.53130	         8.13202e+57
          1716.33760	         8.34817e+57
          1717.14390	         7.57678e+57
          1717.95020	         7.69534e+57
          1718.75650	         8.82253e+57
          1719.56280	         9.19403e+57
          1720.36910	         7.67227e+57
          1721.17540	         6.87079e+57
          1721.98170	         6.27667e+57
          1722.78800	         6.55780e+57
          1723.59430	         7.44186e+57
          1724.40060	         7.71215e+57
          1725.20690	         8.25959e+57
          1726.01320	         8.37071e+57
          1726.81950	         7.92438e+57
          1727.62580	         6.87323e+57
          1728.43210	         7.00280e+57
          1729.23840	         7.50074e+57
          1730.04470	         8.23328e+57
          1730.85100	         8.60836e+57
          1731.65730	         8.64019e+57
          1732.46360	         7.93771e+57
          1733.26990	         7.91742e+57
          1734.07620	         6.49632e+57
          1734.88250	         6.58132e+57
          1735.68880	         7.66377e+57
          1736.49510	         7.87230e+57
          1737.30140	         7.18185e+57
          1738.10770	         7.14449e+57
          1738.91400	         7.99961e+57
          1739.72030	         7.03184e+57
          1740.52660	         5.61430e+57
          1741.33290	         6.39913e+57
          1742.13920	         7.15161e+57
          1742.94550	         7.16188e+57
          1743.75180	         7.42867e+57
          1744.55810	         7.68114e+57
          1745.36440	         7.91999e+57
          1746.17070	         6.24608e+57
          1746.97700	         5.00914e+57
          1747.78330	         7.25823e+57
          1748.58960	         6.89665e+57
          1749.39590	         6.00345e+57
          1750.20220	         5.86950e+57
          1751.00850	         5.18158e+57
          1751.81480	         6.24332e+57
          1752.62110	         7.66431e+57
          1753.42740	         7.36031e+57
          1754.23370	         5.98553e+57
          1755.04000	         6.51672e+57
          1755.84630	         8.10003e+57
          1756.65260	         8.76339e+57
          1757.45890	         8.97016e+57
          1758.26520	         7.67213e+57
          1759.07150	         9.48440e+57
          1759.87780	         8.80345e+57
          1760.68410	         7.49969e+57
          1761.49040	         8.64797e+57
          1762.29670	         7.58901e+57
          1763.10300	         8.24106e+57
          1763.90930	         8.72390e+57
          1764.71560	         8.54922e+57
          1765.52190	         8.30419e+57
          1766.32820	         7.97988e+57
          1767.13450	         8.05469e+57
          1767.94080	         6.97259e+57
          1768.74710	         7.45353e+57
          1769.55340	         7.44747e+57
          1770.35970	         7.32329e+57
          1771.16600	         8.02831e+57
          1771.97230	         8.83474e+57
          1772.77860	         8.97866e+57
          1773.58490	         7.53482e+57
          1774.39120	         5.45536e+57
          1775.19750	         5.41837e+57
          1776.00380	         6.27467e+57
          1776.81010	         6.50884e+57
          1777.61640	         7.02011e+57
          1778.42270	         7.75674e+57
          1779.22900	         6.68408e+57
          1780.03530	         5.70588e+57
          1780.84160	         6.61883e+57
          1781.64790	         8.44671e+57
          1782.45420	         7.75367e+57
          1783.26050	         6.91450e+57
          1784.06680	         6.93093e+57
          1784.87310	         6.77294e+57
          1785.67940	         6.93823e+57
          1786.48570	         6.76145e+57
          1787.29200	         6.50265e+57
          1788.09830	         6.15861e+57
          1788.90460	         5.79577e+57
          1789.71090	         5.42375e+57
          1790.51720	         5.70705e+57
          1791.32350	         8.15592e+57
          1792.12980	         7.93952e+57
          1792.93610	         7.27156e+57
          1793.74240	         7.44097e+57
          1794.54870	         7.90445e+57
          1795.35500	         7.79642e+57
          1796.16130	         7.35523e+57
          1796.96760	         6.56529e+57
          1797.77390	         6.90966e+57
          1798.58020	         7.10824e+57
          1799.38650	         6.60832e+57
          1800.19280	         6.32899e+57
          1800.99910	         6.50030e+57
          1801.80540	         7.56976e+57
          1802.61170	         7.46685e+57
          1803.41800	         7.74921e+57
          1804.22430	         7.29475e+57
          1805.03060	         7.08319e+57
          1805.83690	         8.00718e+57
          1806.64320	         7.75041e+57
          1807.44950	         8.22655e+57
          1808.25580	         7.25343e+57
          1809.06210	         7.58079e+57
          1809.86840	         7.66640e+57
          1810.67470	         7.60513e+57
          1811.48100	         9.43814e+57
          1812.28730	         9.06198e+57
          1813.09360	         8.21534e+57
          1813.89990	         7.89705e+57
          1814.70620	         8.20821e+57
          1815.51250	         7.79362e+57
          1816.31880	         7.55443e+57
          1817.12510	         7.47204e+57
          1817.93140	         6.68512e+57
          1818.73770	         6.41154e+57
          1819.54400	         7.88896e+57
          1820.35030	         8.95887e+57
          1821.15660	         6.90924e+57
          1821.96290	         6.25234e+57
          1822.76920	         7.28675e+57
          1823.57550	         7.22559e+57
          1824.38180	         7.22678e+57
          1825.18810	         7.72820e+57
          1825.99440	         8.28869e+57
          1826.80070	         8.63690e+57
          1827.60700	         7.56372e+57
          1828.41330	         6.25983e+57
          1829.21960	         6.29215e+57
          1830.02590	         7.00954e+57
          1830.83220	         7.42081e+57
          1831.63850	         7.34099e+57
          1832.44480	         7.68552e+57
          1833.25110	         8.24438e+57
          1834.05740	         8.14783e+57
          1834.86370	         7.00836e+57
          1835.67000	         5.82733e+57
          1836.47630	         6.92611e+57
          1837.28260	         8.33845e+57
          1838.08890	         8.61715e+57
          1838.89520	         8.74501e+57
          1839.70150	         8.87586e+57
          1840.50780	         7.74743e+57
          1841.31410	         6.26058e+57
          1842.12040	         6.78395e+57
          1842.92670	         6.96380e+57
          1843.73300	         6.31153e+57
          1844.53930	         6.83242e+57
          1845.34560	         7.86253e+57
          1846.15190	         8.15506e+57
          1846.95820	         7.86377e+57
          1847.76450	         7.02734e+57
          1848.57080	         5.71539e+57
          1849.37710	         6.74068e+57
          1850.18340	         7.23834e+57
          1850.98970	         7.81446e+57
          1851.79600	         7.85713e+57
          1852.60230	         6.11034e+57
          1853.40860	         6.19452e+57
          1854.21490	         6.27558e+57
          1855.02120	         5.68342e+57
          1855.82750	         4.12184e+57
          1856.63380	         5.94697e+57
          1857.44010	         6.44041e+57
          1858.24640	         7.69658e+57
          1859.05270	         7.71751e+57
          1859.85900	         6.69924e+57
          1860.66530	         6.72405e+57
          1861.47160	         7.31495e+57
          1862.27790	         7.12082e+57
          1863.08420	         6.91894e+57
          1863.89050	         8.11768e+57
          1864.69680	         7.23212e+57
          1865.50310	         6.99637e+57
          1866.30940	         6.20926e+57
          1867.11570	         5.55612e+57
          1867.92200	         7.07345e+57
          1868.72830	         7.02035e+57
          1869.53460	         6.76782e+57
          1870.34090	         7.38848e+57
          1871.14720	         7.80307e+57
          1871.95350	         7.40493e+57
          1872.75980	         7.16892e+57
          1873.56610	         6.14088e+57
          1874.37240	         5.64849e+57
          1875.17870	         5.88434e+57
          1875.98500	         7.27925e+57
          1876.79130	         8.18477e+57
          1877.59760	         7.35631e+57
          1878.40390	         6.68491e+57
          1879.21020	         6.69098e+57
          1880.01650	         6.58385e+57
          1880.82280	         8.29636e+57
          1881.62910	         9.10846e+57
          1882.43540	         9.79811e+57
          1883.24170	         7.99882e+57
          1884.04800	         6.95720e+57
          1884.85430	         7.63124e+57
          1885.66060	         8.07818e+57
          1886.46690	         8.10914e+57
          1887.27320	         7.31006e+57
          1888.07950	         5.84366e+57
          1888.88580	         6.96581e+57
          1889.69210	         9.49382e+57
          1890.49840	         9.37994e+57
          1891.30470	         8.26434e+57
          1892.11100	         8.23757e+57
          1892.91730	         8.24605e+57
          1893.72360	         7.48688e+57
          1894.52990	         7.03157e+57
          1895.33620	         8.20836e+57
          1896.14250	         6.75250e+57
          1896.94880	         4.97191e+57
          1897.75510	         4.17399e+57
          1898.56140	         6.56295e+57
          1899.36770	         8.18411e+57
          1900.17400	         6.52971e+57
          1900.98030	         6.50598e+57
          1901.78660	         6.64798e+57
          1902.59290	         7.68995e+57
          1903.39920	         8.55098e+57
          1904.20550	         8.14529e+57
          1905.01180	         8.20977e+57
          1905.81810	         9.67297e+57
          1906.62440	         1.25471e+58
          1907.43070	         1.46486e+58
          1908.23700	         1.55622e+58
          1909.04330	         1.32045e+58
          1909.84960	         1.12736e+58
          1910.65590	         1.01641e+58
          1911.46220	         9.42383e+57
          1912.26850	         7.99043e+57
          1913.07480	         6.33559e+57
          1913.88110	         5.97951e+57
          1914.68740	         5.34825e+57
          1915.49370	         4.79051e+57
          1916.30000	         5.26383e+57
          1917.10630	         7.55725e+57
          1917.91260	         7.07861e+57
          1918.71890	         6.18784e+57
          1919.52520	         6.05170e+57
          1920.33150	         5.61749e+57
          1921.13780	         6.54131e+57
          1921.94410	         7.72921e+57
          1922.75040	         7.56315e+57
          1923.55670	         8.03693e+57
          1924.36300	         7.73652e+57
          1925.16930	         6.10815e+57
          1925.97560	         5.25761e+57
          1926.78190	         4.47543e+57
          1927.58820	         5.45736e+57
          1928.39450	         5.91792e+57
          1929.20080	         4.69358e+57
          1930.00710	         5.80884e+57
          1930.81340	         7.88962e+57
          1931.61970	         6.62587e+57
          1932.42600	         7.15351e+57
          1933.23230	         8.86288e+57
          1934.03860	         6.53691e+57
          1934.84490	         6.30542e+57
          1935.65120	         8.26547e+57
          1936.45750	         7.61946e+57
          1937.26380	         6.91124e+57
          1938.07010	         7.86664e+57
          1938.87640	         7.30516e+57
          1939.68270	         6.66944e+57
          1940.48900	         7.09121e+57
          1941.29530	         7.78345e+57
          1942.10160	         7.84039e+57
          1942.90790	         6.90987e+57
          1943.71420	         6.50172e+57
          1944.52050	         6.22665e+57
          1945.32680	         6.48765e+57
          1946.13310	         8.31441e+57
          1946.93940	         9.06600e+57
          1947.74570	         7.62198e+57
          1948.55200	         5.67228e+57
          1949.35830	         6.97410e+57
          1950.16460	         7.02959e+57
          1950.97090	         6.97783e+57
          1951.77720	         7.08421e+57
          1952.58350	         7.94073e+57
          1953.38980	         7.03715e+57
          1954.19610	         6.40124e+57
          1955.00240	         5.64433e+57
          1955.80870	         6.04676e+57
          1956.61500	         6.14398e+57
          1957.42130	         6.38405e+57
          1958.22760	         6.89691e+57
          1959.03390	         7.29560e+57
          1959.84020	         7.04091e+57
          1960.64650	         6.59330e+57
          1961.45280	         5.91745e+57
          1962.25910	         5.32516e+57
          1963.06540	         5.34304e+57
          1963.87170	         5.18853e+57
          1964.67800	         7.40210e+57
          1965.48430	         7.11629e+57
          1966.29060	         7.99131e+57
          1967.09690	         7.94658e+57
          1967.90320	         7.37240e+57
          1968.70950	         6.32917e+57
          1969.51580	         6.24818e+57
          1970.32210	         8.03613e+57
          1971.12840	         6.63812e+57
          1971.93470	         3.60544e+57
          1972.74100	         4.05121e+57
          1973.54730	         5.81443e+57
          1974.35360	         6.07592e+57
          1975.15990	         6.84130e+57
          1975.96620	         6.55424e+57
          1976.77250	         7.51984e+57
          1977.57880	         6.49408e+57
          1978.38510	         5.25900e+57
          1979.19140	         7.00406e+57
          1979.99770	         7.56298e+57
          1980.80400	         8.28677e+57
          1981.61030	         6.83251e+57
          1982.41660	         5.47501e+57
          1983.22290	         6.13688e+57
          1984.02920	         6.05004e+57
          1984.83550	         6.49447e+57
          1985.64180	         6.63225e+57
          1986.44810	         6.44195e+57
          1987.25440	         6.09691e+57
          1988.06070	         5.86170e+57
          1988.86700	         6.27564e+57
          1989.67330	         6.03030e+57
          1990.47960	         6.08342e+57
          1991.28590	         6.29152e+57
          1992.09220	         5.82458e+57
          1992.89850	         7.08985e+57
          1993.70480	         6.62896e+57
          1994.51110	         3.74435e+57
          1995.31740	         4.55281e+57
          1996.12370	         5.09971e+57
          1996.93000	         5.51859e+57
          1997.73630	         7.13797e+57
          1998.54260	         7.94271e+57
          1999.34890	         7.16072e+57
          2000.15520	         6.55708e+57
          2000.96150	         7.40370e+57
          2001.76780	         5.61039e+57
          2002.57410	         5.67701e+57
          2003.38040	         6.60915e+57
          2004.18670	         6.47280e+57
          2004.99300	         6.46702e+57
          2005.79930	         7.14126e+57
          2006.60560	         6.79081e+57
          2007.41190	         6.08096e+57
          2008.21820	         6.34272e+57
          2009.02450	         6.65022e+57
          2009.83080	         5.49854e+57
          2010.63710	         6.02438e+57
          2011.44340	         7.08636e+57
          2012.24970	         7.53915e+57
          2013.05600	         7.36014e+57
          2013.86230	         6.56165e+57
          2014.66860	         6.26166e+57
          2015.47490	         6.28573e+57
          2016.28120	         5.36168e+57
          2017.08750	         6.20016e+57
          2017.89380	         6.64648e+57
          2018.70010	         6.75252e+57
          2019.50640	         6.22259e+57
          2020.31270	         5.96962e+57
          2021.11900	         6.92607e+57
          2021.92530	         6.68142e+57
          2022.73160	         7.84229e+57
          2023.53790	         7.21615e+57
          2024.34420	         5.78654e+57
          2025.15050	         4.57791e+57
          2025.95680	         3.64604e+57
          2026.76310	         5.29576e+57
          2027.56940	         7.60416e+57
          2028.37570	         6.99739e+57
          2029.18200	         6.67499e+57
          2029.98830	         6.43988e+57
          2030.79460	         6.11451e+57
          2031.60090	         5.22734e+57
          2032.40720	         4.99355e+57
          2033.21350	         5.57614e+57
          2034.01980	         6.17183e+57
          2034.82610	         5.10970e+57
          2035.63240	         4.76516e+57
          2036.43870	         4.96498e+57
          2037.24500	         6.06033e+57
          2038.05130	         6.57321e+57
          2038.85760	         5.73439e+57
          2039.66390	         5.37344e+57
          2040.47020	         5.64529e+57
          2041.27650	         6.65267e+57
          2042.08280	         6.54971e+57
          2042.88910	         5.61290e+57
          2043.69540	         6.24783e+57
          2044.50170	         6.95325e+57
          2045.30800	         5.62581e+57
          2046.11430	         3.38920e+57
          2046.92060	         6.47082e+57
          2047.72690	         6.31554e+57
          2048.53320	         5.19218e+57
          2049.33950	         4.99848e+57
          2050.14580	         5.90220e+57
          2050.95210	         6.35226e+57
          2051.75840	         6.91619e+57
          2052.56470	         5.35178e+57
          2053.37100	         4.11670e+57
          2054.17730	         4.86952e+57
          2054.98360	         4.92731e+57
          2055.78990	         3.56179e+57
          2056.59620	         2.82477e+57
          2057.40250	         5.30196e+57
          2058.20880	         6.94355e+57
          2059.01510	         6.90469e+57
          2059.82140	         7.70835e+57
          2060.62770	         9.93677e+57
          2061.43400	         1.61759e+58
          2062.24030	         1.07957e+58
          2063.04660	         4.73169e+57
          2063.85290	         2.57088e+57
          2064.65920	        -2.60391e+57
          2065.46550	        -9.80280e+57
          2066.27180	        -8.98581e+57
          2067.07810	         3.38474e+57
          2067.88440	         5.21509e+57
          2068.69070	         6.84588e+57
          2069.49700	         4.51741e+57
          2070.30330	         2.49123e+57
          2071.10960	         6.25312e+57
          2071.91590	         6.51349e+57
          2072.72220	         3.62537e+57
          2073.52850	         4.80338e+57
          2074.33480	         5.33643e+57
          2075.14110	         5.17673e+57
          2075.94740	         5.87772e+57
          2076.75370	         4.56218e+57
          2077.56000	         4.64922e+57
          2078.36630	         5.24592e+57
          2079.17260	         4.72356e+57
          2079.97890	         4.77114e+57
          2080.78520	         3.99804e+57
          2081.59150	         4.95330e+57
          2082.39780	         4.89046e+57
          2083.20410	         2.89999e+57
          2084.01040	         2.60995e+57
          2084.81670	         2.15591e+57
          2085.62300	         2.50427e+57
          2086.42930	         3.69124e+57
          2087.23560	         4.73074e+57
          2088.04190	         4.64357e+57
          2088.84820	         3.69066e+57
          2089.65450	         1.07696e+57
          2090.46080	         8.52958e+56
          2091.26710	         3.58119e+57
          2092.07340	         4.87945e+57
          2092.87970	         4.43353e+57
          2093.68600	        -6.38065e+56
          2094.49230	         1.65725e+57
          2095.29860	         5.50241e+57
          2096.10490	         7.10666e+57
          2096.91120	         4.00868e+57
          2097.71750	         7.01824e+56
          2098.52380	         1.08322e+57
          2099.33010	         2.12944e+57
          2100.13640	         1.69591e+57
          2100.94270	         1.55702e+57
          2101.74900	         2.57558e+57
          2102.55530	         1.11887e+57
          2103.36160	         1.21656e+57
          2104.16790	         2.68599e+57
          2104.97420	         7.49941e+56
          2105.78050	         1.74882e+57
          2106.58680	         2.21291e+57
          2107.39310	        -2.95602e+57
          2108.19940	         1.01840e+56
          2109.00570	         1.08180e+57
          2109.81200	        -1.98480e+56
          2110.61830	         1.90031e+57
          2111.42460	         2.99179e+57
          2112.23090	         2.63496e+57
          2113.03720	         1.58587e+57
          2113.84350	        -1.39786e+57
          2114.64980	         5.01062e+57
          2115.45610	         1.17074e+57
          2116.26240	        -4.28690e+57
          2117.06870	        -1.31773e+57
          2117.87500	        -6.40078e+57
          2118.68130	        -2.56159e+57
          2119.48760	        -8.27913e+56
          2120.29390	        -2.09361e+57
          2121.10020	        -6.42610e+57
          2121.90650	        -6.70796e+57
          2122.71280	         7.33844e+56
          2123.51910	         4.30818e+57
          2124.32540	        -1.08170e+57
          2125.13170	        -1.87111e+57
          2125.93800	        -2.47618e+57
          2126.74430	        -1.76221e+57
          2127.55060	        -5.42002e+57
          2128.35690	        -5.93053e+57
          2129.16320	        -3.10912e+57
          2129.96950	        -5.21132e+57
          2130.77580	        -6.28979e+57
          2131.58210	         1.93863e+57
          2132.38840	         5.08706e+57
          2133.19470	        -7.28884e+57
          2134.00100	        -3.79717e+57
          2134.80730	        -6.11484e+57
          2135.61360	        -2.05550e+57
          2136.41990	         6.19024e+57
          2137.22620	         3.72449e+57
          2138.03250	        -2.51423e+56
          2138.83880	        -3.26174e+57
          2139.64510	        -2.23896e+57
          2140.45140	        -2.39646e+57
          2141.25770	        -8.72706e+57
          2142.06400	        -1.64688e+57
          2142.87030	         4.43382e+57
          2143.67660	         7.08051e+57
          2144.48290	         1.09963e+58
          2145.28920	         1.52926e+58
          2146.09550	        -4.17544e+57
          2146.90180	        -1.14394e+58
          2147.70810	        -9.76499e+57
          2148.51440	        -3.64037e+57
          2149.32070	        -5.33150e+57
          2150.12700	        -8.99621e+57
          2150.93330	        -1.02337e+58
          2151.73960	        -3.23219e+57
          2152.54590	        -1.62269e+57
          2153.35220	        -2.37670e+57
          2154.15850	        -1.03637e+58
          2154.96480	         4.64908e+57
          2155.77110	        -5.98369e+57
          2156.57740	        -7.97167e+57
          2157.38370	         3.23997e+57
          2158.19000	        -1.69317e+57
          2158.99630	        -3.69354e+57
          2159.80260	        -1.33086e+58
          2160.60890	        -1.04562e+58
          2161.41520	        -2.36707e+57
          2162.22150	        -9.87936e+57
          2163.02780	        -1.17742e+57
          2163.83410	        -5.24261e+57
          2164.64040	        -1.15201e+58
          2165.44670	        -1.47020e+58
          2166.25300	        -6.55807e+57
          2167.05930	        -3.24277e+57
          2167.86560	        -1.01507e+58
          2168.67190	        -1.53322e+58
          2169.47820	        -3.04293e+57
          2170.28450	        -2.00270e+57
          2171.09080	         5.22049e+56
          2171.89710	        -1.35081e+57
          2172.70340	         2.97866e+57
          2173.50970	        -8.58510e+57
          2174.31600	        -1.55645e+57
          2175.12230	        -3.53306e+57
          2175.92860	        -4.59598e+57
          2176.73490	        -1.13024e+58
          2177.54120	        -7.03260e+57
          2178.34750	        -4.15073e+57
          2179.15380	                 nan
          2179.96010	                 nan
          2180.76640	                 nan
          2181.57270	                 nan
          2182.37900	                 nan
          2183.18530	                 nan
          2183.99160	                 nan
          2184.79790	                 nan
          2185.60420	                 nan
          2186.41050	                 nan
          2187.21680	                 nan
          2188.02310	                 nan
          2188.82940	                 nan
          2189.63570	                 nan
          2190.44200	                 nan
          2191.24830	                 nan
          2192.05460	                 nan
          2192.86090	                 nan
          2193.66720	                 nan
          2194.47350	                 nan
          2195.27980	                 nan
          2196.08610	                 nan
          2196.89240	                 nan
          2197.69870	                 nan
          2198.50500	                 nan
          2199.31130	                 nan
          2200.11760	                 nan
          2200.92390	                 nan
          2201.73020	                 nan
          2202.53650	                 nan
          2203.34280	                 nan
          2204.14910	                 nan
          2204.95540	                 nan
          2205.76170	                 nan
          2206.56800	                 nan
          2207.37430	                 nan
          2208.18060	                 nan
          2208.98690	                 nan
          2209.79320	                 nan
          2210.59950	                 nan
          2211.40580	                 nan
          2212.21210	                 nan
          2213.01840	                 nan
          2213.82470	                 nan
          2214.63100	                 nan
          2215.43730	         0.00000e+00
