#sample_308_stacked_spectrum_rest_UV-bands_median_H-alpha_noDC.txt
#median Lum: 1.69979e+42
#Rest-frame wavelength (A) | Luminosity (erg/s/A)
#
          1110.00000	         0.00000e+00
          1110.80630	         3.81607e+59
          1111.61260	         4.73310e+59
          1112.41890	         2.42943e+59
          1113.22520	         2.17752e+59
          1114.03150	        -1.08328e+59
          1114.83780	         1.55745e+59
          1115.64410	         1.60746e+59
          1116.45040	         1.76324e+59
          1117.25670	         1.31015e+59
          1118.06300	         7.89457e+58
          1118.86930	        -8.52873e+57
          1119.67560	         1.00237e+59
          1120.48190	         6.97398e+58
          1121.28820	        -4.12590e+58
          1122.09450	         4.42710e+58
          1122.90080	         1.16569e+58
          1123.70710	         2.71311e+58
          1124.51340	         1.01165e+59
          1125.31970	         1.01710e+59
          1126.12600	         6.63296e+58
          1126.93230	        -4.28691e+58
          1127.73860	        -3.90883e+58
          1128.54490	         4.44305e+58
          1129.35120	         2.93489e+58
          1130.15750	         2.02196e+57
          1130.96380	        -8.29908e+57
          1131.77010	         3.66957e+58
          1132.57640	         5.03548e+58
          1133.38270	         1.39777e+58
          1134.18900	         3.43265e+58
          1134.99530	        -7.27674e+57
          1135.80160	         1.64390e+58
          1136.60790	         6.79600e+57
          1137.41420	         7.10886e+56
          1138.22050	         5.22766e+58
          1139.02680	         3.52154e+58
          1139.83310	         2.44366e+58
          1140.63940	         1.66159e+58
          1141.44570	        -1.48765e+58
          1142.25200	        -1.47095e+58
          1143.05830	         2.94858e+58
          1143.86460	         4.17529e+58
          1144.67090	         4.73436e+58
          1145.47720	         9.16626e+57
          1146.28350	         4.19385e+57
          1147.08980	         1.16866e+58
          1147.89610	         1.99231e+58
          1148.70240	         2.67716e+58
          1149.50870	         2.11740e+58
          1150.31500	         2.08573e+58
          1151.12130	         5.77577e+57
          1151.92760	         3.12769e+57
          1152.73390	         1.04332e+58
          1153.54020	         2.30251e+57
          1154.34650	         2.13593e+58
          1155.15280	         1.30501e+58
          1155.95910	         6.98426e+57
          1156.76540	         5.63213e+56
          1157.57170	         8.71743e+56
          1158.37800	         2.72141e+57
          1159.18430	        -5.65215e+56
          1159.99060	         4.77503e+57
          1160.79690	         6.12111e+57
          1161.60320	         1.78070e+58
          1162.40950	         2.52625e+58
          1163.21580	         2.43950e+58
          1164.02210	         1.49804e+58
          1164.82840	         2.10908e+58
          1165.63470	         2.13813e+58
          1166.44100	         2.69886e+58
          1167.24730	         1.95471e+58
          1168.05360	         6.75721e+57
          1168.85990	         3.17619e+57
          1169.66620	         1.42991e+57
          1170.47250	         8.98972e+57
          1171.27880	         3.97211e+57
          1172.08510	         1.13695e+58
          1172.89140	         1.11075e+58
          1173.69770	         1.00476e+58
          1174.50400	         1.35832e+58
          1175.31030	         1.35214e+58
          1176.11660	         1.44871e+58
          1176.92290	         1.57695e+58
          1177.72920	         1.88026e+58
          1178.53550	         1.28133e+58
          1179.34180	         5.96432e+57
          1180.14810	         8.06091e+57
          1180.95440	         1.18350e+58
          1181.76070	         1.11541e+58
          1182.56700	         7.52020e+57
          1183.37330	         7.39689e+57
          1184.17960	         1.38841e+58
          1184.98590	         1.39493e+58
          1185.79220	         7.57801e+57
          1186.59850	         1.03138e+58
          1187.40480	         3.73222e+57
          1188.21110	         1.32782e+58
          1189.01740	         5.71399e+57
          1189.82370	         1.89692e+57
          1190.63000	         7.00282e+57
          1191.43630	         1.07652e+58
          1192.24260	         6.63477e+57
          1193.04890	         9.13586e+57
          1193.85520	         1.08681e+58
          1194.66150	         1.30949e+58
          1195.46780	         1.41274e+58
          1196.27410	         1.58694e+58
          1197.08040	         1.16146e+58
          1197.88670	         1.38732e+58
          1198.69300	         1.49225e+58
          1199.49930	         1.48744e+58
          1200.30560	         1.22521e+58
          1201.11190	         1.34677e+58
          1201.91820	         1.32333e+58
          1202.72450	         7.06076e+57
          1203.53080	         1.29456e+58
          1204.33710	         1.02542e+58
          1205.14340	         7.24523e+57
          1205.94970	         5.35357e+57
          1206.75600	         6.37560e+57
          1207.56230	         7.67013e+57
          1208.36860	         7.59453e+57
          1209.17490	         5.49127e+57
          1209.98120	         5.22228e+57
          1210.78750	         6.80627e+57
          1211.59380	         1.12385e+58
          1212.40010	         2.00238e+58
          1213.20640	         2.02727e+58
          1214.01270	         1.93411e+58
          1214.81900	         2.38905e+58
          1215.62530	         4.52559e+58
          1216.43160	         8.98980e+58
          1217.23790	         1.46636e+59
          1218.04420	         1.11079e+59
          1218.85050	         8.66840e+58
          1219.65680	         5.75609e+58
          1220.46310	         3.17769e+58
          1221.26940	         2.33460e+58
          1222.07570	         1.40112e+58
          1222.88200	         8.37557e+57
          1223.68830	         7.98810e+57
          1224.49460	         6.73558e+57
          1225.30090	         7.60798e+57
          1226.10720	         9.86694e+57
          1226.91350	         8.20294e+57
          1227.71980	         8.72906e+57
          1228.52610	         1.18277e+58
          1229.33240	         7.11734e+57
          1230.13870	         7.32878e+57
          1230.94500	         7.56516e+57
          1231.75130	         7.34060e+57
          1232.55760	         9.95758e+57
          1233.36390	         9.34928e+57
          1234.17020	         9.92137e+57
          1234.97650	         8.60586e+57
          1235.78280	         9.82025e+57
          1236.58910	         9.59554e+57
          1237.39540	         1.14084e+58
          1238.20170	         1.16908e+58
          1239.00800	         1.13274e+58
          1239.81430	         1.43274e+58
          1240.62060	         1.25149e+58
          1241.42690	         1.00864e+58
          1242.23320	         1.21022e+58
          1243.03950	         8.58130e+57
          1243.84580	         7.13191e+57
          1244.65210	         9.01361e+57
          1245.45840	         1.24428e+58
          1246.26470	         1.08984e+58
          1247.07100	         6.55757e+57
          1247.87730	         4.31951e+57
          1248.68360	         4.97097e+57
          1249.48990	         5.17608e+57
          1250.29620	         6.29145e+57
          1251.10250	         3.43127e+57
          1251.90880	         1.99882e+57
          1252.71510	         5.35745e+57
          1253.52140	         7.29314e+57
          1254.32770	         1.05968e+58
          1255.13400	         1.51219e+58
          1255.94030	         1.32575e+58
          1256.74660	         1.08847e+58
          1257.55290	         1.24096e+58
          1258.35920	         9.81411e+57
          1259.16550	         3.53450e+57
          1259.97180	         4.36399e+57
          1260.77810	         1.04010e+58
          1261.58440	         1.22815e+58
          1262.39070	         6.86226e+57
          1263.19700	         6.70441e+57
          1264.00330	         8.74257e+57
          1264.80960	         1.13905e+58
          1265.61590	         1.42300e+58
          1266.42220	         1.32555e+58
          1267.22850	         1.16816e+58
          1268.03480	         1.39455e+58
          1268.84110	         1.57312e+58
          1269.64740	         1.35135e+58
          1270.45370	         1.18611e+58
          1271.26000	         9.27253e+57
          1272.06630	         1.02346e+58
          1272.87260	         1.32085e+58
          1273.67890	         1.06816e+58
          1274.48520	         1.04546e+58
          1275.29150	         1.34944e+58
          1276.09780	         1.02306e+58
          1276.90410	         1.26578e+58
          1277.71040	         1.32813e+58
          1278.51670	         1.16433e+58
          1279.32300	         1.29115e+58
          1280.12930	         1.28405e+58
          1280.93560	         1.17564e+58
          1281.74190	         1.09634e+58
          1282.54820	         1.16290e+58
          1283.35450	         9.79031e+57
          1284.16080	         7.99530e+57
          1284.96710	         1.18685e+58
          1285.77340	         1.09251e+58
          1286.57970	         9.90470e+57
          1287.38600	         1.57391e+58
          1288.19230	         1.73939e+58
          1288.99860	         1.36911e+58
          1289.80490	         8.96848e+57
          1290.61120	         1.19737e+58
          1291.41750	         1.49020e+58
          1292.22380	         1.36421e+58
          1293.03010	         1.03769e+58
          1293.83640	         9.78874e+57
          1294.64270	         8.86138e+57
          1295.44900	         5.25997e+57
          1296.25530	         7.59443e+57
          1297.06160	         1.13717e+58
          1297.86790	         1.04391e+58
          1298.67420	         9.76726e+57
          1299.48050	         1.13265e+58
          1300.28680	         1.12924e+58
          1301.09310	         7.17975e+57
          1301.89940	         3.59070e+57
          1302.70570	         4.38182e+57
          1303.51200	         7.42517e+57
          1304.31830	         9.92771e+57
          1305.12460	         9.88976e+57
          1305.93090	         9.64850e+57
          1306.73720	         1.17847e+58
          1307.54350	         1.39411e+58
          1308.34980	         1.42876e+58
          1309.15610	         1.53086e+58
          1309.96240	         1.60558e+58
          1310.76870	         1.40144e+58
          1311.57500	         1.05505e+58
          1312.38130	         1.03489e+58
          1313.18760	         1.53775e+58
          1313.99390	         1.66533e+58
          1314.80020	         1.74483e+58
          1315.60650	         1.63692e+58
          1316.41280	         1.24244e+58
          1317.21910	         9.71626e+57
          1318.02540	         1.12301e+58
          1318.83170	         1.38143e+58
          1319.63800	         1.14443e+58
          1320.44430	         1.09623e+58
          1321.25060	         1.29752e+58
          1322.05690	         1.22140e+58
          1322.86320	         1.14712e+58
          1323.66950	         1.13840e+58
          1324.47580	         9.24915e+57
          1325.28210	         1.01686e+58
          1326.08840	         1.15582e+58
          1326.89470	         1.13985e+58
          1327.70100	         1.04553e+58
          1328.50730	         8.01771e+57
          1329.31360	         9.44689e+57
          1330.11990	         1.03098e+58
          1330.92620	         9.87716e+57
          1331.73250	         1.18321e+58
          1332.53880	         1.11850e+58
          1333.34510	         1.00258e+58
          1334.15140	         9.01588e+57
          1334.95770	         8.41659e+57
          1335.76400	         8.72686e+57
          1336.57030	         9.78371e+57
          1337.37660	         1.11243e+58
          1338.18290	         1.24019e+58
          1338.98920	         1.14232e+58
          1339.79550	         9.35984e+57
          1340.60180	         1.17160e+58
          1341.40810	         1.45896e+58
          1342.21440	         1.21430e+58
          1343.02070	         1.15959e+58
          1343.82700	         1.31345e+58
          1344.63330	         1.13514e+58
          1345.43960	         1.19426e+58
          1346.24590	         1.23080e+58
          1347.05220	         1.33438e+58
          1347.85850	         1.12040e+58
          1348.66480	         1.23671e+58
          1349.47110	         1.25271e+58
          1350.27740	         1.16686e+58
          1351.08370	         1.13901e+58
          1351.89000	         1.02136e+58
          1352.69630	         1.20165e+58
          1353.50260	         1.29542e+58
          1354.30890	         1.19179e+58
          1355.11520	         1.13664e+58
          1355.92150	         1.08472e+58
          1356.72780	         8.95305e+57
          1357.53410	         1.00257e+58
          1358.34040	         1.11639e+58
          1359.14670	         1.07857e+58
          1359.95300	         1.13568e+58
          1360.75930	         1.02078e+58
          1361.56560	         9.65804e+57
          1362.37190	         1.17622e+58
          1363.17820	         1.12020e+58
          1363.98450	         1.01279e+58
          1364.79080	         1.11842e+58
          1365.59710	         1.27445e+58
          1366.40340	         1.29276e+58
          1367.20970	         1.07572e+58
          1368.01600	         1.03779e+58
          1368.82230	         9.05737e+57
          1369.62860	         1.00916e+58
          1370.43490	         9.79907e+57
          1371.24120	         1.01397e+58
          1372.04750	         8.45826e+57
          1372.85380	         1.04302e+58
          1373.66010	         1.14825e+58
          1374.46640	         1.08437e+58
          1375.27270	         1.07277e+58
          1376.07900	         9.06780e+57
          1376.88530	         8.22573e+57
          1377.69160	         7.89482e+57
          1378.49790	         7.66508e+57
          1379.30420	         8.20953e+57
          1380.11050	         9.11852e+57
          1380.91680	         9.32756e+57
          1381.72310	         9.37982e+57
          1382.52940	         8.38155e+57
          1383.33570	         8.97465e+57
          1384.14200	         1.05923e+58
          1384.94830	         1.22601e+58
          1385.75460	         1.05845e+58
          1386.56090	         1.00445e+58
          1387.36720	         1.03954e+58
          1388.17350	         1.22616e+58
          1388.97980	         1.07903e+58
          1389.78610	         8.87834e+57
          1390.59240	         8.12974e+57
          1391.39870	         7.58127e+57
          1392.20500	         9.24573e+57
          1393.01130	         9.35360e+57
          1393.81760	         7.01401e+57
          1394.62390	         6.41812e+57
          1395.43020	         6.35324e+57
          1396.23650	         7.50479e+57
          1397.04280	         8.80413e+57
          1397.84910	         9.37734e+57
          1398.65540	         8.86386e+57
          1399.46170	         9.72429e+57
          1400.26800	         9.79062e+57
          1401.07430	         8.41294e+57
          1401.88060	         7.06474e+57
          1402.68690	         8.27384e+57
          1403.49320	         9.68659e+57
          1404.29950	         8.69564e+57
          1405.10580	         9.42026e+57
          1405.91210	         1.10349e+58
          1406.71840	         1.13709e+58
          1407.52470	         9.57529e+57
          1408.33100	         1.02132e+58
          1409.13730	         1.20567e+58
          1409.94360	         1.12870e+58
          1410.74990	         1.06611e+58
          1411.55620	         9.76801e+57
          1412.36250	         8.83694e+57
          1413.16880	         8.86491e+57
          1413.97510	         8.14825e+57
          1414.78140	         8.44202e+57
          1415.58770	         1.00280e+58
          1416.39400	         1.18550e+58
          1417.20030	         1.22582e+58
          1418.00660	         9.27602e+57
          1418.81290	         8.03134e+57
          1419.61920	         8.43779e+57
          1420.42550	         1.17981e+58
          1421.23180	         1.34797e+58
          1422.03810	         1.15898e+58
          1422.84440	         1.13564e+58
          1423.65070	         1.29181e+58
          1424.45700	         1.06080e+58
          1425.26330	         8.12832e+57
          1426.06960	         7.24241e+57
          1426.87590	         9.58767e+57
          1427.68220	         9.44331e+57
          1428.48850	         9.39735e+57
          1429.29480	         1.06477e+58
          1430.10110	         1.07459e+58
          1430.90740	         9.11111e+57
          1431.71370	         9.08774e+57
          1432.52000	         8.29697e+57
          1433.32630	         6.35130e+57
          1434.13260	         7.66638e+57
          1434.93890	         8.41722e+57
          1435.74520	         9.17883e+57
          1436.55150	         1.01620e+58
          1437.35780	         9.12855e+57
          1438.16410	         8.39754e+57
          1438.97040	         9.65204e+57
          1439.77670	         9.55447e+57
          1440.58300	         8.44498e+57
          1441.38930	         8.24663e+57
          1442.19560	         8.69265e+57
          1443.00190	         9.39329e+57
          1443.80820	         1.01874e+58
          1444.61450	         9.49612e+57
          1445.42080	         7.93226e+57
          1446.22710	         9.52111e+57
          1447.03340	         9.67072e+57
          1447.83970	         9.63919e+57
          1448.64600	         1.08704e+58
          1449.45230	         9.65175e+57
          1450.25860	         9.35247e+57
          1451.06490	         8.49221e+57
          1451.87120	         6.98649e+57
          1452.67750	         6.93485e+57
          1453.48380	         8.78539e+57
          1454.29010	         7.82059e+57
          1455.09640	         7.72691e+57
          1455.90270	         8.67449e+57
          1456.70900	         8.26682e+57
          1457.51530	         9.05024e+57
          1458.32160	         1.13496e+58
          1459.12790	         1.23723e+58
          1459.93420	         1.11689e+58
          1460.74050	         7.69701e+57
          1461.54680	         7.63366e+57
          1462.35310	         6.88652e+57
          1463.15940	         8.96733e+57
          1463.96570	         1.11705e+58
          1464.77200	         1.25198e+58
          1465.57830	         1.16067e+58
          1466.38460	         1.06177e+58
          1467.19090	         9.38650e+57
          1467.99720	         8.12216e+57
          1468.80350	         7.96755e+57
          1469.60980	         9.49024e+57
          1470.41610	         1.06260e+58
          1471.22240	         8.83017e+57
          1472.02870	         8.30696e+57
          1472.83500	         8.51949e+57
          1473.64130	         9.93974e+57
          1474.44760	         9.69331e+57
          1475.25390	         8.97952e+57
          1476.06020	         8.38678e+57
          1476.86650	         7.51994e+57
          1477.67280	         7.43963e+57
          1478.47910	         6.90028e+57
          1479.28540	         6.64737e+57
          1480.09170	         7.41139e+57
          1480.89800	         8.61785e+57
          1481.70430	         9.29009e+57
          1482.51060	         8.56337e+57
          1483.31690	         7.89129e+57
          1484.12320	         6.59281e+57
          1484.92950	         5.83260e+57
          1485.73580	         7.81577e+57
          1486.54210	         8.59335e+57
          1487.34840	         9.48475e+57
          1488.15470	         9.25930e+57
          1488.96100	         9.36323e+57
          1489.76730	         9.35773e+57
          1490.57360	         8.50579e+57
          1491.37990	         7.20996e+57
          1492.18620	         7.63207e+57
          1492.99250	         8.36571e+57
          1493.79880	         8.55407e+57
          1494.60510	         7.79568e+57
          1495.41140	         6.66860e+57
          1496.21770	         8.20814e+57
          1497.02400	         1.01939e+58
          1497.83030	         8.67187e+57
          1498.63660	         7.58171e+57
          1499.44290	         6.67303e+57
          1500.24920	         6.08286e+57
          1501.05550	         6.64825e+57
          1501.86180	         8.31182e+57
          1502.66810	         9.48399e+57
          1503.47440	         8.78143e+57
          1504.28070	         7.82969e+57
          1505.08700	         9.05487e+57
          1505.89330	         9.84083e+57
          1506.69960	         9.06845e+57
          1507.50590	         8.27654e+57
          1508.31220	         7.92893e+57
          1509.11850	         8.20189e+57
          1509.92480	         8.55511e+57
          1510.73110	         8.84830e+57
          1511.53740	         7.66300e+57
          1512.34370	         6.67288e+57
          1513.15000	         8.23130e+57
          1513.95630	         9.40979e+57
          1514.76260	         9.04375e+57
          1515.56890	         7.65505e+57
          1516.37520	         8.27120e+57
          1517.18150	         7.63851e+57
          1517.98780	         7.20807e+57
          1518.79410	         7.11575e+57
          1519.60040	         7.74353e+57
          1520.40670	         8.23526e+57
          1521.21300	         9.47207e+57
          1522.01930	         9.22280e+57
          1522.82560	         9.27806e+57
          1523.63190	         9.84775e+57
          1524.43820	         8.72407e+57
          1525.24450	         6.57222e+57
          1526.05080	         6.11411e+57
          1526.85710	         5.85622e+57
          1527.66340	         6.67267e+57
          1528.46970	         8.51497e+57
          1529.27600	         8.33439e+57
          1530.08230	         7.39621e+57
          1530.88860	         6.84527e+57
          1531.69490	         7.39457e+57
          1532.50120	         8.73454e+57
          1533.30750	         8.84508e+57
          1534.11380	         8.84648e+57
          1534.92010	         8.61967e+57
          1535.72640	         8.72724e+57
          1536.53270	         9.59807e+57
          1537.33900	         9.44369e+57
          1538.14530	         8.96013e+57
          1538.95160	         8.67288e+57
          1539.75790	         8.28241e+57
          1540.56420	         8.77783e+57
          1541.37050	         8.95846e+57
          1542.17680	         7.58651e+57
          1542.98310	         6.79343e+57
          1543.78940	         7.44422e+57
          1544.59570	         7.16885e+57
          1545.40200	         7.46880e+57
          1546.20830	         8.92409e+57
          1547.01460	         9.73605e+57
          1547.82090	         1.15110e+58
          1548.62720	         1.15522e+58
          1549.43350	         1.16638e+58
          1550.23980	         1.02879e+58
          1551.04610	         1.11085e+58
          1551.85240	         1.12959e+58
          1552.65870	         1.03106e+58
          1553.46500	         9.72886e+57
          1554.27130	         9.98865e+57
          1555.07760	         9.24227e+57
          1555.88390	         9.32316e+57
          1556.69020	         9.66240e+57
          1557.49650	         8.53203e+57
          1558.30280	         7.83234e+57
          1559.10910	         8.01760e+57
          1559.91540	         8.17930e+57
          1560.72170	         8.42250e+57
          1561.52800	         8.03540e+57
          1562.33430	         8.04027e+57
          1563.14060	         7.64297e+57
          1563.94690	         7.37370e+57
          1564.75320	         7.65052e+57
          1565.55950	         7.16634e+57
          1566.36580	         7.51699e+57
          1567.17210	         8.92879e+57
          1567.97840	         9.46621e+57
          1568.78470	         8.45230e+57
          1569.59100	         8.39389e+57
          1570.39730	         8.28341e+57
          1571.20360	         7.55926e+57
          1572.00990	         7.33628e+57
          1572.81620	         8.39439e+57
          1573.62250	         9.92394e+57
          1574.42880	         8.91559e+57
          1575.23510	         7.22379e+57
          1576.04140	         7.58564e+57
          1576.84770	         8.60710e+57
          1577.65400	         8.38064e+57
          1578.46030	         8.04062e+57
          1579.26660	         8.44119e+57
          1580.07290	         8.31051e+57
          1580.87920	         7.42723e+57
          1581.68550	         7.11146e+57
          1582.49180	         7.86798e+57
          1583.29810	         7.52958e+57
          1584.10440	         8.71707e+57
          1584.91070	         9.01267e+57
          1585.71700	         9.41688e+57
          1586.52330	         9.41133e+57
          1587.32960	         8.56491e+57
          1588.13590	         7.61153e+57
          1588.94220	         6.88565e+57
          1589.74850	         8.38632e+57
          1590.55480	         9.25243e+57
          1591.36110	         8.26150e+57
          1592.16740	         7.96595e+57
          1592.97370	         7.51025e+57
          1593.78000	         8.57809e+57
          1594.58630	         8.88233e+57
          1595.39260	         9.01336e+57
          1596.19890	         8.87373e+57
          1597.00520	         8.06116e+57
          1597.81150	         8.15083e+57
          1598.61780	         7.63105e+57
          1599.42410	         6.81213e+57
          1600.23040	         6.61167e+57
          1601.03670	         7.15653e+57
          1601.84300	         7.65365e+57
          1602.64930	         8.17241e+57
          1603.45560	         8.27829e+57
          1604.26190	         7.99092e+57
          1605.06820	         7.38392e+57
          1605.87450	         7.31202e+57
          1606.68080	         6.41263e+57
          1607.48710	         5.61976e+57
          1608.29340	         5.68376e+57
          1609.09970	         7.01703e+57
          1609.90600	         7.34705e+57
          1610.71230	         6.00341e+57
          1611.51860	         6.93144e+57
          1612.32490	         7.40480e+57
          1613.13120	         8.11243e+57
          1613.93750	         8.59174e+57
          1614.74380	         9.06166e+57
          1615.55010	         8.94768e+57
          1616.35640	         8.71593e+57
          1617.16270	         9.45832e+57
          1617.96900	         9.00197e+57
          1618.77530	         8.62606e+57
          1619.58160	         8.78940e+57
          1620.38790	         8.38458e+57
          1621.19420	         8.79434e+57
          1622.00050	         7.44093e+57
          1622.80680	         7.55526e+57
          1623.61310	         8.31957e+57
          1624.41940	         8.40264e+57
          1625.22570	         7.62334e+57
          1626.03200	         7.50569e+57
          1626.83830	         7.68467e+57
          1627.64460	         7.19838e+57
          1628.45090	         7.49237e+57
          1629.25720	         9.33988e+57
          1630.06350	         8.84780e+57
          1630.86980	         5.79532e+57
          1631.67610	         7.58862e+57
          1632.48240	         8.32893e+57
          1633.28870	         8.20958e+57
          1634.09500	         9.56873e+57
          1634.90130	         1.02562e+58
          1635.70760	         8.94458e+57
          1636.51390	         7.78195e+57
          1637.32020	         7.72419e+57
          1638.12650	         8.77329e+57
          1638.93280	         8.28931e+57
          1639.73910	         8.66230e+57
          1640.54540	         9.49334e+57
          1641.35170	         9.27937e+57
          1642.15800	         9.84660e+57
          1642.96430	         8.86046e+57
          1643.77060	         6.96699e+57
          1644.57690	         5.95438e+57
          1645.38320	         7.14584e+57
          1646.18950	         6.95698e+57
          1646.99580	         8.79796e+57
          1647.80210	         7.81873e+57
          1648.60840	         8.00616e+57
          1649.41470	         9.29742e+57
          1650.22100	         7.55370e+57
          1651.02730	         7.29867e+57
          1651.83360	         7.06287e+57
          1652.63990	         7.90711e+57
          1653.44620	         9.03309e+57
          1654.25250	         7.91816e+57
          1655.05880	         7.68368e+57
          1655.86510	         8.43289e+57
          1656.67140	         7.68577e+57
          1657.47770	         7.83168e+57
          1658.28400	         8.47940e+57
          1659.09030	         8.48214e+57
          1659.89660	         8.93058e+57
          1660.70290	         9.57933e+57
          1661.50920	         9.54298e+57
          1662.31550	         8.41674e+57
          1663.12180	         7.95620e+57
          1663.92810	         9.67775e+57
          1664.73440	         1.09526e+58
          1665.54070	         1.07104e+58
          1666.34700	         1.12261e+58
          1667.15330	         1.12087e+58
          1667.95960	         9.44174e+57
          1668.76590	         7.02628e+57
          1669.57220	         6.68215e+57
          1670.37850	         7.10428e+57
          1671.18480	         7.10914e+57
          1671.99110	         7.20979e+57
          1672.79740	         6.70809e+57
          1673.60370	         6.56018e+57
          1674.41000	         6.80565e+57
          1675.21630	         7.06188e+57
          1676.02260	         7.03169e+57
          1676.82890	         6.29496e+57
          1677.63520	         6.55131e+57
          1678.44150	         6.77823e+57
          1679.24780	         8.18595e+57
          1680.05410	         7.63051e+57
          1680.86040	         6.27220e+57
          1681.66670	         7.03913e+57
          1682.47300	         7.70763e+57
          1683.27930	         7.62287e+57
          1684.08560	         7.89347e+57
          1684.89190	         8.28898e+57
          1685.69820	         5.81780e+57
          1686.50450	         4.83688e+57
          1687.31080	         6.70465e+57
          1688.11710	         6.88023e+57
          1688.92340	         6.36095e+57
          1689.72970	         6.10856e+57
          1690.53600	         6.20352e+57
          1691.34230	         6.92373e+57
          1692.14860	         7.50616e+57
          1692.95490	         6.36814e+57
          1693.76120	         5.88842e+57
          1694.56750	         6.51566e+57
          1695.37380	         8.83097e+57
          1696.18010	         9.04636e+57
          1696.98640	         8.43061e+57
          1697.79270	         7.04673e+57
          1698.59900	         7.78715e+57
          1699.40530	         8.96796e+57
          1700.21160	         7.86428e+57
          1701.01790	         7.89619e+57
          1701.82420	         6.92613e+57
          1702.63050	         7.35619e+57
          1703.43680	         8.79085e+57
          1704.24310	         9.58184e+57
          1705.04940	         8.39671e+57
          1705.85570	         8.03384e+57
          1706.66200	         7.56844e+57
          1707.46830	         7.50477e+57
          1708.27460	         7.80110e+57
          1709.08090	         6.23141e+57
          1709.88720	         6.35040e+57
          1710.69350	         6.35180e+57
          1711.49980	         5.57678e+57
          1712.30610	         7.42276e+57
          1713.11240	         8.81509e+57
          1713.91870	         7.17558e+57
          1714.72500	         7.51721e+57
          1715.53130	         8.53596e+57
          1716.33760	         8.20479e+57
          1717.14390	         7.75016e+57
          1717.95020	         8.26124e+57
          1718.75650	         8.80528e+57
          1719.56280	         8.35647e+57
          1720.36910	         7.03702e+57
          1721.17540	         7.75799e+57
          1721.98170	         6.65854e+57
          1722.78800	         6.72804e+57
          1723.59430	         7.89012e+57
          1724.40060	         8.23658e+57
          1725.20690	         8.49276e+57
          1726.01320	         8.61817e+57
          1726.81950	         8.43412e+57
          1727.62580	         7.36680e+57
          1728.43210	         6.31742e+57
          1729.23840	         6.94148e+57
          1730.04470	         7.88253e+57
          1730.85100	         8.15824e+57
          1731.65730	         8.20543e+57
          1732.46360	         8.28994e+57
          1733.26990	         7.16182e+57
          1734.07620	         6.59511e+57
          1734.88250	         7.36900e+57
          1735.68880	         8.62852e+57
          1736.49510	         8.71264e+57
          1737.30140	         8.35242e+57
          1738.10770	         6.82809e+57
          1738.91400	         6.79216e+57
          1739.72030	         7.83979e+57
          1740.52660	         6.04495e+57
          1741.33290	         5.54311e+57
          1742.13920	         6.18085e+57
          1742.94550	         6.36904e+57
          1743.75180	         6.78772e+57
          1744.55810	         7.54560e+57
          1745.36440	         7.62649e+57
          1746.17070	         6.31247e+57
          1746.97700	         5.91048e+57
          1747.78330	         6.78245e+57
          1748.58960	         6.77560e+57
          1749.39590	         6.16720e+57
          1750.20220	         6.39673e+57
          1751.00850	         6.40824e+57
          1751.81480	         6.55276e+57
          1752.62110	         7.08646e+57
          1753.42740	         7.01943e+57
          1754.23370	         5.42737e+57
          1755.04000	         5.86267e+57
          1755.84630	         7.08688e+57
          1756.65260	         8.63500e+57
          1757.45890	         9.27182e+57
          1758.26520	         7.65812e+57
          1759.07150	         8.69701e+57
          1759.87780	         8.46310e+57
          1760.68410	         7.68215e+57
          1761.49040	         8.02923e+57
          1762.29670	         6.47426e+57
          1763.10300	         7.44737e+57
          1763.90930	         7.46970e+57
          1764.71560	         7.89059e+57
          1765.52190	         8.47526e+57
          1766.32820	         8.54314e+57
          1767.13450	         8.07234e+57
          1767.94080	         6.70720e+57
          1768.74710	         6.78897e+57
          1769.55340	         6.75111e+57
          1770.35970	         6.36623e+57
          1771.16600	         7.27724e+57
          1771.97230	         8.46414e+57
          1772.77860	         7.99313e+57
          1773.58490	         7.10278e+57
          1774.39120	         5.96183e+57
          1775.19750	         5.50696e+57
          1776.00380	         6.87760e+57
          1776.81010	         6.73215e+57
          1777.61640	         5.65509e+57
          1778.42270	         6.74693e+57
          1779.22900	         7.21870e+57
          1780.03530	         5.72600e+57
          1780.84160	         6.11674e+57
          1781.64790	         7.22673e+57
          1782.45420	         7.44266e+57
          1783.26050	         7.06530e+57
          1784.06680	         7.23730e+57
          1784.87310	         6.91214e+57
          1785.67940	         7.57410e+57
          1786.48570	         6.45873e+57
          1787.29200	         5.65605e+57
          1788.09830	         6.11336e+57
          1788.90460	         6.02415e+57
          1789.71090	         5.00842e+57
          1790.51720	         5.31721e+57
          1791.32350	         7.06285e+57
          1792.12980	         8.63417e+57
          1792.93610	         7.66119e+57
          1793.74240	         6.47146e+57
          1794.54870	         7.18030e+57
          1795.35500	         8.07578e+57
          1796.16130	         7.39592e+57
          1796.96760	         6.40313e+57
          1797.77390	         6.73906e+57
          1798.58020	         6.49098e+57
          1799.38650	         6.98977e+57
          1800.19280	         7.55413e+57
          1800.99910	         7.38993e+57
          1801.80540	         7.61501e+57
          1802.61170	         9.34775e+57
          1803.41800	         9.09696e+57
          1804.22430	         6.72061e+57
          1805.03060	         7.16780e+57
          1805.83690	         7.37775e+57
          1806.64320	         6.26676e+57
          1807.44950	         6.76785e+57
          1808.25580	         8.32002e+57
          1809.06210	         7.92578e+57
          1809.86840	         6.64792e+57
          1810.67470	         6.53943e+57
          1811.48100	         7.92519e+57
          1812.28730	         8.46777e+57
          1813.09360	         7.88206e+57
          1813.89990	         6.92397e+57
          1814.70620	         6.50178e+57
          1815.51250	         7.36862e+57
          1816.31880	         7.38918e+57
          1817.12510	         7.56844e+57
          1817.93140	         7.52155e+57
          1818.73770	         8.46157e+57
          1819.54400	         9.56589e+57
          1820.35030	         8.90879e+57
          1821.15660	         7.22676e+57
          1821.96290	         6.60864e+57
          1822.76920	         6.64394e+57
          1823.57550	         7.20254e+57
          1824.38180	         8.09259e+57
          1825.18810	         8.68257e+57
          1825.99440	         7.90712e+57
          1826.80070	         7.66518e+57
          1827.60700	         6.44257e+57
          1828.41330	         5.44841e+57
          1829.21960	         5.94570e+57
          1830.02590	         6.56083e+57
          1830.83220	         7.91809e+57
          1831.63850	         7.52105e+57
          1832.44480	         6.25000e+57
          1833.25110	         6.87922e+57
          1834.05740	         7.82325e+57
          1834.86370	         6.91515e+57
          1835.67000	         5.97853e+57
          1836.47630	         7.07889e+57
          1837.28260	         7.99734e+57
          1838.08890	         8.21704e+57
          1838.89520	         8.50917e+57
          1839.70150	         7.57925e+57
          1840.50780	         7.37527e+57
          1841.31410	         6.62655e+57
          1842.12040	         6.10432e+57
          1842.92670	         6.72886e+57
          1843.73300	         6.72468e+57
          1844.53930	         6.48738e+57
          1845.34560	         6.65077e+57
          1846.15190	         7.57370e+57
          1846.95820	         7.71582e+57
          1847.76450	         7.50719e+57
          1848.57080	         6.04944e+57
          1849.37710	         6.83964e+57
          1850.18340	         8.03346e+57
          1850.98970	         7.92097e+57
          1851.79600	         8.21263e+57
          1852.60230	         7.14669e+57
          1853.40860	         7.26195e+57
          1854.21490	         7.71228e+57
          1855.02120	         6.42786e+57
          1855.82750	         3.99080e+57
          1856.63380	         5.89245e+57
          1857.44010	         8.13206e+57
          1858.24640	         6.93034e+57
          1859.05270	         6.68352e+57
          1859.85900	         6.43640e+57
          1860.66530	         6.51307e+57
          1861.47160	         6.75683e+57
          1862.27790	         7.24642e+57
          1863.08420	         6.85288e+57
          1863.89050	         6.27103e+57
          1864.69680	         7.00161e+57
          1865.50310	         6.96454e+57
          1866.30940	         5.75673e+57
          1867.11570	         5.63806e+57
          1867.92200	         6.63476e+57
          1868.72830	         7.47458e+57
          1869.53460	         7.16580e+57
          1870.34090	         7.94489e+57
          1871.14720	         7.93480e+57
          1871.95350	         6.82096e+57
          1872.75980	         6.80206e+57
          1873.56610	         6.63404e+57
          1874.37240	         5.31111e+57
          1875.17870	         5.99687e+57
          1875.98500	         7.73880e+57
          1876.79130	         7.75014e+57
          1877.59760	         6.57449e+57
          1878.40390	         5.87850e+57
          1879.21020	         5.69227e+57
          1880.01650	         5.99360e+57
          1880.82280	         7.43197e+57
          1881.62910	         8.60110e+57
          1882.43540	         9.65084e+57
          1883.24170	         8.27071e+57
          1884.04800	         6.46421e+57
          1884.85430	         6.93612e+57
          1885.66060	         7.94293e+57
          1886.46690	         7.87399e+57
          1887.27320	         7.43718e+57
          1888.07950	         6.01208e+57
          1888.88580	         6.71760e+57
          1889.69210	         8.41385e+57
          1890.49840	         8.64728e+57
          1891.30470	         7.46759e+57
          1892.11100	         7.92265e+57
          1892.91730	         7.48139e+57
          1893.72360	         7.33543e+57
          1894.52990	         6.48325e+57
          1895.33620	         8.04841e+57
          1896.14250	         7.25505e+57
          1896.94880	         5.95550e+57
          1897.75510	         4.68391e+57
          1898.56140	         4.78796e+57
          1899.36770	         7.15545e+57
          1900.17400	         6.56729e+57
          1900.98030	         7.07970e+57
          1901.78660	         6.82037e+57
          1902.59290	         7.48296e+57
          1903.39920	         8.19389e+57
          1904.20550	         8.38705e+57
          1905.01180	         8.90463e+57
          1905.81810	         9.59612e+57
          1906.62440	         1.21799e+58
          1907.43070	         1.49399e+58
          1908.23700	         1.60803e+58
          1909.04330	         1.27688e+58
          1909.84960	         1.10311e+58
          1910.65590	         1.01792e+58
          1911.46220	         8.52761e+57
          1912.26850	         7.52915e+57
          1913.07480	         6.25047e+57
          1913.88110	         5.50238e+57
          1914.68740	         6.08034e+57
          1915.49370	         5.78876e+57
          1916.30000	         5.54763e+57
          1917.10630	         6.90950e+57
          1917.91260	         7.04624e+57
          1918.71890	         5.42874e+57
          1919.52520	         5.10634e+57
          1920.33150	         5.58630e+57
          1921.13780	         7.18862e+57
          1921.94410	         7.62530e+57
          1922.75040	         7.08681e+57
          1923.55670	         6.85354e+57
          1924.36300	         6.97145e+57
          1925.16930	         5.77555e+57
          1925.97560	         5.42000e+57
          1926.78190	         5.02449e+57
          1927.58820	         5.13747e+57
          1928.39450	         5.91174e+57
          1929.20080	         5.20109e+57
          1930.00710	         6.15404e+57
          1930.81340	         6.99289e+57
          1931.61970	         5.76457e+57
          1932.42600	         6.06255e+57
          1933.23230	         7.37756e+57
          1934.03860	         6.23937e+57
          1934.84490	         6.49024e+57
          1935.65120	         7.19174e+57
          1936.45750	         9.29177e+57
          1937.26380	         6.98629e+57
          1938.07010	         7.01157e+57
          1938.87640	         7.45730e+57
          1939.68270	         8.37383e+57
          1940.48900	         8.22207e+57
          1941.29530	         7.87290e+57
          1942.10160	         7.25345e+57
          1942.90790	         5.72353e+57
          1943.71420	         5.31486e+57
          1944.52050	         5.73274e+57
          1945.32680	         5.34677e+57
          1946.13310	         6.34438e+57
          1946.93940	         7.73689e+57
          1947.74570	         7.47719e+57
          1948.55200	         6.36513e+57
          1949.35830	         5.56173e+57
          1950.16460	         5.93970e+57
          1950.97090	         6.93741e+57
          1951.77720	         6.83657e+57
          1952.58350	         6.78473e+57
          1953.38980	         6.00578e+57
          1954.19610	         4.90112e+57
          1955.00240	         5.34152e+57
          1955.80870	         6.15070e+57
          1956.61500	         6.45037e+57
          1957.42130	         6.74763e+57
          1958.22760	         6.77234e+57
          1959.03390	         7.27234e+57
          1959.84020	         7.44201e+57
          1960.64650	         6.61273e+57
          1961.45280	         6.34027e+57
          1962.25910	         6.66301e+57
          1963.06540	         6.63386e+57
          1963.87170	         6.75836e+57
          1964.67800	         6.69870e+57
          1965.48430	         7.80712e+57
          1966.29060	         7.83451e+57
          1967.09690	         7.91697e+57
          1967.90320	         6.97084e+57
          1968.70950	         5.67169e+57
          1969.51580	         6.48834e+57
          1970.32210	         6.69838e+57
          1971.12840	         6.95924e+57
          1971.93470	         5.30227e+57
          1972.74100	         4.84767e+57
          1973.54730	         6.43641e+57
          1974.35360	         7.52313e+57
          1975.15990	         8.02823e+57
          1975.96620	         7.59203e+57
          1976.77250	         8.81760e+57
          1977.57880	         8.01176e+57
          1978.38510	         5.91638e+57
          1979.19140	         6.75474e+57
          1979.99770	         8.10949e+57
          1980.80400	         8.58504e+57
          1981.61030	         7.34073e+57
          1982.41660	         5.87964e+57
          1983.22290	         6.10313e+57
          1984.02920	         5.47704e+57
          1984.83550	         5.23477e+57
          1985.64180	         6.50432e+57
          1986.44810	         6.99659e+57
          1987.25440	         6.34679e+57
          1988.06070	         4.84954e+57
          1988.86700	         5.76977e+57
          1989.67330	         6.86936e+57
          1990.47960	         6.64944e+57
          1991.28590	         6.90711e+57
          1992.09220	         6.50898e+57
          1992.89850	         5.71716e+57
          1993.70480	         5.12425e+57
          1994.51110	         5.02484e+57
          1995.31740	         5.27643e+57
          1996.12370	         4.60137e+57
          1996.93000	         5.85707e+57
          1997.73630	         8.22367e+57
          1998.54260	         7.20166e+57
          1999.34890	         7.08212e+57
          2000.15520	         6.49034e+57
          2000.96150	         7.19319e+57
          2001.76780	         5.60644e+57
          2002.57410	         5.08054e+57
          2003.38040	         6.72624e+57
          2004.18670	         5.72018e+57
          2004.99300	         4.95661e+57
          2005.79930	         6.51277e+57
          2006.60560	         7.32675e+57
          2007.41190	         6.22365e+57
          2008.21820	         6.72465e+57
          2009.02450	         7.48020e+57
          2009.83080	         6.06709e+57
          2010.63710	         6.55806e+57
          2011.44340	         6.13727e+57
          2012.24970	         5.81607e+57
          2013.05600	         6.96943e+57
          2013.86230	         7.42053e+57
          2014.66860	         5.15443e+57
          2015.47490	         6.43730e+57
          2016.28120	         5.90107e+57
          2017.08750	         5.19179e+57
          2017.89380	         6.21422e+57
          2018.70010	         5.52829e+57
          2019.50640	         5.42986e+57
          2020.31270	         6.34346e+57
          2021.11900	         7.67687e+57
          2021.92530	         7.32919e+57
          2022.73160	         7.81347e+57
          2023.53790	         7.66692e+57
          2024.34420	         7.08013e+57
          2025.15050	         4.74657e+57
          2025.95680	         5.06139e+57
          2026.76310	         6.53593e+57
          2027.56940	         5.85231e+57
          2028.37570	         4.56998e+57
          2029.18200	         5.51599e+57
          2029.98830	         6.91740e+57
          2030.79460	         6.77196e+57
          2031.60090	         6.78700e+57
          2032.40720	         5.82344e+57
          2033.21350	         6.01725e+57
          2034.01980	         5.33161e+57
          2034.82610	         4.89885e+57
          2035.63240	         4.86382e+57
          2036.43870	         6.13480e+57
          2037.24500	         6.86720e+57
          2038.05130	         6.28686e+57
          2038.85760	         6.08867e+57
          2039.66390	         6.78755e+57
          2040.47020	         5.84355e+57
          2041.27650	         6.13094e+57
          2042.08280	         5.31658e+57
          2042.88910	         5.27824e+57
          2043.69540	         4.79520e+57
          2044.50170	         5.24970e+57
          2045.30800	         5.08590e+57
          2046.11430	         4.21056e+57
          2046.92060	         4.67395e+57
          2047.72690	         5.80694e+57
          2048.53320	         5.53840e+57
          2049.33950	         5.51510e+57
          2050.14580	         6.12772e+57
          2050.95210	         5.95215e+57
          2051.75840	         6.66667e+57
          2052.56470	         5.78537e+57
          2053.37100	         3.87428e+57
          2054.17730	         3.71289e+57
          2054.98360	         6.03285e+57
          2055.78990	         4.60415e+57
          2056.59620	         3.22007e+57
          2057.40250	         5.39651e+57
          2058.20880	         6.29541e+57
          2059.01510	         5.10390e+57
          2059.82140	         6.74312e+57
          2060.62770	         9.12326e+57
          2061.43400	         1.54681e+58
          2062.24030	         1.15692e+58
          2063.04660	         4.31327e+57
          2063.85290	         3.20173e+57
          2064.65920	        -1.23257e+57
          2065.46550	        -9.41975e+57
          2066.27180	        -1.01592e+58
          2067.07810	         1.12162e+57
          2067.88440	         4.37699e+57
          2068.69070	         5.85286e+57
          2069.49700	         4.94342e+57
          2070.30330	         3.93773e+57
          2071.10960	         4.72684e+57
          2071.91590	         6.74622e+57
          2072.72220	         3.78264e+57
          2073.52850	         3.83330e+57
          2074.33480	         4.64017e+57
          2075.14110	         5.98756e+57
          2075.94740	         4.71863e+57
          2076.75370	         5.37885e+57
          2077.56000	         5.20098e+57
          2078.36630	         6.00090e+57
          2079.17260	         5.32171e+57
          2079.97890	         5.70198e+57
          2080.78520	         3.87414e+57
          2081.59150	         4.07446e+57
          2082.39780	         3.02858e+57
          2083.20410	         2.55392e+57
          2084.01040	         2.37493e+57
          2084.81670	         5.07232e+57
          2085.62300	         3.97238e+57
          2086.42930	         4.52554e+57
          2087.23560	         2.45048e+57
          2088.04190	         4.10909e+57
          2088.84820	         5.65733e+57
          2089.65450	         3.34095e+57
          2090.46080	         9.66475e+56
          2091.26710	         1.75450e+57
          2092.07340	         1.86779e+57
          2092.87970	         1.07269e+57
          2093.68600	        -2.85360e+57
          2094.49230	         2.07807e+57
          2095.29860	         5.31142e+57
          2096.10490	         1.06787e+57
          2096.91120	        -2.63520e+56
          2097.71750	        -1.97642e+56
          2098.52380	         1.25848e+57
          2099.33010	         8.77082e+56
          2100.13640	         7.41720e+56
          2100.94270	         1.11409e+57
          2101.74900	         1.41276e+57
          2102.55530	         3.24419e+57
          2103.36160	         1.65086e+57
          2104.16790	         2.27433e+57
          2104.97420	         2.36725e+57
          2105.78050	         2.22833e+57
          2106.58680	         1.25704e+57
          2107.39310	        -5.36374e+56
          2108.19940	         1.62397e+57
          2109.00570	         4.78626e+56
          2109.81200	        -1.58883e+57
          2110.61830	        -7.48387e+56
          2111.42460	         2.24561e+57
          2112.23090	        -1.70487e+57
          2113.03720	        -4.21256e+57
          2113.84350	         6.22982e+57
          2114.64980	         7.67980e+57
          2115.45610	         9.25553e+56
          2116.26240	         1.40716e+57
          2117.06870	         1.57110e+57
          2117.87500	        -2.55625e+57
          2118.68130	         9.30430e+56
          2119.48760	         2.22270e+57
          2120.29390	         5.04826e+56
          2121.10020	        -9.40652e+56
          2121.90650	        -1.32804e+57
          2122.71280	        -2.84695e+57
          2123.51910	        -1.51708e+57
          2124.32540	         2.11274e+57
          2125.13170	        -6.44029e+56
          2125.93800	         3.80568e+57
          2126.74430	         2.90096e+57
          2127.55060	        -3.83892e+57
          2128.35690	        -4.31999e+57
          2129.16320	        -3.07507e+57
          2129.96950	        -9.27202e+57
          2130.77580	        -3.72620e+57
          2131.58210	        -2.43176e+57
          2132.38840	        -1.82567e+57
          2133.19470	         1.44837e+57
          2134.00100	         4.46848e+55
          2134.80730	        -9.93779e+57
          2135.61360	        -6.94884e+57
          2136.41990	         1.18732e+58
          2137.22620	         4.39129e+57
          2138.03250	        -5.93594e+57
          2138.83880	        -1.48308e+57
          2139.64510	         8.15305e+57
          2140.45140	         3.43202e+56
          2141.25770	        -9.84531e+57
          2142.06400	        -6.93823e+56
          2142.87030	         5.26506e+57
          2143.67660	         8.77679e+57
          2144.48290	         1.49239e+58
          2145.28920	         1.32152e+58
          2146.09550	        -6.35450e+57
          2146.90180	        -1.38755e+58
          2147.70810	        -3.76561e+57
          2148.51440	        -1.54041e+57
          2149.32070	        -8.73018e+57
          2150.12700	        -1.24196e+58
          2150.93330	        -2.04148e+57
          2151.73960	        -1.71529e+57
          2152.54590	         2.24463e+57
          2153.35220	        -2.99755e+57
          2154.15850	         5.14758e+56
          2154.96480	         1.38941e+57
          2155.77110	         6.71747e+57
          2156.57740	        -1.65231e+57
          2157.38370	        -1.74120e+58
          2158.19000	         1.78918e+57
          2158.99630	        -7.38799e+56
          2159.80260	        -1.58351e+58
          2160.60890	        -8.52878e+57
          2161.41520	        -6.36217e+57
          2162.22150	        -4.01400e+57
          2163.02780	         3.09579e+56
          2163.83410	        -2.76697e+57
          2164.64040	        -7.12884e+57
          2165.44670	        -1.29204e+58
          2166.25300	        -6.47744e+57
          2167.05930	        -6.80454e+57
          2167.86560	        -9.83296e+57
          2168.67190	        -4.14209e+57
          2169.47820	        -2.24728e+58
          2170.28450	        -2.62563e+58
          2171.09080	        -6.35250e+57
          2171.89710	        -6.55198e+57
          2172.70340	        -9.44153e+56
          2173.50970	        -7.91024e+57
          2174.31600	        -6.71783e+57
          2175.12230	        -2.61521e+56
          2175.92860	        -2.34035e+57
          2176.73490	        -1.00695e+58
          2177.54120	        -9.06100e+57
          2178.34750	        -4.05370e+57
          2179.15380	                 nan
          2179.96010	                 nan
          2180.76640	                 nan
          2181.57270	                 nan
          2182.37900	                 nan
          2183.18530	                 nan
          2183.99160	                 nan
          2184.79790	                 nan
          2185.60420	                 nan
          2186.41050	                 nan
          2187.21680	                 nan
          2188.02310	                 nan
          2188.82940	                 nan
          2189.63570	                 nan
          2190.44200	                 nan
          2191.24830	                 nan
          2192.05460	                 nan
          2192.86090	                 nan
          2193.66720	                 nan
          2194.47350	                 nan
          2195.27980	                 nan
          2196.08610	                 nan
          2196.89240	                 nan
          2197.69870	                 nan
          2198.50500	                 nan
          2199.31130	                 nan
          2200.11760	                 nan
          2200.92390	                 nan
          2201.73020	                 nan
          2202.53650	                 nan
          2203.34280	                 nan
          2204.14910	                 nan
          2204.95540	                 nan
          2205.76170	                 nan
          2206.56800	                 nan
          2207.37430	                 nan
          2208.18060	                 nan
          2208.98690	                 nan
          2209.79320	                 nan
          2210.59950	                 nan
          2211.40580	                 nan
          2212.21210	                 nan
          2213.01840	                 nan
          2213.82470	                 nan
          2214.63100	                 nan
          2215.43730	         0.00000e+00
