#sample_478_stacked_spectrum_rest_UV-bands_median_H-alpha_noDC.txt
#median Lum: 1.71689e+42
#Rest-frame wavelength (A) | Luminosity (erg/s/A)
#
          1110.00000	         0.00000e+00
          1110.80630	        -8.74043e+58
          1111.61260	         1.12613e+59
          1112.41890	         5.80550e+57
          1113.22520	        -1.68728e+59
          1114.03150	        -2.31666e+59
          1114.83780	         6.94901e+58
          1115.64410	         5.78919e+58
          1116.45040	         1.87182e+59
          1117.25670	         1.60952e+59
          1118.06300	         1.72332e+59
          1118.86930	         1.04170e+58
          1119.67560	         6.34414e+58
          1120.48190	         5.94299e+58
          1121.28820	        -1.20315e+59
          1122.09450	        -4.87138e+58
          1122.90080	        -1.77756e+58
          1123.70710	         4.38475e+57
          1124.51340	         7.52745e+58
          1125.31970	         4.26062e+58
          1126.12600	         1.20529e+58
          1126.93230	        -3.27575e+58
          1127.73860	        -6.39776e+58
          1128.54490	         1.35432e+58
          1129.35120	         1.52201e+58
          1130.15750	        -3.14263e+58
          1130.96380	        -2.44012e+58
          1131.77010	         5.54478e+58
          1132.57640	         4.78934e+58
          1133.38270	         3.04933e+58
          1134.18900	         5.25794e+58
          1134.99530	        -9.28070e+57
          1135.80160	        -1.67995e+58
          1136.60790	         6.94345e+57
          1137.41420	        -3.99288e+57
          1138.22050	         2.81331e+58
          1139.02680	         4.04570e+58
          1139.83310	         3.59621e+58
          1140.63940	         2.32582e+58
          1141.44570	         4.70514e+57
          1142.25200	         3.17385e+57
          1143.05830	         1.87184e+58
          1143.86460	         3.71240e+58
          1144.67090	         2.02889e+58
          1145.47720	         2.49249e+58
          1146.28350	         2.20871e+58
          1147.08980	         2.10516e+58
          1147.89610	         2.27405e+58
          1148.70240	         2.97965e+58
          1149.50870	         1.71995e+58
          1150.31500	         1.15706e+58
          1151.12130	         3.30006e+57
          1151.92760	        -5.18984e+56
          1152.73390	         1.21400e+58
          1153.54020	         4.19417e+57
          1154.34650	         1.84653e+58
          1155.15280	         2.06279e+58
          1155.95910	         1.74048e+57
          1156.76540	         8.14959e+56
          1157.57170	         7.22556e+57
          1158.37800	         2.62097e+57
          1159.18430	        -5.76252e+56
          1159.99060	         2.16062e+57
          1160.79690	        -8.19714e+56
          1161.60320	         4.18642e+57
          1162.40950	         1.09798e+58
          1163.21580	         1.61067e+58
          1164.02210	         9.90656e+57
          1164.82840	         1.57513e+58
          1165.63470	         2.06578e+58
          1166.44100	         1.90909e+58
          1167.24730	         1.87207e+58
          1168.05360	         9.71565e+57
          1168.85990	         7.66753e+57
          1169.66620	         1.18055e+58
          1170.47250	         6.26058e+57
          1171.27880	         6.93684e+57
          1172.08510	         1.34684e+58
          1172.89140	         5.44047e+57
          1173.69770	         6.35984e+57
          1174.50400	         9.78792e+57
          1175.31030	         1.92736e+58
          1176.11660	         1.92376e+58
          1176.92290	         1.63029e+58
          1177.72920	         9.60688e+57
          1178.53550	         5.55048e+57
          1179.34180	         4.63080e+57
          1180.14810	         5.64521e+57
          1180.95440	         6.26487e+57
          1181.76070	         6.20147e+57
          1182.56700	         7.19672e+57
          1183.37330	         6.45049e+57
          1184.17960	         1.34393e+58
          1184.98590	         1.82821e+58
          1185.79220	         9.69855e+57
          1186.59850	         1.42254e+58
          1187.40480	         6.96334e+57
          1188.21110	         9.72222e+57
          1189.01740	         1.21722e+58
          1189.82370	         1.28016e+58
          1190.63000	         1.32757e+58
          1191.43630	         1.46779e+58
          1192.24260	         8.92879e+57
          1193.04890	         7.68516e+57
          1193.85520	         4.85252e+57
          1194.66150	         1.88278e+56
          1195.46780	         7.38891e+57
          1196.27410	         1.77779e+58
          1197.08040	         1.34722e+58
          1197.88670	         1.45895e+58
          1198.69300	         1.61268e+58
          1199.49930	         1.70224e+58
          1200.30560	         9.05807e+57
          1201.11190	         1.11317e+58
          1201.91820	         1.20641e+58
          1202.72450	         1.17058e+58
          1203.53080	         1.00531e+58
          1204.33710	         7.10481e+57
          1205.14340	         1.10369e+58
          1205.94970	         7.86590e+57
          1206.75600	         1.17844e+58
          1207.56230	         5.37730e+57
          1208.36860	         8.24721e+57
          1209.17490	         6.19737e+57
          1209.98120	         5.25883e+57
          1210.78750	         8.09610e+57
          1211.59380	         1.29608e+58
          1212.40010	         1.80240e+58
          1213.20640	         2.02350e+58
          1214.01270	         1.73755e+58
          1214.81900	         2.38122e+58
          1215.62530	         4.39471e+58
          1216.43160	         8.97363e+58
          1217.23790	         1.52436e+59
          1218.04420	         1.19424e+59
          1218.85050	         8.91312e+58
          1219.65680	         5.59031e+58
          1220.46310	         2.80443e+58
          1221.26940	         2.12025e+58
          1222.07570	         1.91923e+58
          1222.88200	         1.56102e+58
          1223.68830	         1.08913e+58
          1224.49460	         8.69013e+57
          1225.30090	         9.51411e+57
          1226.10720	         5.94526e+57
          1226.91350	         6.16874e+57
          1227.71980	         1.02847e+58
          1228.52610	         1.23284e+58
          1229.33240	         1.26631e+58
          1230.13870	         1.26830e+58
          1230.94500	         1.09197e+58
          1231.75130	         8.80462e+57
          1232.55760	         9.24359e+57
          1233.36390	         8.56850e+57
          1234.17020	         8.41809e+57
          1234.97650	         8.22958e+57
          1235.78280	         7.45323e+57
          1236.58910	         8.28681e+57
          1237.39540	         9.86512e+57
          1238.20170	         9.17149e+57
          1239.00800	         1.21167e+58
          1239.81430	         1.72661e+58
          1240.62060	         1.27381e+58
          1241.42690	         9.44727e+57
          1242.23320	         1.12204e+58
          1243.03950	         9.33570e+57
          1243.84580	         1.02239e+58
          1244.65210	         1.14960e+58
          1245.45840	         1.16728e+58
          1246.26470	         9.88467e+57
          1247.07100	         7.00822e+57
          1247.87730	         5.11656e+57
          1248.68360	         5.27558e+57
          1249.48990	         1.01704e+58
          1250.29620	         1.09573e+58
          1251.10250	         6.51274e+57
          1251.90880	         3.02137e+57
          1252.71510	         5.21292e+57
          1253.52140	         6.74490e+57
          1254.32770	         1.12177e+58
          1255.13400	         1.31667e+58
          1255.94030	         1.12376e+58
          1256.74660	         1.05521e+58
          1257.55290	         1.16463e+58
          1258.35920	         1.05592e+58
          1259.16550	         5.91443e+57
          1259.97180	         5.27154e+57
          1260.77810	         6.40664e+57
          1261.58440	         7.66071e+57
          1262.39070	         5.40443e+57
          1263.19700	         7.63980e+57
          1264.00330	         1.05628e+58
          1264.80960	         1.15826e+58
          1265.61590	         1.28525e+58
          1266.42220	         1.21451e+58
          1267.22850	         1.00756e+58
          1268.03480	         1.12363e+58
          1268.84110	         1.30530e+58
          1269.64740	         1.51968e+58
          1270.45370	         1.66037e+58
          1271.26000	         1.23717e+58
          1272.06630	         1.15973e+58
          1272.87260	         1.31610e+58
          1273.67890	         1.31276e+58
          1274.48520	         1.21654e+58
          1275.29150	         1.30954e+58
          1276.09780	         1.19615e+58
          1276.90410	         1.57078e+58
          1277.71040	         1.50043e+58
          1278.51670	         1.06316e+58
          1279.32300	         1.23643e+58
          1280.12930	         1.22716e+58
          1280.93560	         1.13663e+58
          1281.74190	         1.28738e+58
          1282.54820	         1.34933e+58
          1283.35450	         1.20832e+58
          1284.16080	         1.19005e+58
          1284.96710	         1.40128e+58
          1285.77340	         1.27287e+58
          1286.57970	         1.24266e+58
          1287.38600	         1.48344e+58
          1288.19230	         1.80969e+58
          1288.99860	         1.61515e+58
          1289.80490	         1.22470e+58
          1290.61120	         1.21722e+58
          1291.41750	         1.28830e+58
          1292.22380	         1.25304e+58
          1293.03010	         1.34352e+58
          1293.83640	         1.26590e+58
          1294.64270	         8.91431e+57
          1295.44900	         5.95504e+57
          1296.25530	         7.99291e+57
          1297.06160	         1.05314e+58
          1297.86790	         1.17319e+58
          1298.67420	         1.07711e+58
          1299.48050	         1.19898e+58
          1300.28680	         1.12351e+58
          1301.09310	         7.38617e+57
          1301.89940	         5.54172e+57
          1302.70570	         7.88421e+57
          1303.51200	         9.60114e+57
          1304.31830	         1.14308e+58
          1305.12460	         1.33955e+58
          1305.93090	         1.39774e+58
          1306.73720	         1.32756e+58
          1307.54350	         1.44229e+58
          1308.34980	         1.54049e+58
          1309.15610	         1.61958e+58
          1309.96240	         1.64138e+58
          1310.76870	         1.57813e+58
          1311.57500	         1.35555e+58
          1312.38130	         1.21727e+58
          1313.18760	         1.26365e+58
          1313.99390	         1.60365e+58
          1314.80020	         1.70964e+58
          1315.60650	         1.51268e+58
          1316.41280	         1.29680e+58
          1317.21910	         1.30016e+58
          1318.02540	         1.60809e+58
          1318.83170	         1.38442e+58
          1319.63800	         1.14256e+58
          1320.44430	         1.20017e+58
          1321.25060	         1.23516e+58
          1322.05690	         1.27547e+58
          1322.86320	         1.11533e+58
          1323.66950	         1.09465e+58
          1324.47580	         1.12818e+58
          1325.28210	         1.16125e+58
          1326.08840	         1.23597e+58
          1326.89470	         1.34522e+58
          1327.70100	         1.14763e+58
          1328.50730	         7.22136e+57
          1329.31360	         9.73501e+57
          1330.11990	         1.10219e+58
          1330.92620	         8.95782e+57
          1331.73250	         9.98376e+57
          1332.53880	         1.04201e+58
          1333.34510	         9.59491e+57
          1334.15140	         9.18610e+57
          1334.95770	         9.18251e+57
          1335.76400	         1.14884e+58
          1336.57030	         1.22523e+58
          1337.37660	         1.17454e+58
          1338.18290	         1.18720e+58
          1338.98920	         1.18111e+58
          1339.79550	         1.20101e+58
          1340.60180	         1.26284e+58
          1341.40810	         1.50168e+58
          1342.21440	         1.30452e+58
          1343.02070	         1.19055e+58
          1343.82700	         1.34429e+58
          1344.63330	         1.28395e+58
          1345.43960	         1.40552e+58
          1346.24590	         1.16427e+58
          1347.05220	         1.09710e+58
          1347.85850	         9.36685e+57
          1348.66480	         1.08476e+58
          1349.47110	         1.19042e+58
          1350.27740	         1.06017e+58
          1351.08370	         1.17556e+58
          1351.89000	         1.27349e+58
          1352.69630	         1.42536e+58
          1353.50260	         1.47285e+58
          1354.30890	         1.40959e+58
          1355.11520	         1.33042e+58
          1355.92150	         1.28231e+58
          1356.72780	         1.12500e+58
          1357.53410	         1.05524e+58
          1358.34040	         1.05936e+58
          1359.14670	         9.79860e+57
          1359.95300	         1.16292e+58
          1360.75930	         1.29548e+58
          1361.56560	         1.05965e+58
          1362.37190	         1.03080e+58
          1363.17820	         1.14042e+58
          1363.98450	         1.32258e+58
          1364.79080	         1.26999e+58
          1365.59710	         1.39477e+58
          1366.40340	         1.33786e+58
          1367.20970	         1.07062e+58
          1368.01600	         8.92412e+57
          1368.82230	         8.57326e+57
          1369.62860	         9.28251e+57
          1370.43490	         9.04038e+57
          1371.24120	         9.61162e+57
          1372.04750	         7.58935e+57
          1372.85380	         9.60978e+57
          1373.66010	         1.07172e+58
          1374.46640	         1.20192e+58
          1375.27270	         1.25438e+58
          1376.07900	         1.00584e+58
          1376.88530	         9.64136e+57
          1377.69160	         9.13921e+57
          1378.49790	         7.81283e+57
          1379.30420	         7.66446e+57
          1380.11050	         9.53051e+57
          1380.91680	         9.37496e+57
          1381.72310	         7.50689e+57
          1382.52940	         8.54477e+57
          1383.33570	         1.07938e+58
          1384.14200	         1.12885e+58
          1384.94830	         1.16409e+58
          1385.75460	         1.11878e+58
          1386.56090	         1.20222e+58
          1387.36720	         1.19345e+58
          1388.17350	         1.28120e+58
          1388.97980	         1.22486e+58
          1389.78610	         1.07906e+58
          1390.59240	         9.24967e+57
          1391.39870	         8.38080e+57
          1392.20500	         8.89404e+57
          1393.01130	         7.47946e+57
          1393.81760	         7.40158e+57
          1394.62390	         8.91939e+57
          1395.43020	         8.24410e+57
          1396.23650	         6.82828e+57
          1397.04280	         7.72076e+57
          1397.84910	         9.80075e+57
          1398.65540	         9.77846e+57
          1399.46170	         9.26013e+57
          1400.26800	         8.10296e+57
          1401.07430	         8.33972e+57
          1401.88060	         1.01775e+58
          1402.68690	         1.09223e+58
          1403.49320	         9.75950e+57
          1404.29950	         9.54784e+57
          1405.10580	         9.79712e+57
          1405.91210	         1.12085e+58
          1406.71840	         1.23823e+58
          1407.52470	         1.22003e+58
          1408.33100	         1.11857e+58
          1409.13730	         1.20865e+58
          1409.94360	         1.20323e+58
          1410.74990	         1.06395e+58
          1411.55620	         1.00069e+58
          1412.36250	         9.32081e+57
          1413.16880	         8.88305e+57
          1413.97510	         7.53778e+57
          1414.78140	         6.70212e+57
          1415.58770	         8.20342e+57
          1416.39400	         9.58135e+57
          1417.20030	         1.04513e+58
          1418.00660	         1.07567e+58
          1418.81290	         1.05126e+58
          1419.61920	         1.15386e+58
          1420.42550	         1.25782e+58
          1421.23180	         1.38358e+58
          1422.03810	         1.22608e+58
          1422.84440	         1.00775e+58
          1423.65070	         1.22079e+58
          1424.45700	         1.22537e+58
          1425.26330	         9.64482e+57
          1426.06960	         9.04179e+57
          1426.87590	         1.14584e+58
          1427.68220	         1.08413e+58
          1428.48850	         1.03105e+58
          1429.29480	         1.01780e+58
          1430.10110	         1.05276e+58
          1430.90740	         9.58049e+57
          1431.71370	         9.53012e+57
          1432.52000	         9.90689e+57
          1433.32630	         8.00002e+57
          1434.13260	         7.44868e+57
          1434.93890	         8.69755e+57
          1435.74520	         9.24919e+57
          1436.55150	         8.64367e+57
          1437.35780	         8.72425e+57
          1438.16410	         9.67906e+57
          1438.97040	         1.01538e+58
          1439.77670	         9.57004e+57
          1440.58300	         1.08421e+58
          1441.38930	         1.03759e+58
          1442.19560	         1.02950e+58
          1443.00190	         9.68076e+57
          1443.80820	         1.02223e+58
          1444.61450	         1.02225e+58
          1445.42080	         1.00314e+58
          1446.22710	         1.16747e+58
          1447.03340	         1.01211e+58
          1447.83970	         1.00829e+58
          1448.64600	         1.05135e+58
          1449.45230	         9.99061e+57
          1450.25860	         1.02332e+58
          1451.06490	         8.95532e+57
          1451.87120	         6.96929e+57
          1452.67750	         6.32671e+57
          1453.48380	         8.79322e+57
          1454.29010	         7.42537e+57
          1455.09640	         6.92480e+57
          1455.90270	         8.98644e+57
          1456.70900	         8.54793e+57
          1457.51530	         1.12845e+58
          1458.32160	         1.34378e+58
          1459.12790	         1.20163e+58
          1459.93420	         1.17995e+58
          1460.74050	         8.78781e+57
          1461.54680	         8.14902e+57
          1462.35310	         8.12233e+57
          1463.15940	         9.52332e+57
          1463.96570	         1.15060e+58
          1464.77200	         1.20661e+58
          1465.57830	         1.06527e+58
          1466.38460	         1.09490e+58
          1467.19090	         1.02719e+58
          1467.99720	         8.76209e+57
          1468.80350	         1.00572e+58
          1469.60980	         1.13004e+58
          1470.41610	         1.16613e+58
          1471.22240	         1.01446e+58
          1472.02870	         9.24748e+57
          1472.83500	         8.81434e+57
          1473.64130	         8.91742e+57
          1474.44760	         1.01049e+58
          1475.25390	         9.51848e+57
          1476.06020	         8.55107e+57
          1476.86650	         8.84498e+57
          1477.67280	         7.78416e+57
          1478.47910	         7.52477e+57
          1479.28540	         8.23366e+57
          1480.09170	         8.92096e+57
          1480.89800	         9.71375e+57
          1481.70430	         1.05719e+58
          1482.51060	         1.03042e+58
          1483.31690	         8.34356e+57
          1484.12320	         8.67070e+57
          1484.92950	         8.01969e+57
          1485.73580	         8.12370e+57
          1486.54210	         8.59410e+57
          1487.34840	         9.23724e+57
          1488.15470	         8.34633e+57
          1488.96100	         8.72976e+57
          1489.76730	         9.34983e+57
          1490.57360	         9.18399e+57
          1491.37990	         7.00756e+57
          1492.18620	         7.74534e+57
          1492.99250	         8.63407e+57
          1493.79880	         7.80353e+57
          1494.60510	         8.49676e+57
          1495.41140	         7.97385e+57
          1496.21770	         8.65187e+57
          1497.02400	         1.09145e+58
          1497.83030	         1.01212e+58
          1498.63660	         8.37178e+57
          1499.44290	         7.19036e+57
          1500.24920	         7.80605e+57
          1501.05550	         7.76365e+57
          1501.86180	         8.18450e+57
          1502.66810	         9.67430e+57
          1503.47440	         1.01571e+58
          1504.28070	         1.01343e+58
          1505.08700	         1.06103e+58
          1505.89330	         1.00045e+58
          1506.69960	         8.69178e+57
          1507.50590	         8.54072e+57
          1508.31220	         8.69724e+57
          1509.11850	         8.03442e+57
          1509.92480	         8.49729e+57
          1510.73110	         8.66048e+57
          1511.53740	         7.34413e+57
          1512.34370	         7.00161e+57
          1513.15000	         8.35650e+57
          1513.95630	         9.92762e+57
          1514.76260	         9.47773e+57
          1515.56890	         8.41364e+57
          1516.37520	         8.83691e+57
          1517.18150	         8.82866e+57
          1517.98780	         8.34637e+57
          1518.79410	         7.15275e+57
          1519.60040	         7.56753e+57
          1520.40670	         8.41688e+57
          1521.21300	         9.01576e+57
          1522.01930	         8.85769e+57
          1522.82560	         9.07594e+57
          1523.63190	         1.06709e+58
          1524.43820	         8.92881e+57
          1525.24450	         6.57052e+57
          1526.05080	         6.34859e+57
          1526.85710	         6.64086e+57
          1527.66340	         6.45787e+57
          1528.46970	         6.90572e+57
          1529.27600	         7.53175e+57
          1530.08230	         7.65498e+57
          1530.88860	         8.13359e+57
          1531.69490	         8.80023e+57
          1532.50120	         9.45962e+57
          1533.30750	         1.00242e+58
          1534.11380	         1.05472e+58
          1534.92010	         9.42161e+57
          1535.72640	         9.12831e+57
          1536.53270	         9.38468e+57
          1537.33900	         8.04959e+57
          1538.14530	         9.47141e+57
          1538.95160	         1.01119e+58
          1539.75790	         9.23977e+57
          1540.56420	         8.44600e+57
          1541.37050	         8.20196e+57
          1542.17680	         8.97967e+57
          1542.98310	         9.04113e+57
          1543.78940	         8.64433e+57
          1544.59570	         7.54288e+57
          1545.40200	         8.24673e+57
          1546.20830	         1.02928e+58
          1547.01460	         1.06714e+58
          1547.82090	         1.07527e+58
          1548.62720	         1.14946e+58
          1549.43350	         1.13078e+58
          1550.23980	         1.01080e+58
          1551.04610	         1.22690e+58
          1551.85240	         1.31816e+58
          1552.65870	         1.30689e+58
          1553.46500	         1.19735e+58
          1554.27130	         1.07161e+58
          1555.07760	         1.06344e+58
          1555.88390	         9.60576e+57
          1556.69020	         9.31011e+57
          1557.49650	         9.63376e+57
          1558.30280	         9.48001e+57
          1559.10910	         9.46003e+57
          1559.91540	         9.42100e+57
          1560.72170	         8.48013e+57
          1561.52800	         8.06246e+57
          1562.33430	         8.69057e+57
          1563.14060	         8.62368e+57
          1563.94690	         8.80380e+57
          1564.75320	         8.82439e+57
          1565.55950	         7.52190e+57
          1566.36580	         7.21082e+57
          1567.17210	         9.04610e+57
          1567.97840	         8.84224e+57
          1568.78470	         8.20322e+57
          1569.59100	         9.58827e+57
          1570.39730	         9.32707e+57
          1571.20360	         7.99862e+57
          1572.00990	         8.01792e+57
          1572.81620	         9.51203e+57
          1573.62250	         1.10404e+58
          1574.42880	         9.45486e+57
          1575.23510	         8.11595e+57
          1576.04140	         9.11887e+57
          1576.84770	         1.01226e+58
          1577.65400	         1.01165e+58
          1578.46030	         1.03660e+58
          1579.26660	         1.07742e+58
          1580.07290	         1.00124e+58
          1580.87920	         8.89036e+57
          1581.68550	         8.00439e+57
          1582.49180	         8.85610e+57
          1583.29810	         9.30393e+57
          1584.10440	         8.83138e+57
          1584.91070	         8.83487e+57
          1585.71700	         9.24240e+57
          1586.52330	         9.50504e+57
          1587.32960	         9.69984e+57
          1588.13590	         9.25629e+57
          1588.94220	         8.01728e+57
          1589.74850	         9.35066e+57
          1590.55480	         9.82657e+57
          1591.36110	         9.05684e+57
          1592.16740	         8.98466e+57
          1592.97370	         8.37785e+57
          1593.78000	         8.31094e+57
          1594.58630	         9.57567e+57
          1595.39260	         9.70425e+57
          1596.19890	         1.00537e+58
          1597.00520	         9.86894e+57
          1597.81150	         8.31643e+57
          1598.61780	         7.51655e+57
          1599.42410	         7.05096e+57
          1600.23040	         6.91520e+57
          1601.03670	         8.05086e+57
          1601.84300	         7.46429e+57
          1602.64930	         8.44720e+57
          1603.45560	         9.22996e+57
          1604.26190	         8.01687e+57
          1605.06820	         8.26004e+57
          1605.87450	         7.35775e+57
          1606.68080	         7.32496e+57
          1607.48710	         6.86920e+57
          1608.29340	         6.30657e+57
          1609.09970	         7.72732e+57
          1609.90600	         7.78497e+57
          1610.71230	         6.30001e+57
          1611.51860	         7.91545e+57
          1612.32490	         7.73290e+57
          1613.13120	         7.56804e+57
          1613.93750	         8.29154e+57
          1614.74380	         8.64481e+57
          1615.55010	         8.61822e+57
          1616.35640	         9.35056e+57
          1617.16270	         1.02065e+58
          1617.96900	         1.06647e+58
          1618.77530	         9.36552e+57
          1619.58160	         9.10372e+57
          1620.38790	         9.15991e+57
          1621.19420	         9.47959e+57
          1622.00050	         8.77243e+57
          1622.80680	         9.42826e+57
          1623.61310	         1.02577e+58
          1624.41940	         1.03336e+58
          1625.22570	         1.00262e+58
          1626.03200	         8.89917e+57
          1626.83830	         7.51529e+57
          1627.64460	         7.74305e+57
          1628.45090	         7.96331e+57
          1629.25720	         1.02350e+58
          1630.06350	         9.97461e+57
          1630.86980	         5.87619e+57
          1631.67610	         7.90759e+57
          1632.48240	         9.36330e+57
          1633.28870	         7.95725e+57
          1634.09500	         8.75160e+57
          1634.90130	         1.15433e+58
          1635.70760	         1.02124e+58
          1636.51390	         8.15483e+57
          1637.32020	         8.07732e+57
          1638.12650	         9.62773e+57
          1638.93280	         1.01717e+58
          1639.73910	         1.09353e+58
          1640.54540	         1.09940e+58
          1641.35170	         8.87532e+57
          1642.15800	         1.00006e+58
          1642.96430	         1.01978e+58
          1643.77060	         9.01484e+57
          1644.57690	         8.43446e+57
          1645.38320	         8.67854e+57
          1646.18950	         7.24899e+57
          1646.99580	         9.14387e+57
          1647.80210	         7.81847e+57
          1648.60840	         6.69724e+57
          1649.41470	         8.58363e+57
          1650.22100	         7.67389e+57
          1651.02730	         6.58288e+57
          1651.83360	         6.54535e+57
          1652.63990	         6.47288e+57
          1653.44620	         7.65299e+57
          1654.25250	         7.07879e+57
          1655.05880	         7.09625e+57
          1655.86510	         8.13577e+57
          1656.67140	         8.32547e+57
          1657.47770	         8.44257e+57
          1658.28400	         9.65544e+57
          1659.09030	         9.88320e+57
          1659.89660	         9.30087e+57
          1660.70290	         9.46045e+57
          1661.50920	         9.54108e+57
          1662.31550	         8.55316e+57
          1663.12180	         8.88668e+57
          1663.92810	         1.02653e+58
          1664.73440	         1.21423e+58
          1665.54070	         1.25371e+58
          1666.34700	         1.29376e+58
          1667.15330	         1.15128e+58
          1667.95960	         8.85014e+57
          1668.76590	         7.86827e+57
          1669.57220	         7.87553e+57
          1670.37850	         7.98430e+57
          1671.18480	         8.59773e+57
          1671.99110	         8.55059e+57
          1672.79740	         7.23631e+57
          1673.60370	         6.72647e+57
          1674.41000	         7.69401e+57
          1675.21630	         8.01595e+57
          1676.02260	         7.08522e+57
          1676.82890	         7.35218e+57
          1677.63520	         7.75909e+57
          1678.44150	         7.81917e+57
          1679.24780	         8.79036e+57
          1680.05410	         8.82160e+57
          1680.86040	         8.10044e+57
          1681.66670	         8.54282e+57
          1682.47300	         9.54120e+57
          1683.27930	         9.17500e+57
          1684.08560	         9.24886e+57
          1684.89190	         8.54633e+57
          1685.69820	         5.43781e+57
          1686.50450	         4.67182e+57
          1687.31080	         6.83981e+57
          1688.11710	         8.49519e+57
          1688.92340	         7.61954e+57
          1689.72970	         7.66198e+57
          1690.53600	         7.01415e+57
          1691.34230	         6.96405e+57
          1692.14860	         8.39820e+57
          1692.95490	         8.51306e+57
          1693.76120	         7.02731e+57
          1694.56750	         6.64878e+57
          1695.37380	         7.17448e+57
          1696.18010	         8.73299e+57
          1696.98640	         9.28238e+57
          1697.79270	         8.78197e+57
          1698.59900	         9.25758e+57
          1699.40530	         8.82862e+57
          1700.21160	         8.91148e+57
          1701.01790	         8.66346e+57
          1701.82420	         7.53021e+57
          1702.63050	         8.05093e+57
          1703.43680	         8.93477e+57
          1704.24310	         9.39263e+57
          1705.04940	         8.74394e+57
          1705.85570	         7.91906e+57
          1706.66200	         9.73421e+57
          1707.46830	         9.19230e+57
          1708.27460	         8.71566e+57
          1709.08090	         7.24630e+57
          1709.88720	         6.64824e+57
          1710.69350	         6.75482e+57
          1711.49980	         7.47324e+57
          1712.30610	         7.96491e+57
          1713.11240	         8.57647e+57
          1713.91870	         8.53007e+57
          1714.72500	         8.28756e+57
          1715.53130	         8.27357e+57
          1716.33760	         7.69368e+57
          1717.14390	         7.93674e+57
          1717.95020	         7.85695e+57
          1718.75650	         8.83955e+57
          1719.56280	         8.75103e+57
          1720.36910	         6.82369e+57
          1721.17540	         7.28658e+57
          1721.98170	         7.62766e+57
          1722.78800	         7.16600e+57
          1723.59430	         7.68930e+57
          1724.40060	         8.76462e+57
          1725.20690	         9.08743e+57
          1726.01320	         8.65438e+57
          1726.81950	         8.72354e+57
          1727.62580	         8.37249e+57
          1728.43210	         7.23110e+57
          1729.23840	         8.26289e+57
          1730.04470	         9.52790e+57
          1730.85100	         8.98880e+57
          1731.65730	         8.26748e+57
          1732.46360	         8.50669e+57
          1733.26990	         8.62662e+57
          1734.07620	         8.07258e+57
          1734.88250	         8.67767e+57
          1735.68880	         9.80034e+57
          1736.49510	         8.43539e+57
          1737.30140	         7.84824e+57
          1738.10770	         7.97732e+57
          1738.91400	         8.21229e+57
          1739.72030	         7.43167e+57
          1740.52660	         6.09613e+57
          1741.33290	         4.82246e+57
          1742.13920	         5.58399e+57
          1742.94550	         7.12076e+57
          1743.75180	         8.06807e+57
          1744.55810	         8.13953e+57
          1745.36440	         7.01462e+57
          1746.17070	         5.94863e+57
          1746.97700	         5.78993e+57
          1747.78330	         6.86447e+57
          1748.58960	         6.92829e+57
          1749.39590	         7.33625e+57
          1750.20220	         7.39664e+57
          1751.00850	         6.68174e+57
          1751.81480	         5.18421e+57
          1752.62110	         6.72704e+57
          1753.42740	         7.28237e+57
          1754.23370	         6.89875e+57
          1755.04000	         7.44151e+57
          1755.84630	         7.45056e+57
          1756.65260	         8.67808e+57
          1757.45890	         9.22427e+57
          1758.26520	         8.22333e+57
          1759.07150	         9.45537e+57
          1759.87780	         9.12072e+57
          1760.68410	         7.24693e+57
          1761.49040	         8.06098e+57
          1762.29670	         8.04048e+57
          1763.10300	         7.21880e+57
          1763.90930	         7.14022e+57
          1764.71560	         8.14856e+57
          1765.52190	         8.03694e+57
          1766.32820	         8.64793e+57
          1767.13450	         8.70896e+57
          1767.94080	         7.19604e+57
          1768.74710	         7.34916e+57
          1769.55340	         7.37575e+57
          1770.35970	         6.67695e+57
          1771.16600	         7.70366e+57
          1771.97230	         7.99668e+57
          1772.77860	         8.58160e+57
          1773.58490	         7.57670e+57
          1774.39120	         6.37280e+57
          1775.19750	         6.57330e+57
          1776.00380	         7.26674e+57
          1776.81010	         7.33434e+57
          1777.61640	         7.15484e+57
          1778.42270	         7.49728e+57
          1779.22900	         7.38966e+57
          1780.03530	         5.89304e+57
          1780.84160	         7.05595e+57
          1781.64790	         8.70609e+57
          1782.45420	         7.95614e+57
          1783.26050	         7.16780e+57
          1784.06680	         6.77442e+57
          1784.87310	         6.83582e+57
          1785.67940	         6.77368e+57
          1786.48570	         7.12490e+57
          1787.29200	         6.66004e+57
          1788.09830	         5.79400e+57
          1788.90460	         5.30002e+57
          1789.71090	         5.06645e+57
          1790.51720	         5.86961e+57
          1791.32350	         7.84798e+57
          1792.12980	         8.73355e+57
          1792.93610	         8.11178e+57
          1793.74240	         7.39410e+57
          1794.54870	         7.75048e+57
          1795.35500	         8.53417e+57
          1796.16130	         8.07582e+57
          1796.96760	         7.34063e+57
          1797.77390	         8.59769e+57
          1798.58020	         8.08889e+57
          1799.38650	         6.24179e+57
          1800.19280	         6.51757e+57
          1800.99910	         7.89716e+57
          1801.80540	         7.15978e+57
          1802.61170	         8.56172e+57
          1803.41800	         9.00053e+57
          1804.22430	         7.82180e+57
          1805.03060	         8.20707e+57
          1805.83690	         8.08735e+57
          1806.64320	         7.97912e+57
          1807.44950	         8.09449e+57
          1808.25580	         7.23644e+57
          1809.06210	         7.77265e+57
          1809.86840	         7.40571e+57
          1810.67470	         7.47541e+57
          1811.48100	         9.06372e+57
          1812.28730	         8.39385e+57
          1813.09360	         6.89112e+57
          1813.89990	         7.99712e+57
          1814.70620	         7.64177e+57
          1815.51250	         8.10278e+57
          1816.31880	         8.36375e+57
          1817.12510	         7.50877e+57
          1817.93140	         7.31016e+57
          1818.73770	         7.47384e+57
          1819.54400	         9.47715e+57
          1820.35030	         8.89662e+57
          1821.15660	         6.65316e+57
          1821.96290	         7.49289e+57
          1822.76920	         8.35680e+57
          1823.57550	         8.01904e+57
          1824.38180	         7.51380e+57
          1825.18810	         7.55368e+57
          1825.99440	         8.36656e+57
          1826.80070	         8.17891e+57
          1827.60700	         7.19114e+57
          1828.41330	         7.14132e+57
          1829.21960	         7.14804e+57
          1830.02590	         7.03739e+57
          1830.83220	         8.28372e+57
          1831.63850	         7.50047e+57
          1832.44480	         7.18743e+57
          1833.25110	         8.40608e+57
          1834.05740	         8.52317e+57
          1834.86370	         6.58329e+57
          1835.67000	         5.77385e+57
          1836.47630	         7.86400e+57
          1837.28260	         9.31591e+57
          1838.08890	         9.95679e+57
          1838.89520	         8.95742e+57
          1839.70150	         8.63980e+57
          1840.50780	         7.56000e+57
          1841.31410	         7.52383e+57
          1842.12040	         7.46654e+57
          1842.92670	         6.68022e+57
          1843.73300	         6.93467e+57
          1844.53930	         6.85398e+57
          1845.34560	         8.06949e+57
          1846.15190	         7.63057e+57
          1846.95820	         7.73170e+57
          1847.76450	         7.75648e+57
          1848.57080	         5.59568e+57
          1849.37710	         5.70563e+57
          1850.18340	         7.31763e+57
          1850.98970	         8.19227e+57
          1851.79600	         9.38905e+57
          1852.60230	         8.14790e+57
          1853.40860	         7.10789e+57
          1854.21490	         7.98402e+57
          1855.02120	         7.44769e+57
          1855.82750	         4.15499e+57
          1856.63380	         5.26752e+57
          1857.44010	         7.57459e+57
          1858.24640	         6.54114e+57
          1859.05270	         6.51534e+57
          1859.85900	         4.83536e+57
          1860.66530	         5.15140e+57
          1861.47160	         6.10607e+57
          1862.27790	         7.20432e+57
          1863.08420	         8.16559e+57
          1863.89050	         8.05221e+57
          1864.69680	         7.36085e+57
          1865.50310	         7.51491e+57
          1866.30940	         6.56080e+57
          1867.11570	         7.29198e+57
          1867.92200	         8.11722e+57
          1868.72830	         8.24623e+57
          1869.53460	         7.75344e+57
          1870.34090	         7.82089e+57
          1871.14720	         7.95980e+57
          1871.95350	         8.03647e+57
          1872.75980	         7.65470e+57
          1873.56610	         7.08535e+57
          1874.37240	         6.07273e+57
          1875.17870	         6.74928e+57
          1875.98500	         7.94965e+57
          1876.79130	         8.49401e+57
          1877.59760	         8.07983e+57
          1878.40390	         7.02202e+57
          1879.21020	         6.59786e+57
          1880.01650	         6.84322e+57
          1880.82280	         8.29581e+57
          1881.62910	         9.31165e+57
          1882.43540	         8.70277e+57
          1883.24170	         8.31049e+57
          1884.04800	         7.62703e+57
          1884.85430	         7.65465e+57
          1885.66060	         8.97143e+57
          1886.46690	         8.46521e+57
          1887.27320	         7.73585e+57
          1888.07950	         6.61417e+57
          1888.88580	         7.36533e+57
          1889.69210	         8.89797e+57
          1890.49840	         8.13408e+57
          1891.30470	         8.59303e+57
          1892.11100	         8.33529e+57
          1892.91730	         8.26331e+57
          1893.72360	         7.31721e+57
          1894.52990	         8.21125e+57
          1895.33620	         8.80053e+57
          1896.14250	         7.35183e+57
          1896.94880	         6.94290e+57
          1897.75510	         4.62702e+57
          1898.56140	         5.53166e+57
          1899.36770	         8.89055e+57
          1900.17400	         7.88322e+57
          1900.98030	         6.25215e+57
          1901.78660	         6.30162e+57
          1902.59290	         7.60524e+57
          1903.39920	         8.38555e+57
          1904.20550	         9.25759e+57
          1905.01180	         8.62741e+57
          1905.81810	         9.89858e+57
          1906.62440	         1.30742e+58
          1907.43070	         1.52023e+58
          1908.23700	         1.67703e+58
          1909.04330	         1.34429e+58
          1909.84960	         1.13508e+58
          1910.65590	         1.08694e+58
          1911.46220	         9.85852e+57
          1912.26850	         7.55890e+57
          1913.07480	         6.24684e+57
          1913.88110	         5.76957e+57
          1914.68740	         5.64737e+57
          1915.49370	         5.95768e+57
          1916.30000	         7.05590e+57
          1917.10630	         8.20551e+57
          1917.91260	         7.25475e+57
          1918.71890	         6.81863e+57
          1919.52520	         6.09467e+57
          1920.33150	         5.70811e+57
          1921.13780	         6.41032e+57
          1921.94410	         8.68612e+57
          1922.75040	         8.33854e+57
          1923.55670	         8.08275e+57
          1924.36300	         8.28889e+57
          1925.16930	         7.25149e+57
          1925.97560	         5.83518e+57
          1926.78190	         3.81887e+57
          1927.58820	         5.88185e+57
          1928.39450	         6.10170e+57
          1929.20080	         4.86392e+57
          1930.00710	         6.74057e+57
          1930.81340	         8.06064e+57
          1931.61970	         6.80093e+57
          1932.42600	         5.36535e+57
          1933.23230	         7.21220e+57
          1934.03860	         6.76516e+57
          1934.84490	         6.20319e+57
          1935.65120	         8.02905e+57
          1936.45750	         8.53916e+57
          1937.26380	         7.17826e+57
          1938.07010	         7.51407e+57
          1938.87640	         7.00435e+57
          1939.68270	         7.63176e+57
          1940.48900	         8.49957e+57
          1941.29530	         8.23647e+57
          1942.10160	         8.46051e+57
          1942.90790	         7.69103e+57
          1943.71420	         6.71392e+57
          1944.52050	         6.44251e+57
          1945.32680	         6.76027e+57
          1946.13310	         7.63766e+57
          1946.93940	         8.53366e+57
          1947.74570	         7.32514e+57
          1948.55200	         5.82984e+57
          1949.35830	         7.24891e+57
          1950.16460	         6.03021e+57
          1950.97090	         7.15660e+57
          1951.77720	         7.46549e+57
          1952.58350	         7.54243e+57
          1953.38980	         7.03583e+57
          1954.19610	         4.54022e+57
          1955.00240	         5.28198e+57
          1955.80870	         5.72384e+57
          1956.61500	         5.85953e+57
          1957.42130	         5.60940e+57
          1958.22760	         6.46503e+57
          1959.03390	         8.01060e+57
          1959.84020	         7.28844e+57
          1960.64650	         7.24470e+57
          1961.45280	         6.27636e+57
          1962.25910	         6.33112e+57
          1963.06540	         7.46101e+57
          1963.87170	         6.92394e+57
          1964.67800	         7.34727e+57
          1965.48430	         7.97689e+57
          1966.29060	         7.02875e+57
          1967.09690	         7.98683e+57
          1967.90320	         7.23149e+57
          1968.70950	         7.74304e+57
          1969.51580	         5.97840e+57
          1970.32210	         6.62149e+57
          1971.12840	         6.61565e+57
          1971.93470	         5.18764e+57
          1972.74100	         4.76084e+57
          1973.54730	         5.69685e+57
          1974.35360	         7.28723e+57
          1975.15990	         8.19147e+57
          1975.96620	         8.08033e+57
          1976.77250	         8.06915e+57
          1977.57880	         7.41132e+57
          1978.38510	         6.10119e+57
          1979.19140	         6.47664e+57
          1979.99770	         7.99801e+57
          1980.80400	         7.77022e+57
          1981.61030	         7.04292e+57
          1982.41660	         6.37735e+57
          1983.22290	         5.80347e+57
          1984.02920	         5.41834e+57
          1984.83550	         5.71870e+57
          1985.64180	         7.29594e+57
          1986.44810	         6.77526e+57
          1987.25440	         5.11842e+57
          1988.06070	         5.75835e+57
          1988.86700	         6.46214e+57
          1989.67330	         6.70950e+57
          1990.47960	         6.75485e+57
          1991.28590	         6.38947e+57
          1992.09220	         6.75431e+57
          1992.89850	         6.58234e+57
          1993.70480	         5.92959e+57
          1994.51110	         5.01173e+57
          1995.31740	         4.21479e+57
          1996.12370	         4.71935e+57
          1996.93000	         5.88840e+57
          1997.73630	         7.19457e+57
          1998.54260	         8.52355e+57
          1999.34890	         6.97459e+57
          2000.15520	         6.41522e+57
          2000.96150	         6.81783e+57
          2001.76780	         5.76971e+57
          2002.57410	         5.46875e+57
          2003.38040	         6.53931e+57
          2004.18670	         8.14289e+57
          2004.99300	         6.62521e+57
          2005.79930	         7.19222e+57
          2006.60560	         7.10526e+57
          2007.41190	         7.47316e+57
          2008.21820	         7.00951e+57
          2009.02450	         7.32508e+57
          2009.83080	         7.08632e+57
          2010.63710	         6.66805e+57
          2011.44340	         7.12805e+57
          2012.24970	         7.60761e+57
          2013.05600	         6.42857e+57
          2013.86230	         6.04326e+57
          2014.66860	         5.89458e+57
          2015.47490	         6.80393e+57
          2016.28120	         6.71760e+57
          2017.08750	         6.83650e+57
          2017.89380	         7.30628e+57
          2018.70010	         5.82562e+57
          2019.50640	         6.03946e+57
          2020.31270	         6.78836e+57
          2021.11900	         7.03558e+57
          2021.92530	         6.86936e+57
          2022.73160	         7.52206e+57
          2023.53790	         7.18668e+57
          2024.34420	         6.98505e+57
          2025.15050	         6.07350e+57
          2025.95680	         5.67453e+57
          2026.76310	         6.14661e+57
          2027.56940	         5.93092e+57
          2028.37570	         6.37412e+57
          2029.18200	         5.24437e+57
          2029.98830	         5.54437e+57
          2030.79460	         6.35887e+57
          2031.60090	         6.90052e+57
          2032.40720	         5.72002e+57
          2033.21350	         6.08309e+57
          2034.01980	         6.03098e+57
          2034.82610	         4.60253e+57
          2035.63240	         4.43911e+57
          2036.43870	         6.09597e+57
          2037.24500	         6.88885e+57
          2038.05130	         7.72964e+57
          2038.85760	         6.71938e+57
          2039.66390	         7.47268e+57
          2040.47020	         5.72953e+57
          2041.27650	         7.21944e+57
          2042.08280	         5.48271e+57
          2042.88910	         6.28793e+57
          2043.69540	         6.38893e+57
          2044.50170	         6.44359e+57
          2045.30800	         5.67122e+57
          2046.11430	         3.94725e+57
          2046.92060	         5.22867e+57
          2047.72690	         5.51009e+57
          2048.53320	         4.60595e+57
          2049.33950	         5.18341e+57
          2050.14580	         5.86457e+57
          2050.95210	         7.05867e+57
          2051.75840	         8.00111e+57
          2052.56470	         5.46264e+57
          2053.37100	         3.84372e+57
          2054.17730	         4.15866e+57
          2054.98360	         4.81053e+57
          2055.78990	         4.00606e+57
          2056.59620	         1.97000e+57
          2057.40250	         3.77071e+57
          2058.20880	         7.48743e+57
          2059.01510	         6.99260e+57
          2059.82140	         6.82121e+57
          2060.62770	         1.12016e+58
          2061.43400	         1.71262e+58
          2062.24030	         1.47639e+58
          2063.04660	         3.88159e+57
          2063.85290	         3.68114e+57
          2064.65920	         2.74152e+56
          2065.46550	        -9.70774e+57
          2066.27180	        -9.22541e+57
          2067.07810	         4.47426e+57
          2067.88440	         5.72528e+57
          2068.69070	         7.23295e+57
          2069.49700	         5.06924e+57
          2070.30330	         3.36953e+57
          2071.10960	         5.09863e+57
          2071.91590	         5.85741e+57
          2072.72220	         4.31329e+57
          2073.52850	         5.50872e+57
          2074.33480	         4.77909e+57
          2075.14110	         5.04736e+57
          2075.94740	         5.58171e+57
          2076.75370	         5.14354e+57
          2077.56000	         3.56395e+57
          2078.36630	         4.37304e+57
          2079.17260	         4.47209e+57
          2079.97890	         4.71770e+57
          2080.78520	         6.60132e+57
          2081.59150	         5.43821e+57
          2082.39780	         3.61313e+57
          2083.20410	         3.47018e+57
          2084.01040	         2.61625e+57
          2084.81670	         3.15957e+57
          2085.62300	         5.09442e+57
          2086.42930	         3.33149e+57
          2087.23560	         3.37660e+57
          2088.04190	         4.24385e+57
          2088.84820	         4.31428e+57
          2089.65450	         1.81472e+57
          2090.46080	         1.73224e+57
          2091.26710	         3.11892e+57
          2092.07340	         3.73247e+57
          2092.87970	         2.85391e+57
          2093.68600	        -1.70883e+57
          2094.49230	         1.54530e+57
          2095.29860	         4.68227e+57
          2096.10490	         2.63934e+57
          2096.91120	         1.31995e+57
          2097.71750	         8.47164e+56
          2098.52380	         2.36968e+57
          2099.33010	         3.22267e+57
          2100.13640	         3.16878e+57
          2100.94270	         1.74484e+57
          2101.74900	         3.02141e+57
          2102.55530	         3.76580e+57
          2103.36160	         1.63981e+57
          2104.16790	         2.32305e+57
          2104.97420	         2.40276e+57
          2105.78050	         2.96746e+57
          2106.58680	         1.63626e+57
          2107.39310	        -2.59633e+56
          2108.19940	         7.27276e+56
          2109.00570	         1.20995e+57
          2109.81200	         7.06759e+56
          2110.61830	         4.78439e+56
          2111.42460	         1.74603e+56
          2112.23090	        -1.79345e+57
          2113.03720	        -2.87743e+56
          2113.84350	         3.00597e+56
          2114.64980	         4.04550e+57
          2115.45610	        -9.16054e+56
          2116.26240	        -9.06605e+56
          2117.06870	         5.30293e+56
          2117.87500	         9.48698e+56
          2118.68130	        -1.74096e+56
          2119.48760	         1.85592e+56
          2120.29390	        -4.18774e+57
          2121.10020	        -4.56550e+57
          2121.90650	        -8.81564e+56
          2122.71280	         1.31133e+57
          2123.51910	         1.04237e+57
          2124.32540	         2.13849e+57
          2125.13170	         4.64365e+57
          2125.93800	         7.81333e+57
          2126.74430	         2.27377e+57
          2127.55060	        -5.89082e+57
          2128.35690	        -7.41990e+57
          2129.16320	        -3.25585e+57
          2129.96950	        -5.51272e+57
          2130.77580	        -1.25495e+57
          2131.58210	         1.08824e+58
          2132.38840	         3.10063e+57
          2133.19470	        -1.52461e+57
          2134.00100	        -2.10219e+57
          2134.80730	        -4.30742e+57
          2135.61360	        -1.41584e+57
          2136.41990	         1.43951e+57
          2137.22620	         3.93488e+57
          2138.03250	        -3.01214e+57
          2138.83880	        -1.54581e+57
          2139.64510	        -2.83853e+57
          2140.45140	        -3.89228e+57
          2141.25770	        -1.46628e+58
          2142.06400	        -8.87240e+57
          2142.87030	         2.16917e+57
          2143.67660	         9.34828e+57
          2144.48290	         3.98641e+57
          2145.28920	         7.62796e+57
          2146.09550	        -6.98201e+57
          2146.90180	        -6.38504e+57
          2147.70810	        -3.28481e+57
          2148.51440	        -5.62043e+57
          2149.32070	        -4.05602e+57
          2150.12700	        -2.57409e+57
          2150.93330	        -4.47861e+57
          2151.73960	         2.55089e+57
          2152.54590	         2.18662e+57
          2153.35220	        -1.06382e+57
          2154.15850	        -6.38450e+57
          2154.96480	        -3.63394e+57
          2155.77110	        -1.46553e+58
          2156.57740	        -1.34242e+58
          2157.38370	         1.53748e+57
          2158.19000	        -3.47331e+57
          2158.99630	        -2.53849e+57
          2159.80260	        -9.85710e+57
          2160.60890	        -5.47329e+57
          2161.41520	        -1.10676e+58
          2162.22150	         2.23986e+56
          2163.02780	        -1.12892e+57
          2163.83410	        -5.20885e+57
          2164.64040	        -9.25461e+57
          2165.44670	        -1.25776e+58
          2166.25300	        -1.64383e+58
          2167.05930	        -1.08186e+58
          2167.86560	        -8.15658e+57
          2168.67190	        -8.70813e+57
          2169.47820	        -6.11348e+56
          2170.28450	        -3.15276e+56
          2171.09080	        -9.08170e+56
          2171.89710	        -2.75272e+57
          2172.70340	        -9.71941e+56
          2173.50970	        -8.05975e+57
          2174.31600	        -7.02426e+57
          2175.12230	         8.63994e+56
          2175.92860	        -3.87971e+57
          2176.73490	        -4.18692e+57
          2177.54120	        -2.81110e+57
          2178.34750	         5.49644e+56
          2179.15380	                 nan
          2179.96010	                 nan
          2180.76640	                 nan
          2181.57270	                 nan
          2182.37900	                 nan
          2183.18530	                 nan
          2183.99160	                 nan
          2184.79790	                 nan
          2185.60420	                 nan
          2186.41050	                 nan
          2187.21680	                 nan
          2188.02310	                 nan
          2188.82940	                 nan
          2189.63570	                 nan
          2190.44200	                 nan
          2191.24830	                 nan
          2192.05460	                 nan
          2192.86090	                 nan
          2193.66720	                 nan
          2194.47350	                 nan
          2195.27980	                 nan
          2196.08610	                 nan
          2196.89240	                 nan
          2197.69870	                 nan
          2198.50500	                 nan
          2199.31130	                 nan
          2200.11760	                 nan
          2200.92390	                 nan
          2201.73020	                 nan
          2202.53650	                 nan
          2203.34280	                 nan
          2204.14910	                 nan
          2204.95540	                 nan
          2205.76170	                 nan
          2206.56800	                 nan
          2207.37430	                 nan
          2208.18060	                 nan
          2208.98690	                 nan
          2209.79320	                 nan
          2210.59950	                 nan
          2211.40580	                 nan
          2212.21210	                 nan
          2213.01840	                 nan
          2213.82470	                 nan
          2214.63100	                 nan
          2215.43730	         0.00000e+00
