#sample_396_stacked_spectrum_rest_UV-bands_median_H-alpha_noDC.txt
#median Lum: 1.73142e+42
#Rest-frame wavelength (A) | Luminosity (erg/s/A)
#
          1110.00000	         0.00000e+00
          1110.80630	        -4.22125e+59
          1111.61260	        -1.75461e+59
          1112.41890	         2.81472e+59
          1113.22520	        -1.85726e+58
          1114.03150	        -1.75250e+59
          1114.83780	        -5.38254e+58
          1115.64410	         4.26425e+58
          1116.45040	        -3.57513e+58
          1117.25670	        -5.59537e+58
          1118.06300	         1.79389e+59
          1118.86930	        -4.09677e+58
          1119.67560	         1.49806e+59
          1120.48190	         3.96745e+58
          1121.28820	        -8.16662e+58
          1122.09450	         5.19425e+58
          1122.90080	         3.65337e+58
          1123.70710	        -3.43224e+58
          1124.51340	         2.31839e+58
          1125.31970	         4.09684e+57
          1126.12600	        -1.73742e+58
          1126.93230	        -4.24495e+58
          1127.73860	        -5.90689e+58
          1128.54490	        -1.29597e+58
          1129.35120	         1.21833e+58
          1130.15750	        -2.69947e+58
          1130.96380	         2.04605e+57
          1131.77010	         5.17736e+58
          1132.57640	         6.50145e+58
          1133.38270	         4.71089e+58
          1134.18900	         3.65474e+58
          1134.99530	        -7.84079e+57
          1135.80160	         3.57881e+58
          1136.60790	         2.25098e+57
          1137.41420	        -1.29217e+58
          1138.22050	         3.97296e+58
          1139.02680	         3.67309e+58
          1139.83310	         1.87601e+58
          1140.63940	         1.70304e+58
          1141.44570	        -1.43810e+58
          1142.25200	        -1.97151e+57
          1143.05830	         8.10196e+57
          1143.86460	         2.58673e+58
          1144.67090	         8.05996e+56
          1145.47720	         7.43732e+57
          1146.28350	         2.01910e+58
          1147.08980	         9.83605e+57
          1147.89610	         1.35049e+58
          1148.70240	         1.59414e+58
          1149.50870	         1.02216e+58
          1150.31500	         2.14293e+58
          1151.12130	         1.90621e+58
          1151.92760	         1.68833e+58
          1152.73390	        -1.53502e+57
          1153.54020	        -3.35986e+57
          1154.34650	         1.97785e+58
          1155.15280	         1.01424e+58
          1155.95910	         1.04399e+58
          1156.76540	         1.50609e+58
          1157.57170	         1.67397e+57
          1158.37800	         4.13122e+57
          1159.18430	        -2.30317e+57
          1159.99060	         6.74871e+57
          1160.79690	         4.20283e+57
          1161.60320	         7.57945e+57
          1162.40950	         1.25625e+58
          1163.21580	         1.64880e+58
          1164.02210	         8.14521e+57
          1164.82840	         9.96819e+57
          1165.63470	         1.94091e+58
          1166.44100	         2.89481e+58
          1167.24730	         1.33131e+58
          1168.05360	         3.00291e+57
          1168.85990	         3.86815e+57
          1169.66620	         2.87514e+57
          1170.47250	         5.15905e+57
          1171.27880	         1.11809e+58
          1172.08510	         1.82791e+58
          1172.89140	         1.31907e+58
          1173.69770	         8.26689e+57
          1174.50400	         1.02157e+58
          1175.31030	         2.11193e+58
          1176.11660	         2.28399e+58
          1176.92290	         1.74089e+58
          1177.72920	         1.07446e+58
          1178.53550	         1.09488e+58
          1179.34180	         8.30038e+57
          1180.14810	         6.62656e+57
          1180.95440	         1.40884e+58
          1181.76070	         1.25616e+58
          1182.56700	         1.06299e+58
          1183.37330	         4.05531e+57
          1184.17960	         8.68785e+57
          1184.98590	         1.16657e+58
          1185.79220	         7.59099e+57
          1186.59850	         1.11541e+58
          1187.40480	         1.66622e+58
          1188.21110	         1.60700e+58
          1189.01740	         1.02487e+58
          1189.82370	         1.40746e+58
          1190.63000	         1.33217e+58
          1191.43630	         1.26201e+58
          1192.24260	         1.25446e+58
          1193.04890	         1.49727e+58
          1193.85520	         1.46559e+58
          1194.66150	         4.11787e+57
          1195.46780	         1.49431e+58
          1196.27410	         1.51535e+58
          1197.08040	         6.07493e+57
          1197.88670	         1.62527e+58
          1198.69300	         1.79086e+58
          1199.49930	         1.85703e+58
          1200.30560	         1.28210e+58
          1201.11190	         6.34346e+57
          1201.91820	         1.04868e+58
          1202.72450	         8.67713e+57
          1203.53080	         1.49672e+58
          1204.33710	         1.02061e+58
          1205.14340	         1.06439e+58
          1205.94970	         7.29930e+57
          1206.75600	         8.03556e+57
          1207.56230	         6.30550e+57
          1208.36860	         1.00684e+58
          1209.17490	         4.21905e+57
          1209.98120	         5.83874e+57
          1210.78750	         5.03574e+57
          1211.59380	         7.80969e+57
          1212.40010	         1.95965e+58
          1213.20640	         1.79389e+58
          1214.01270	         1.64205e+58
          1214.81900	         2.19322e+58
          1215.62530	         4.44328e+58
          1216.43160	         9.12107e+58
          1217.23790	         1.48837e+59
          1218.04420	         1.19476e+59
          1218.85050	         9.02470e+58
          1219.65680	         5.66352e+58
          1220.46310	         3.42232e+58
          1221.26940	         2.51625e+58
          1222.07570	         1.42711e+58
          1222.88200	         1.52341e+58
          1223.68830	         1.20112e+58
          1224.49460	         8.48235e+57
          1225.30090	         5.15861e+57
          1226.10720	         6.73418e+57
          1226.91350	         7.46043e+57
          1227.71980	         9.46484e+57
          1228.52610	         1.23024e+58
          1229.33240	         1.01286e+58
          1230.13870	         7.63712e+57
          1230.94500	         7.00970e+57
          1231.75130	         3.34384e+57
          1232.55760	         8.82222e+57
          1233.36390	         1.03246e+58
          1234.17020	         8.49652e+57
          1234.97650	         7.99764e+57
          1235.78280	         9.75830e+57
          1236.58910	         8.40241e+57
          1237.39540	         8.56729e+57
          1238.20170	         1.22201e+58
          1239.00800	         1.51936e+58
          1239.81430	         1.57971e+58
          1240.62060	         1.29431e+58
          1241.42690	         1.07123e+58
          1242.23320	         1.16166e+58
          1243.03950	         9.59990e+57
          1243.84580	         1.02383e+58
          1244.65210	         1.17913e+58
          1245.45840	         8.49782e+57
          1246.26470	         9.07663e+57
          1247.07100	         9.91955e+57
          1247.87730	         6.93671e+57
          1248.68360	         7.92195e+57
          1249.48990	         1.12904e+58
          1250.29620	         1.12370e+58
          1251.10250	         7.28006e+57
          1251.90880	         6.13081e+57
          1252.71510	         5.46413e+57
          1253.52140	         6.17779e+57
          1254.32770	         9.24491e+57
          1255.13400	         1.41217e+58
          1255.94030	         1.21938e+58
          1256.74660	         1.19749e+58
          1257.55290	         1.30570e+58
          1258.35920	         8.45420e+57
          1259.16550	         4.60035e+57
          1259.97180	         5.35006e+57
          1260.77810	         8.02137e+57
          1261.58440	         9.39043e+57
          1262.39070	         6.84172e+57
          1263.19700	         6.48418e+57
          1264.00330	         9.10000e+57
          1264.80960	         9.33037e+57
          1265.61590	         1.15294e+58
          1266.42220	         1.32331e+58
          1267.22850	         1.12773e+58
          1268.03480	         1.29782e+58
          1268.84110	         1.55064e+58
          1269.64740	         1.51365e+58
          1270.45370	         1.53508e+58
          1271.26000	         1.23012e+58
          1272.06630	         1.22436e+58
          1272.87260	         1.40569e+58
          1273.67890	         1.44184e+58
          1274.48520	         1.29550e+58
          1275.29150	         1.30325e+58
          1276.09780	         1.24881e+58
          1276.90410	         1.41173e+58
          1277.71040	         1.28245e+58
          1278.51670	         1.26818e+58
          1279.32300	         1.42071e+58
          1280.12930	         1.21205e+58
          1280.93560	         1.06299e+58
          1281.74190	         1.21277e+58
          1282.54820	         1.31678e+58
          1283.35450	         8.97057e+57
          1284.16080	         8.64923e+57
          1284.96710	         1.13820e+58
          1285.77340	         1.16916e+58
          1286.57970	         9.58434e+57
          1287.38600	         1.45587e+58
          1288.19230	         1.95191e+58
          1288.99860	         1.77175e+58
          1289.80490	         1.39581e+58
          1290.61120	         1.31826e+58
          1291.41750	         1.47792e+58
          1292.22380	         1.25853e+58
          1293.03010	         1.24686e+58
          1293.83640	         1.34401e+58
          1294.64270	         1.08060e+58
          1295.44900	         6.30621e+57
          1296.25530	         6.66153e+57
          1297.06160	         9.16573e+57
          1297.86790	         1.05123e+58
          1298.67420	         1.09947e+58
          1299.48050	         1.06193e+58
          1300.28680	         1.01553e+58
          1301.09310	         8.98757e+57
          1301.89940	         5.50593e+57
          1302.70570	         6.06423e+57
          1303.51200	         6.72156e+57
          1304.31830	         9.82554e+57
          1305.12460	         1.14110e+58
          1305.93090	         9.96532e+57
          1306.73720	         1.12063e+58
          1307.54350	         1.34729e+58
          1308.34980	         1.65483e+58
          1309.15610	         1.82304e+58
          1309.96240	         1.68671e+58
          1310.76870	         1.49951e+58
          1311.57500	         1.20762e+58
          1312.38130	         1.23592e+58
          1313.18760	         1.36643e+58
          1313.99390	         1.49280e+58
          1314.80020	         1.60523e+58
          1315.60650	         1.74610e+58
          1316.41280	         1.18769e+58
          1317.21910	         9.63930e+57
          1318.02540	         1.23437e+58
          1318.83170	         1.45247e+58
          1319.63800	         1.23113e+58
          1320.44430	         1.14573e+58
          1321.25060	         1.31530e+58
          1322.05690	         1.35633e+58
          1322.86320	         1.37633e+58
          1323.66950	         1.20561e+58
          1324.47580	         8.55460e+57
          1325.28210	         8.85213e+57
          1326.08840	         1.05903e+58
          1326.89470	         1.19364e+58
          1327.70100	         1.12117e+58
          1328.50730	         1.02422e+58
          1329.31360	         1.04333e+58
          1330.11990	         1.07087e+58
          1330.92620	         9.83266e+57
          1331.73250	         1.17403e+58
          1332.53880	         1.10577e+58
          1333.34510	         1.01995e+58
          1334.15140	         9.65869e+57
          1334.95770	         8.56858e+57
          1335.76400	         9.87200e+57
          1336.57030	         1.08143e+58
          1337.37660	         1.06452e+58
          1338.18290	         1.15230e+58
          1338.98920	         1.15862e+58
          1339.79550	         1.07126e+58
          1340.60180	         1.24524e+58
          1341.40810	         1.53144e+58
          1342.21440	         1.33938e+58
          1343.02070	         1.19230e+58
          1343.82700	         1.36059e+58
          1344.63330	         1.26861e+58
          1345.43960	         1.24553e+58
          1346.24590	         1.27939e+58
          1347.05220	         1.16984e+58
          1347.85850	         9.73145e+57
          1348.66480	         1.24185e+58
          1349.47110	         1.34951e+58
          1350.27740	         1.20400e+58
          1351.08370	         1.20313e+58
          1351.89000	         1.22242e+58
          1352.69630	         1.22260e+58
          1353.50260	         1.28454e+58
          1354.30890	         1.30444e+58
          1355.11520	         1.37232e+58
          1355.92150	         1.14000e+58
          1356.72780	         1.00324e+58
          1357.53410	         1.06975e+58
          1358.34040	         1.05701e+58
          1359.14670	         1.00072e+58
          1359.95300	         1.16744e+58
          1360.75930	         1.23549e+58
          1361.56560	         1.10730e+58
          1362.37190	         1.18734e+58
          1363.17820	         1.14413e+58
          1363.98450	         1.14967e+58
          1364.79080	         1.24343e+58
          1365.59710	         1.28172e+58
          1366.40340	         1.38077e+58
          1367.20970	         1.30373e+58
          1368.01600	         1.12497e+58
          1368.82230	         1.00692e+58
          1369.62860	         1.09234e+58
          1370.43490	         1.02857e+58
          1371.24120	         9.53051e+57
          1372.04750	         9.73220e+57
          1372.85380	         1.19898e+58
          1373.66010	         1.23665e+58
          1374.46640	         1.02419e+58
          1375.27270	         1.01690e+58
          1376.07900	         9.40582e+57
          1376.88530	         8.78389e+57
          1377.69160	         9.21647e+57
          1378.49790	         7.70970e+57
          1379.30420	         7.62670e+57
          1380.11050	         1.01267e+58
          1380.91680	         9.36664e+57
          1381.72310	         8.80542e+57
          1382.52940	         9.44430e+57
          1383.33570	         8.74327e+57
          1384.14200	         1.04175e+58
          1384.94830	         1.15288e+58
          1385.75460	         9.87958e+57
          1386.56090	         1.07075e+58
          1387.36720	         1.11396e+58
          1388.17350	         1.25298e+58
          1388.97980	         1.16253e+58
          1389.78610	         9.09132e+57
          1390.59240	         8.70752e+57
          1391.39870	         8.72041e+57
          1392.20500	         9.64843e+57
          1393.01130	         8.15234e+57
          1393.81760	         7.08344e+57
          1394.62390	         7.96786e+57
          1395.43020	         6.64576e+57
          1396.23650	         5.67705e+57
          1397.04280	         6.29477e+57
          1397.84910	         8.70961e+57
          1398.65540	         8.70752e+57
          1399.46170	         9.55530e+57
          1400.26800	         9.02333e+57
          1401.07430	         7.55232e+57
          1401.88060	         8.79627e+57
          1402.68690	         9.69924e+57
          1403.49320	         1.00459e+58
          1404.29950	         9.68351e+57
          1405.10580	         1.04057e+58
          1405.91210	         1.18817e+58
          1406.71840	         1.14200e+58
          1407.52470	         1.13404e+58
          1408.33100	         1.12182e+58
          1409.13730	         1.11738e+58
          1409.94360	         1.07716e+58
          1410.74990	         1.20883e+58
          1411.55620	         1.02257e+58
          1412.36250	         9.51277e+57
          1413.16880	         1.00807e+58
          1413.97510	         8.22673e+57
          1414.78140	         9.58110e+57
          1415.58770	         1.18929e+58
          1416.39400	         1.19409e+58
          1417.20030	         1.06414e+58
          1418.00660	         9.62812e+57
          1418.81290	         1.07199e+58
          1419.61920	         1.08575e+58
          1420.42550	         1.26982e+58
          1421.23180	         1.52136e+58
          1422.03810	         1.22922e+58
          1422.84440	         1.07480e+58
          1423.65070	         1.24291e+58
          1424.45700	         1.12928e+58
          1425.26330	         7.90420e+57
          1426.06960	         8.11369e+57
          1426.87590	         1.02809e+58
          1427.68220	         1.05640e+58
          1428.48850	         1.08844e+58
          1429.29480	         1.02248e+58
          1430.10110	         1.05721e+58
          1430.90740	         9.41507e+57
          1431.71370	         8.04109e+57
          1432.52000	         9.29705e+57
          1433.32630	         8.84158e+57
          1434.13260	         8.16060e+57
          1434.93890	         8.16536e+57
          1435.74520	         8.90367e+57
          1436.55150	         1.02003e+58
          1437.35780	         9.74295e+57
          1438.16410	         1.00215e+58
          1438.97040	         9.76413e+57
          1439.77670	         9.34799e+57
          1440.58300	         9.42680e+57
          1441.38930	         1.01289e+58
          1442.19560	         8.88447e+57
          1443.00190	         9.04107e+57
          1443.80820	         1.09989e+58
          1444.61450	         1.02541e+58
          1445.42080	         8.37372e+57
          1446.22710	         9.82220e+57
          1447.03340	         1.00087e+58
          1447.83970	         1.05369e+58
          1448.64600	         1.03081e+58
          1449.45230	         9.48224e+57
          1450.25860	         1.02273e+58
          1451.06490	         8.94063e+57
          1451.87120	         8.75996e+57
          1452.67750	         8.67788e+57
          1453.48380	         9.31579e+57
          1454.29010	         8.45956e+57
          1455.09640	         7.67199e+57
          1455.90270	         8.62714e+57
          1456.70900	         9.10300e+57
          1457.51530	         1.01930e+58
          1458.32160	         1.22843e+58
          1459.12790	         1.25844e+58
          1459.93420	         1.05865e+58
          1460.74050	         8.78793e+57
          1461.54680	         8.16504e+57
          1462.35310	         8.30783e+57
          1463.15940	         9.50475e+57
          1463.96570	         1.00571e+58
          1464.77200	         1.05819e+58
          1465.57830	         1.04341e+58
          1466.38460	         9.41039e+57
          1467.19090	         8.32859e+57
          1467.99720	         7.99540e+57
          1468.80350	         8.98730e+57
          1469.60980	         1.05386e+58
          1470.41610	         1.07187e+58
          1471.22240	         9.54803e+57
          1472.02870	         9.92345e+57
          1472.83500	         9.78371e+57
          1473.64130	         8.78269e+57
          1474.44760	         9.57286e+57
          1475.25390	         9.51539e+57
          1476.06020	         8.23027e+57
          1476.86650	         9.19206e+57
          1477.67280	         9.47466e+57
          1478.47910	         7.25102e+57
          1479.28540	         7.09173e+57
          1480.09170	         8.67370e+57
          1480.89800	         9.23307e+57
          1481.70430	         9.37179e+57
          1482.51060	         8.43481e+57
          1483.31690	         8.29129e+57
          1484.12320	         8.02698e+57
          1484.92950	         7.65153e+57
          1485.73580	         8.32062e+57
          1486.54210	         9.48456e+57
          1487.34840	         9.80066e+57
          1488.15470	         8.04576e+57
          1488.96100	         9.05385e+57
          1489.76730	         1.12955e+58
          1490.57360	         9.81810e+57
          1491.37990	         7.57083e+57
          1492.18620	         7.76595e+57
          1492.99250	         8.36793e+57
          1493.79880	         8.96687e+57
          1494.60510	         9.23274e+57
          1495.41140	         7.76070e+57
          1496.21770	         8.45673e+57
          1497.02400	         1.12649e+58
          1497.83030	         9.95210e+57
          1498.63660	         7.51323e+57
          1499.44290	         7.37122e+57
          1500.24920	         7.83337e+57
          1501.05550	         8.75048e+57
          1501.86180	         8.48078e+57
          1502.66810	         9.17894e+57
          1503.47440	         9.30335e+57
          1504.28070	         8.48558e+57
          1505.08700	         1.00870e+58
          1505.89330	         1.09276e+58
          1506.69960	         9.43890e+57
          1507.50590	         8.53880e+57
          1508.31220	         8.52094e+57
          1509.11850	         8.85862e+57
          1509.92480	         9.82233e+57
          1510.73110	         8.94276e+57
          1511.53740	         7.20502e+57
          1512.34370	         7.36767e+57
          1513.15000	         1.00620e+58
          1513.95630	         1.04502e+58
          1514.76260	         9.43598e+57
          1515.56890	         9.06675e+57
          1516.37520	         9.11860e+57
          1517.18150	         8.81528e+57
          1517.98780	         7.67343e+57
          1518.79410	         7.43035e+57
          1519.60040	         8.41951e+57
          1520.40670	         9.41949e+57
          1521.21300	         9.02080e+57
          1522.01930	         8.76267e+57
          1522.82560	         1.01640e+58
          1523.63190	         1.03102e+58
          1524.43820	         9.09613e+57
          1525.24450	         6.53757e+57
          1526.05080	         6.45442e+57
          1526.85710	         6.78847e+57
          1527.66340	         6.94293e+57
          1528.46970	         8.24620e+57
          1529.27600	         7.62713e+57
          1530.08230	         8.20339e+57
          1530.88860	         8.24566e+57
          1531.69490	         9.54869e+57
          1532.50120	         1.05410e+58
          1533.30750	         1.09322e+58
          1534.11380	         1.05642e+58
          1534.92010	         9.86103e+57
          1535.72640	         9.55204e+57
          1536.53270	         9.50976e+57
          1537.33900	         9.21468e+57
          1538.14530	         8.72158e+57
          1538.95160	         8.56614e+57
          1539.75790	         9.54949e+57
          1540.56420	         9.37386e+57
          1541.37050	         9.24601e+57
          1542.17680	         7.99563e+57
          1542.98310	         7.15829e+57
          1543.78940	         8.03747e+57
          1544.59570	         7.17330e+57
          1545.40200	         7.96325e+57
          1546.20830	         9.82388e+57
          1547.01460	         1.10620e+58
          1547.82090	         1.11164e+58
          1548.62720	         1.15513e+58
          1549.43350	         1.08395e+58
          1550.23980	         1.13946e+58
          1551.04610	         1.24867e+58
          1551.85240	         1.29079e+58
          1552.65870	         1.19461e+58
          1553.46500	         1.12877e+58
          1554.27130	         1.02756e+58
          1555.07760	         9.85656e+57
          1555.88390	         8.34350e+57
          1556.69020	         8.76305e+57
          1557.49650	         8.90600e+57
          1558.30280	         8.44807e+57
          1559.10910	         8.95450e+57
          1559.91540	         9.20980e+57
          1560.72170	         8.63687e+57
          1561.52800	         7.82149e+57
          1562.33430	         8.22573e+57
          1563.14060	         8.03289e+57
          1563.94690	         8.86884e+57
          1564.75320	         9.31401e+57
          1565.55950	         8.01021e+57
          1566.36580	         7.75165e+57
          1567.17210	         9.69479e+57
          1567.97840	         9.23184e+57
          1568.78470	         8.82066e+57
          1569.59100	         1.01852e+58
          1570.39730	         9.35783e+57
          1571.20360	         7.74049e+57
          1572.00990	         8.27735e+57
          1572.81620	         8.48366e+57
          1573.62250	         9.82599e+57
          1574.42880	         9.75063e+57
          1575.23510	         8.15173e+57
          1576.04140	         8.56509e+57
          1576.84770	         9.64740e+57
          1577.65400	         9.45587e+57
          1578.46030	         9.69753e+57
          1579.26660	         1.00837e+58
          1580.07290	         9.16320e+57
          1580.87920	         8.27999e+57
          1581.68550	         9.31916e+57
          1582.49180	         9.34329e+57
          1583.29810	         8.93710e+57
          1584.10440	         9.50605e+57
          1584.91070	         9.10108e+57
          1585.71700	         8.30733e+57
          1586.52330	         8.58412e+57
          1587.32960	         9.12331e+57
          1588.13590	         9.00539e+57
          1588.94220	         8.38023e+57
          1589.74850	         9.06066e+57
          1590.55480	         9.80696e+57
          1591.36110	         9.03734e+57
          1592.16740	         8.92791e+57
          1592.97370	         8.57570e+57
          1593.78000	         9.80190e+57
          1594.58630	         1.01713e+58
          1595.39260	         8.75624e+57
          1596.19890	         8.10804e+57
          1597.00520	         7.96507e+57
          1597.81150	         9.11236e+57
          1598.61780	         8.50614e+57
          1599.42410	         6.79841e+57
          1600.23040	         7.16028e+57
          1601.03670	         7.81240e+57
          1601.84300	         7.42717e+57
          1602.64930	         8.94575e+57
          1603.45560	         9.17569e+57
          1604.26190	         8.57888e+57
          1605.06820	         8.50306e+57
          1605.87450	         7.81405e+57
          1606.68080	         7.39182e+57
          1607.48710	         6.30755e+57
          1608.29340	         6.91708e+57
          1609.09970	         8.03449e+57
          1609.90600	         7.76926e+57
          1610.71230	         6.58359e+57
          1611.51860	         7.35456e+57
          1612.32490	         8.00825e+57
          1613.13120	         8.71898e+57
          1613.93750	         9.27235e+57
          1614.74380	         9.40203e+57
          1615.55010	         9.48813e+57
          1616.35640	         8.47186e+57
          1617.16270	         8.81304e+57
          1617.96900	         1.03684e+58
          1618.77530	         9.63321e+57
          1619.58160	         9.15807e+57
          1620.38790	         9.29815e+57
          1621.19420	         9.74737e+57
          1622.00050	         8.61614e+57
          1622.80680	         8.70590e+57
          1623.61310	         8.27842e+57
          1624.41940	         8.32364e+57
          1625.22570	         9.38257e+57
          1626.03200	         8.88155e+57
          1626.83830	         9.51156e+57
          1627.64460	         8.52149e+57
          1628.45090	         7.04151e+57
          1629.25720	         8.38490e+57
          1630.06350	         1.04463e+58
          1630.86980	         7.47968e+57
          1631.67610	         8.43489e+57
          1632.48240	         7.79081e+57
          1633.28870	         6.59447e+57
          1634.09500	         7.63112e+57
          1634.90130	         1.09239e+58
          1635.70760	         9.14751e+57
          1636.51390	         7.85014e+57
          1637.32020	         7.42951e+57
          1638.12650	         8.66199e+57
          1638.93280	         1.04038e+58
          1639.73910	         9.60375e+57
          1640.54540	         8.80191e+57
          1641.35170	         9.82043e+57
          1642.15800	         1.02886e+58
          1642.96430	         9.74182e+57
          1643.77060	         8.44318e+57
          1644.57690	         7.63689e+57
          1645.38320	         7.69804e+57
          1646.18950	         7.16854e+57
          1646.99580	         9.55132e+57
          1647.80210	         8.80843e+57
          1648.60840	         7.52553e+57
          1649.41470	         7.80548e+57
          1650.22100	         6.75623e+57
          1651.02730	         6.12655e+57
          1651.83360	         6.95250e+57
          1652.63990	         8.81207e+57
          1653.44620	         9.04661e+57
          1654.25250	         8.59105e+57
          1655.05880	         7.99068e+57
          1655.86510	         8.49262e+57
          1656.67140	         8.87900e+57
          1657.47770	         9.28369e+57
          1658.28400	         8.81366e+57
          1659.09030	         9.55699e+57
          1659.89660	         1.09016e+58
          1660.70290	         1.17441e+58
          1661.50920	         1.03097e+58
          1662.31550	         8.88743e+57
          1663.12180	         8.46986e+57
          1663.92810	         8.97904e+57
          1664.73440	         1.08162e+58
          1665.54070	         1.22618e+58
          1666.34700	         1.28154e+58
          1667.15330	         1.17413e+58
          1667.95960	         9.89546e+57
          1668.76590	         7.66460e+57
          1669.57220	         6.48123e+57
          1670.37850	         7.54942e+57
          1671.18480	         8.43401e+57
          1671.99110	         8.64504e+57
          1672.79740	         8.11112e+57
          1673.60370	         7.05131e+57
          1674.41000	         7.42295e+57
          1675.21630	         7.86869e+57
          1676.02260	         7.23596e+57
          1676.82890	         6.73489e+57
          1677.63520	         7.66000e+57
          1678.44150	         8.00288e+57
          1679.24780	         8.76845e+57
          1680.05410	         7.73085e+57
          1680.86040	         5.90361e+57
          1681.66670	         6.71311e+57
          1682.47300	         8.17527e+57
          1683.27930	         8.46478e+57
          1684.08560	         8.98513e+57
          1684.89190	         8.45320e+57
          1685.69820	         5.73535e+57
          1686.50450	         4.07739e+57
          1687.31080	         6.19567e+57
          1688.11710	         7.93276e+57
          1688.92340	         7.17062e+57
          1689.72970	         5.63173e+57
          1690.53600	         5.77450e+57
          1691.34230	         6.80778e+57
          1692.14860	         7.53837e+57
          1692.95490	         7.57281e+57
          1693.76120	         6.66353e+57
          1694.56750	         6.68366e+57
          1695.37380	         9.14985e+57
          1696.18010	         9.05595e+57
          1696.98640	         7.57197e+57
          1697.79270	         7.77214e+57
          1698.59900	         8.06014e+57
          1699.40530	         8.20108e+57
          1700.21160	         8.54848e+57
          1701.01790	         9.36126e+57
          1701.82420	         7.27488e+57
          1702.63050	         7.79073e+57
          1703.43680	         9.15459e+57
          1704.24310	         1.01961e+58
          1705.04940	         9.73160e+57
          1705.85570	         8.05954e+57
          1706.66200	         8.41520e+57
          1707.46830	         9.61157e+57
          1708.27460	         8.09790e+57
          1709.08090	         6.77920e+57
          1709.88720	         7.13347e+57
          1710.69350	         6.58772e+57
          1711.49980	         7.89028e+57
          1712.30610	         8.22655e+57
          1713.11240	         8.27343e+57
          1713.91870	         6.81989e+57
          1714.72500	         7.84722e+57
          1715.53130	         8.49842e+57
          1716.33760	         8.14888e+57
          1717.14390	         7.78044e+57
          1717.95020	         8.42614e+57
          1718.75650	         8.98322e+57
          1719.56280	         8.40214e+57
          1720.36910	         7.14796e+57
          1721.17540	         6.73781e+57
          1721.98170	         6.20780e+57
          1722.78800	         6.02176e+57
          1723.59430	         7.07681e+57
          1724.40060	         8.64369e+57
          1725.20690	         8.53701e+57
          1726.01320	         8.16086e+57
          1726.81950	         8.31064e+57
          1727.62580	         8.02707e+57
          1728.43210	         7.62368e+57
          1729.23840	         7.88039e+57
          1730.04470	         8.38584e+57
          1730.85100	         8.20498e+57
          1731.65730	         8.79842e+57
          1732.46360	         8.67390e+57
          1733.26990	         7.77737e+57
          1734.07620	         8.27415e+57
          1734.88250	         8.46243e+57
          1735.68880	         8.64194e+57
          1736.49510	         9.06442e+57
          1737.30140	         8.10606e+57
          1738.10770	         7.13955e+57
          1738.91400	         7.71702e+57
          1739.72030	         8.49510e+57
          1740.52660	         7.05689e+57
          1741.33290	         6.01805e+57
          1742.13920	         6.39895e+57
          1742.94550	         6.67053e+57
          1743.75180	         7.50939e+57
          1744.55810	         9.55377e+57
          1745.36440	         8.26764e+57
          1746.17070	         5.84384e+57
          1746.97700	         5.87141e+57
          1747.78330	         7.24337e+57
          1748.58960	         6.65203e+57
          1749.39590	         5.88245e+57
          1750.20220	         7.04325e+57
          1751.00850	         5.78567e+57
          1751.81480	         5.19629e+57
          1752.62110	         7.38199e+57
          1753.42740	         7.25861e+57
          1754.23370	         7.35305e+57
          1755.04000	         7.35804e+57
          1755.84630	         7.03806e+57
          1756.65260	         7.93389e+57
          1757.45890	         7.91412e+57
          1758.26520	         6.30669e+57
          1759.07150	         8.18069e+57
          1759.87780	         8.91440e+57
          1760.68410	         8.23944e+57
          1761.49040	         8.43239e+57
          1762.29670	         5.94743e+57
          1763.10300	         5.95291e+57
          1763.90930	         7.67051e+57
          1764.71560	         8.35191e+57
          1765.52190	         8.25130e+57
          1766.32820	         9.45651e+57
          1767.13450	         8.81082e+57
          1767.94080	         7.29320e+57
          1768.74710	         7.45036e+57
          1769.55340	         7.71538e+57
          1770.35970	         6.38486e+57
          1771.16600	         7.38305e+57
          1771.97230	         8.70163e+57
          1772.77860	         8.80535e+57
          1773.58490	         7.62063e+57
          1774.39120	         5.19070e+57
          1775.19750	         5.84915e+57
          1776.00380	         6.69460e+57
          1776.81010	         6.27196e+57
          1777.61640	         6.51574e+57
          1778.42270	         7.28884e+57
          1779.22900	         7.52383e+57
          1780.03530	         7.08420e+57
          1780.84160	         7.65003e+57
          1781.64790	         7.66677e+57
          1782.45420	         7.10316e+57
          1783.26050	         7.60007e+57
          1784.06680	         7.27645e+57
          1784.87310	         7.71190e+57
          1785.67940	         7.91888e+57
          1786.48570	         7.32417e+57
          1787.29200	         6.63918e+57
          1788.09830	         6.38284e+57
          1788.90460	         6.11680e+57
          1789.71090	         5.85543e+57
          1790.51720	         6.07202e+57
          1791.32350	         7.96413e+57
          1792.12980	         8.74952e+57
          1792.93610	         8.39048e+57
          1793.74240	         8.25343e+57
          1794.54870	         8.26068e+57
          1795.35500	         8.99156e+57
          1796.16130	         8.41141e+57
          1796.96760	         7.09943e+57
          1797.77390	         7.11950e+57
          1798.58020	         7.14395e+57
          1799.38650	         6.32059e+57
          1800.19280	         7.16119e+57
          1800.99910	         8.53069e+57
          1801.80540	         7.16653e+57
          1802.61170	         7.38213e+57
          1803.41800	         8.07779e+57
          1804.22430	         6.88825e+57
          1805.03060	         7.36585e+57
          1805.83690	         8.75773e+57
          1806.64320	         8.47570e+57
          1807.44950	         7.59089e+57
          1808.25580	         6.06353e+57
          1809.06210	         7.43753e+57
          1809.86840	         7.64906e+57
          1810.67470	         6.89110e+57
          1811.48100	         8.83466e+57
          1812.28730	         8.88771e+57
          1813.09360	         8.28152e+57
          1813.89990	         9.46845e+57
          1814.70620	         8.25852e+57
          1815.51250	         8.01589e+57
          1816.31880	         8.93966e+57
          1817.12510	         7.87388e+57
          1817.93140	         6.78124e+57
          1818.73770	         7.39472e+57
          1819.54400	         7.88283e+57
          1820.35030	         8.64712e+57
          1821.15660	         6.99767e+57
          1821.96290	         7.19376e+57
          1822.76920	         8.29272e+57
          1823.57550	         8.15416e+57
          1824.38180	         7.87014e+57
          1825.18810	         7.89866e+57
          1825.99440	         8.10581e+57
          1826.80070	         6.97962e+57
          1827.60700	         6.24985e+57
          1828.41330	         6.23101e+57
          1829.21960	         6.20178e+57
          1830.02590	         6.55956e+57
          1830.83220	         7.79251e+57
          1831.63850	         8.28976e+57
          1832.44480	         7.78074e+57
          1833.25110	         8.20223e+57
          1834.05740	         8.66474e+57
          1834.86370	         7.97382e+57
          1835.67000	         6.82518e+57
          1836.47630	         7.64593e+57
          1837.28260	         8.17414e+57
          1838.08890	         8.58372e+57
          1838.89520	         9.11116e+57
          1839.70150	         8.07418e+57
          1840.50780	         7.28822e+57
          1841.31410	         7.29822e+57
          1842.12040	         6.80238e+57
          1842.92670	         7.13550e+57
          1843.73300	         6.63997e+57
          1844.53930	         6.72309e+57
          1845.34560	         7.21781e+57
          1846.15190	         7.70975e+57
          1846.95820	         7.29157e+57
          1847.76450	         7.41367e+57
          1848.57080	         6.58627e+57
          1849.37710	         6.69956e+57
          1850.18340	         8.56596e+57
          1850.98970	         8.44488e+57
          1851.79600	         8.84603e+57
          1852.60230	         7.36674e+57
          1853.40860	         5.64144e+57
          1854.21490	         5.86047e+57
          1855.02120	         6.66795e+57
          1855.82750	         5.42470e+57
          1856.63380	         6.51139e+57
          1857.44010	         7.05208e+57
          1858.24640	         8.11656e+57
          1859.05270	         7.91332e+57
          1859.85900	         6.35769e+57
          1860.66530	         6.16387e+57
          1861.47160	         6.64491e+57
          1862.27790	         6.67645e+57
          1863.08420	         7.42564e+57
          1863.89050	         8.85793e+57
          1864.69680	         8.14555e+57
          1865.50310	         7.57199e+57
          1866.30940	         6.61631e+57
          1867.11570	         6.13454e+57
          1867.92200	         7.09764e+57
          1868.72830	         7.95903e+57
          1869.53460	         7.71095e+57
          1870.34090	         7.17119e+57
          1871.14720	         7.83138e+57
          1871.95350	         7.46100e+57
          1872.75980	         7.63069e+57
          1873.56610	         7.28711e+57
          1874.37240	         5.98122e+57
          1875.17870	         6.27256e+57
          1875.98500	         7.61918e+57
          1876.79130	         8.08145e+57
          1877.59760	         7.16846e+57
          1878.40390	         5.73825e+57
          1879.21020	         6.27469e+57
          1880.01650	         7.40241e+57
          1880.82280	         9.08987e+57
          1881.62910	         8.36293e+57
          1882.43540	         9.91333e+57
          1883.24170	         8.30178e+57
          1884.04800	         6.86112e+57
          1884.85430	         7.49577e+57
          1885.66060	         8.83944e+57
          1886.46690	         8.84609e+57
          1887.27320	         7.29727e+57
          1888.07950	         6.23603e+57
          1888.88580	         8.09601e+57
          1889.69210	         8.45346e+57
          1890.49840	         8.44878e+57
          1891.30470	         8.20501e+57
          1892.11100	         8.49733e+57
          1892.91730	         7.82934e+57
          1893.72360	         7.07093e+57
          1894.52990	         7.16168e+57
          1895.33620	         8.51158e+57
          1896.14250	         7.77473e+57
          1896.94880	         7.78382e+57
          1897.75510	         5.23833e+57
          1898.56140	         5.19898e+57
          1899.36770	         7.60753e+57
          1900.17400	         7.21832e+57
          1900.98030	         7.45483e+57
          1901.78660	         7.52755e+57
          1902.59290	         7.17345e+57
          1903.39920	         9.07482e+57
          1904.20550	         9.16302e+57
          1905.01180	         8.54121e+57
          1905.81810	         9.84577e+57
          1906.62440	         1.22675e+58
          1907.43070	         1.44341e+58
          1908.23700	         1.62691e+58
          1909.04330	         1.45315e+58
          1909.84960	         1.20127e+58
          1910.65590	         1.03537e+58
          1911.46220	         1.00601e+58
          1912.26850	         7.82073e+57
          1913.07480	         5.90488e+57
          1913.88110	         6.03091e+57
          1914.68740	         5.66369e+57
          1915.49370	         5.54822e+57
          1916.30000	         6.31397e+57
          1917.10630	         7.13448e+57
          1917.91260	         6.86787e+57
          1918.71890	         6.93944e+57
          1919.52520	         6.59648e+57
          1920.33150	         6.16561e+57
          1921.13780	         6.16590e+57
          1921.94410	         8.05544e+57
          1922.75040	         8.18197e+57
          1923.55670	         7.61962e+57
          1924.36300	         8.58933e+57
          1925.16930	         7.14715e+57
          1925.97560	         4.97819e+57
          1926.78190	         4.56908e+57
          1927.58820	         4.77433e+57
          1928.39450	         7.01399e+57
          1929.20080	         6.72918e+57
          1930.00710	         7.57295e+57
          1930.81340	         8.25777e+57
          1931.61970	         7.92353e+57
          1932.42600	         7.69485e+57
          1933.23230	         8.12556e+57
          1934.03860	         7.90875e+57
          1934.84490	         5.84649e+57
          1935.65120	         7.56084e+57
          1936.45750	         9.03893e+57
          1937.26380	         7.67728e+57
          1938.07010	         8.42455e+57
          1938.87640	         8.85434e+57
          1939.68270	         7.85635e+57
          1940.48900	         8.13039e+57
          1941.29530	         8.89163e+57
          1942.10160	         8.32666e+57
          1942.90790	         7.01408e+57
          1943.71420	         6.58948e+57
          1944.52050	         6.71390e+57
          1945.32680	         6.31912e+57
          1946.13310	         8.17052e+57
          1946.93940	         8.90888e+57
          1947.74570	         7.77375e+57
          1948.55200	         6.59419e+57
          1949.35830	         6.64461e+57
          1950.16460	         7.31111e+57
          1950.97090	         7.04608e+57
          1951.77720	         7.16116e+57
          1952.58350	         7.70170e+57
          1953.38980	         6.89653e+57
          1954.19610	         5.17450e+57
          1955.00240	         5.92789e+57
          1955.80870	         5.86653e+57
          1956.61500	         5.89030e+57
          1957.42130	         6.14643e+57
          1958.22760	         7.00054e+57
          1959.03390	         7.36257e+57
          1959.84020	         7.85859e+57
          1960.64650	         7.12640e+57
          1961.45280	         6.26110e+57
          1962.25910	         6.95766e+57
          1963.06540	         7.32913e+57
          1963.87170	         5.89888e+57
          1964.67800	         6.24003e+57
          1965.48430	         5.91576e+57
          1966.29060	         4.85183e+57
          1967.09690	         6.78192e+57
          1967.90320	         7.52394e+57
          1968.70950	         6.76891e+57
          1969.51580	         6.64741e+57
          1970.32210	         8.82062e+57
          1971.12840	         7.16455e+57
          1971.93470	         3.95558e+57
          1972.74100	         4.89451e+57
          1973.54730	         6.59357e+57
          1974.35360	         7.30395e+57
          1975.15990	         7.25572e+57
          1975.96620	         6.91286e+57
          1976.77250	         7.75940e+57
          1977.57880	         8.66934e+57
          1978.38510	         7.15338e+57
          1979.19140	         7.00476e+57
          1979.99770	         8.22481e+57
          1980.80400	         7.75370e+57
          1981.61030	         6.51692e+57
          1982.41660	         5.35281e+57
          1983.22290	         5.70654e+57
          1984.02920	         5.79188e+57
          1984.83550	         6.42225e+57
          1985.64180	         6.56036e+57
          1986.44810	         6.34725e+57
          1987.25440	         6.12052e+57
          1988.06070	         5.23151e+57
          1988.86700	         4.93495e+57
          1989.67330	         7.06250e+57
          1990.47960	         6.16344e+57
          1991.28590	         6.60291e+57
          1992.09220	         6.31703e+57
          1992.89850	         5.68811e+57
          1993.70480	         5.66080e+57
          1994.51110	         5.43201e+57
          1995.31740	         5.43433e+57
          1996.12370	         5.27088e+57
          1996.93000	         6.18936e+57
          1997.73630	         8.05175e+57
          1998.54260	         5.94569e+57
          1999.34890	         5.14883e+57
          2000.15520	         5.52301e+57
          2000.96150	         7.21825e+57
          2001.76780	         7.33893e+57
          2002.57410	         5.11606e+57
          2003.38040	         6.16618e+57
          2004.18670	         6.36546e+57
          2004.99300	         5.98694e+57
          2005.79930	         7.64717e+57
          2006.60560	         7.02616e+57
          2007.41190	         6.73229e+57
          2008.21820	         6.10187e+57
          2009.02450	         6.70344e+57
          2009.83080	         7.08487e+57
          2010.63710	         5.83282e+57
          2011.44340	         6.90192e+57
          2012.24970	         7.09689e+57
          2013.05600	         6.99240e+57
          2013.86230	         6.04330e+57
          2014.66860	         5.56716e+57
          2015.47490	         7.34592e+57
          2016.28120	         7.04562e+57
          2017.08750	         6.66780e+57
          2017.89380	         6.65211e+57
          2018.70010	         6.71851e+57
          2019.50640	         5.76293e+57
          2020.31270	         5.34890e+57
          2021.11900	         7.39457e+57
          2021.92530	         6.92298e+57
          2022.73160	         7.64697e+57
          2023.53790	         6.86632e+57
          2024.34420	         6.45754e+57
          2025.15050	         6.19581e+57
          2025.95680	         5.76274e+57
          2026.76310	         6.72229e+57
          2027.56940	         7.62323e+57
          2028.37570	         5.53963e+57
          2029.18200	         5.55295e+57
          2029.98830	         5.78728e+57
          2030.79460	         6.62177e+57
          2031.60090	         6.58883e+57
          2032.40720	         6.49537e+57
          2033.21350	         6.08922e+57
          2034.01980	         5.37696e+57
          2034.82610	         3.53621e+57
          2035.63240	         4.46085e+57
          2036.43870	         5.94191e+57
          2037.24500	         7.06980e+57
          2038.05130	         5.71532e+57
          2038.85760	         5.08502e+57
          2039.66390	         6.07523e+57
          2040.47020	         6.18629e+57
          2041.27650	         5.85303e+57
          2042.08280	         5.71191e+57
          2042.88910	         5.91288e+57
          2043.69540	         5.58161e+57
          2044.50170	         5.28224e+57
          2045.30800	         5.21510e+57
          2046.11430	         3.24590e+57
          2046.92060	         5.08487e+57
          2047.72690	         7.88268e+57
          2048.53320	         7.57244e+57
          2049.33950	         5.89018e+57
          2050.14580	         5.85765e+57
          2050.95210	         6.85484e+57
          2051.75840	         7.82152e+57
          2052.56470	         5.40840e+57
          2053.37100	         3.39184e+57
          2054.17730	         5.15996e+57
          2054.98360	         6.21733e+57
          2055.78990	         3.86270e+57
          2056.59620	         2.35100e+57
          2057.40250	         5.27697e+57
          2058.20880	         6.12005e+57
          2059.01510	         5.67970e+57
          2059.82140	         5.95913e+57
          2060.62770	         9.70069e+57
          2061.43400	         1.53416e+58
          2062.24030	         1.35671e+58
          2063.04660	         4.56171e+57
          2063.85290	         4.18277e+57
          2064.65920	        -1.34964e+57
          2065.46550	        -1.03429e+58
          2066.27180	        -8.87619e+57
          2067.07810	         1.75711e+57
          2067.88440	         3.86317e+57
          2068.69070	         6.25056e+57
          2069.49700	         5.80786e+57
          2070.30330	         4.11168e+57
          2071.10960	         3.51359e+57
          2071.91590	         6.29184e+57
          2072.72220	         4.53918e+57
          2073.52850	         4.55847e+57
          2074.33480	         4.88802e+57
          2075.14110	         5.14945e+57
          2075.94740	         4.94830e+57
          2076.75370	         5.15586e+57
          2077.56000	         4.78380e+57
          2078.36630	         5.17642e+57
          2079.17260	         5.18396e+57
          2079.97890	         6.54032e+57
          2080.78520	         6.20572e+57
          2081.59150	         5.43265e+57
          2082.39780	         4.61875e+57
          2083.20410	         2.32406e+57
          2084.01040	         5.32245e+56
          2084.81670	         2.39607e+57
          2085.62300	         4.49275e+57
          2086.42930	         5.50193e+57
          2087.23560	         2.58012e+57
          2088.04190	         3.16084e+57
          2088.84820	         3.44182e+57
          2089.65450	         1.55999e+57
          2090.46080	         3.16874e+56
          2091.26710	         1.77359e+57
          2092.07340	         2.34664e+57
          2092.87970	         1.78282e+57
          2093.68600	        -8.81693e+56
          2094.49230	         3.27946e+56
          2095.29860	         4.18492e+57
          2096.10490	         1.94883e+57
          2096.91120	         2.72172e+57
          2097.71750	         2.83778e+57
          2098.52380	         1.41155e+57
          2099.33010	         1.57277e+57
          2100.13640	         6.45323e+56
          2100.94270	         1.95818e+57
          2101.74900	         1.15099e+57
          2102.55530	         1.76159e+57
          2103.36160	         1.00901e+57
          2104.16790	         2.30691e+57
          2104.97420	         4.72484e+56
          2105.78050	         9.14742e+56
          2106.58680	         1.41820e+57
          2107.39310	         2.74123e+56
          2108.19940	         1.75924e+57
          2109.00570	         3.70422e+57
          2109.81200	         2.74630e+57
          2110.61830	         4.00458e+57
          2111.42460	         3.11499e+57
          2112.23090	         8.12790e+56
          2113.03720	         7.38093e+56
          2113.84350	         1.08642e+57
          2114.64980	         7.40100e+57
          2115.45610	        -8.07413e+56
          2116.26240	         2.20471e+57
          2117.06870	        -1.87161e+57
          2117.87500	        -3.86692e+57
          2118.68130	         3.24065e+57
          2119.48760	         4.79376e+57
          2120.29390	         2.54626e+57
          2121.10020	        -3.20926e+57
          2121.90650	        -3.50001e+57
          2122.71280	        -3.41503e+57
          2123.51910	         1.68504e+57
          2124.32540	         2.77555e+56
          2125.13170	        -5.73519e+56
          2125.93800	        -9.93427e+56
          2126.74430	        -3.61301e+57
          2127.55060	        -4.47078e+57
          2128.35690	        -5.08056e+57
          2129.16320	         8.17697e+56
          2129.96950	        -1.29738e+57
          2130.77580	        -3.44475e+57
          2131.58210	         2.31495e+57
          2132.38840	        -6.17991e+57
          2133.19470	        -4.44275e+57
          2134.00100	        -5.75635e+56
          2134.80730	        -8.54273e+57
          2135.61360	         1.40563e+57
          2136.41990	         1.21242e+58
          2137.22620	         5.98850e+57
          2138.03250	        -4.88712e+57
          2138.83880	        -6.88430e+56
          2139.64510	        -7.02702e+57
          2140.45140	        -3.97026e+57
          2141.25770	        -6.73453e+57
          2142.06400	        -7.01870e+57
          2142.87030	        -1.86444e+57
          2143.67660	         3.63629e+57
          2144.48290	         1.04929e+58
          2145.28920	         1.54336e+58
          2146.09550	        -3.98043e+57
          2146.90180	        -5.72249e+57
          2147.70810	         4.19402e+56
          2148.51440	        -1.43047e+58
          2149.32070	        -9.58758e+57
          2150.12700	        -1.46596e+58
          2150.93330	        -4.57754e+57
          2151.73960	         9.88170e+56
          2152.54590	         6.95277e+56
          2153.35220	        -4.68639e+57
          2154.15850	        -2.90978e+57
          2154.96480	         3.44207e+57
          2155.77110	        -6.14967e+57
          2156.57740	        -8.40278e+57
          2157.38370	         3.14926e+57
          2158.19000	         7.28156e+57
          2158.99630	         4.44820e+56
          2159.80260	        -1.33179e+58
          2160.60890	        -5.71833e+57
          2161.41520	        -9.50980e+57
          2162.22150	        -6.26213e+57
          2163.02780	        -3.42595e+56
          2163.83410	        -5.65865e+57
          2164.64040	        -8.10724e+57
          2165.44670	        -8.67719e+57
          2166.25300	        -6.98499e+57
          2167.05930	        -4.72835e+57
          2167.86560	        -1.10239e+58
          2168.67190	        -8.20549e+57
          2169.47820	        -4.41019e+57
          2170.28450	        -8.55541e+57
          2171.09080	        -4.61882e+57
          2171.89710	         3.03683e+57
          2172.70340	         2.63430e+57
          2173.50970	        -5.97448e+57
          2174.31600	        -2.48126e+57
          2175.12230	         2.42448e+57
          2175.92860	        -2.37830e+57
          2176.73490	        -4.22500e+57
          2177.54120	        -5.78809e+57
          2178.34750	         5.87689e+56
          2179.15380	                 nan
          2179.96010	                 nan
          2180.76640	                 nan
          2181.57270	                 nan
          2182.37900	                 nan
          2183.18530	                 nan
          2183.99160	                 nan
          2184.79790	                 nan
          2185.60420	                 nan
          2186.41050	                 nan
          2187.21680	                 nan
          2188.02310	                 nan
          2188.82940	                 nan
          2189.63570	                 nan
          2190.44200	                 nan
          2191.24830	                 nan
          2192.05460	                 nan
          2192.86090	                 nan
          2193.66720	                 nan
          2194.47350	                 nan
          2195.27980	                 nan
          2196.08610	                 nan
          2196.89240	                 nan
          2197.69870	                 nan
          2198.50500	                 nan
          2199.31130	                 nan
          2200.11760	                 nan
          2200.92390	                 nan
          2201.73020	                 nan
          2202.53650	                 nan
          2203.34280	                 nan
          2204.14910	                 nan
          2204.95540	                 nan
          2205.76170	                 nan
          2206.56800	                 nan
          2207.37430	                 nan
          2208.18060	                 nan
          2208.98690	                 nan
          2209.79320	                 nan
          2210.59950	                 nan
          2211.40580	                 nan
          2212.21210	                 nan
          2213.01840	                 nan
          2213.82470	                 nan
          2214.63100	                 nan
          2215.43730	         0.00000e+00
